time_stamp,acc_x,acc_y,acc_z
0.0,15552.0,1408.0,-512.0
0.0025,15616.0,1408.0,-512.0
0.005,15552.0,1408.0,-512.0
0.0075,15552.0,1408.0,-448.0
0.01,15552.0,1472.0,-448.0
0.0125,15488.0,1472.0,-384.0
0.015,15552.0,1472.0,-384.0
0.0175,15488.0,1472.0,-384.0
0.02,15488.0,1472.0,-512.0
0.0225,15488.0,1472.0,-448.0
0.025,15488.0,1472.0,-512.0
0.0275,15360.0,1408.0,-448.0
0.03,15360.0,1408.0,-448.0
0.0325,15424.0,1408.0,-448.0
0.035,15360.0,1408.0,-448.0
0.0375,15360.0,1408.0,-448.0
0.04,15424.0,1344.0,-448.0
0.0425,15424.0,1408.0,-448.0
0.045,15360.0,1408.0,-448.0
0.0475,15360.0,1344.0,-448.0
0.05,15360.0,1408.0,-384.0
0.0525,15424.0,1408.0,-384.0
0.055,15424.0,1408.0,-384.0
0.0575,15424.0,1408.0,-384.0
0.06,15360.0,1472.0,-384.0
0.0625,15424.0,1472.0,-384.0
0.065,15424.0,1472.0,-384.0
0.0675,15424.0,1472.0,-320.0
0.07,15424.0,1472.0,-320.0
0.0725,15424.0,1408.0,-320.0
0.075,15424.0,1472.0,-320.0
0.0775,15360.0,1472.0,-320.0
0.08,15360.0,1408.0,-384.0
0.0825,15424.0,1408.0,-256.0
0.085,15424.0,1472.0,-320.0
0.0875,15360.0,1472.0,-384.0
0.09,15424.0,1408.0,-384.0
0.0925,15424.0,1408.0,-448.0
0.095,15424.0,1472.0,-384.0
0.0975,15424.0,1472.0,-384.0
0.1,15488.0,1408.0,-320.0
0.1025,15424.0,1408.0,-320.0
0.105,15424.0,1344.0,-448.0
0.1075,15488.0,1408.0,-448.0
0.11,15488.0,1408.0,-448.0
0.1125,15424.0,1344.0,-448.0
0.115,15488.0,1408.0,-448.0
0.1175,15424.0,1408.0,-448.0
0.12,15488.0,1344.0,-512.0
0.1225,15424.0,1408.0,-448.0
0.125,15488.0,1408.0,-448.0
0.1275,15488.0,1408.0,-448.0
0.13,15488.0,1408.0,-384.0
0.1325,15424.0,1408.0,-384.0
0.135,15488.0,1408.0,-448.0
0.1375,15552.0,1472.0,-384.0
0.14,15488.0,1536.0,-448.0
0.1425,15424.0,1536.0,-448.0
0.145,15424.0,1536.0,-448.0
0.1475,15488.0,1408.0,-512.0
0.15,15488.0,1344.0,-512.0
0.1525,15424.0,1344.0,-512.0
0.155,15424.0,1344.0,-512.0
0.1575,15424.0,1344.0,-512.0
0.16,15424.0,1408.0,-512.0
0.1625,15488.0,1344.0,-576.0
0.165,15488.0,1280.0,-576.0
0.1675,15488.0,1344.0,-576.0
0.17,15552.0,1344.0,-512.0
0.1725,15488.0,1344.0,-512.0
0.175,15488.0,1280.0,-512.0
0.1775,15424.0,1344.0,-512.0
0.18,15488.0,1344.0,-576.0
0.1825,15488.0,1408.0,-576.0
0.185,15552.0,1344.0,-640.0
0.1875,15488.0,1344.0,-640.0
0.19,15488.0,1344.0,-576.0
0.1925,15488.0,1280.0,-576.0
0.195,15552.0,1280.0,-576.0
0.1975,15488.0,1280.0,-576.0
0.2,15424.0,1280.0,-640.0
0.2025,15488.0,1280.0,-640.0
0.205,15488.0,1280.0,-640.0
0.2075,15488.0,1280.0,-640.0
0.21,15424.0,1216.0,-704.0
0.2125,15424.0,1280.0,-640.0
0.215,15488.0,1152.0,-640.0
0.2175,15488.0,1152.0,-640.0
0.22,15488.0,1280.0,-576.0
0.2225,15552.0,1280.0,-576.0
0.225,15552.0,1216.0,-576.0
0.2275,15552.0,1216.0,-576.0
0.23,15552.0,1280.0,-576.0
0.2325,15616.0,1280.0,-640.0
0.235,15616.0,1280.0,-576.0
0.2375,15616.0,1280.0,-576.0
0.24,15488.0,1344.0,-640.0
0.2425,15488.0,1344.0,-640.0
0.245,15552.0,1344.0,-704.0
0.2475,15488.0,1344.0,-704.0
0.25,15424.0,1344.0,-704.0
0.2525,15488.0,1280.0,-704.0
0.255,15424.0,1280.0,-768.0
0.2575,15424.0,1280.0,-768.0
0.26,15424.0,1280.0,-768.0
0.2625,15360.0,1280.0,-704.0
0.265,15424.0,1280.0,-768.0
0.2675,15424.0,1280.0,-832.0
0.27,15488.0,1280.0,-768.0
0.2725,15424.0,1280.0,-704.0
0.275,15424.0,1280.0,-704.0
0.2775,15424.0,1344.0,-640.0
0.28,15424.0,1344.0,-704.0
0.2825,15424.0,1280.0,-768.0
0.285,15424.0,1280.0,-704.0
0.2875,15488.0,1280.0,-704.0
0.29,15424.0,1344.0,-768.0
0.2925,15424.0,1280.0,-704.0
0.295,15424.0,1344.0,-768.0
0.2975,15360.0,1280.0,-768.0
0.3,15296.0,1280.0,-768.0
0.3025,15296.0,1280.0,-832.0
0.305,15296.0,1280.0,-768.0
0.3075,15296.0,1344.0,-768.0
0.31,15296.0,1408.0,-768.0
0.3125,15296.0,1344.0,-832.0
0.315,15360.0,1280.0,-832.0
0.3175,15296.0,1216.0,-832.0
0.32,15232.0,1280.0,-832.0
0.3225,15232.0,1280.0,-768.0
0.325,15296.0,1280.0,-768.0
0.3275,15360.0,1280.0,-832.0
0.33,15360.0,1280.0,-704.0
0.3325,15424.0,1280.0,-704.0
0.335,15360.0,1344.0,-768.0
0.3375,15296.0,1280.0,-704.0
0.34,15296.0,1280.0,-768.0
0.3425,15232.0,1280.0,-704.0
0.345,15232.0,1280.0,-704.0
0.3475,15360.0,1280.0,-768.0
0.35,15360.0,1344.0,-832.0
0.3525,15360.0,1344.0,-832.0
0.355,15360.0,1344.0,-896.0
0.3575,15360.0,1344.0,-832.0
0.36,15360.0,1280.0,-832.0
0.3625,15296.0,1344.0,-960.0
0.365,15360.0,1344.0,-960.0
0.3675,15360.0,1216.0,-1024.0
0.37,15296.0,1152.0,-896.0
0.3725,15296.0,1216.0,-896.0
0.375,15296.0,1280.0,-832.0
0.3775,15296.0,1280.0,-832.0
0.38,15360.0,1280.0,-768.0
0.3825,15424.0,1280.0,-704.0
0.385,15424.0,1280.0,-768.0
0.3875,15360.0,1344.0,-768.0
0.39,15360.0,1280.0,-704.0
0.3925,15296.0,1216.0,-704.0
0.395,15424.0,1216.0,-768.0
0.3975,15360.0,1280.0,-768.0
0.4,15360.0,1344.0,-768.0
0.4025,15360.0,1344.0,-832.0
0.405,15296.0,1344.0,-768.0
0.4075,15296.0,1344.0,-768.0
0.41,15360.0,1280.0,-832.0
0.4125,15360.0,1344.0,-832.0
0.415,15360.0,1344.0,-832.0
0.4175,15360.0,1216.0,-832.0
0.42,15360.0,1216.0,-896.0
0.4225,15360.0,1280.0,-896.0
0.425,15296.0,1216.0,-960.0
0.4275,15296.0,1280.0,-960.0
0.43,15296.0,1344.0,-896.0
0.4325,15360.0,1344.0,-896.0
0.435,15360.0,1344.0,-832.0
0.4375,15424.0,1344.0,-832.0
0.44,15360.0,1280.0,-768.0
0.4425,15360.0,1344.0,-832.0
0.445,15360.0,1216.0,-832.0
0.4475,15424.0,1280.0,-832.0
0.45,15360.0,1280.0,-832.0
0.4525,15360.0,1216.0,-832.0
0.455,15424.0,1280.0,-832.0
0.4575,15360.0,1280.0,-832.0
0.46,15360.0,1216.0,-896.0
0.4625,15360.0,1216.0,-832.0
0.465,15360.0,1280.0,-832.0
0.4675,15424.0,1216.0,-896.0
0.47,15360.0,1280.0,-896.0
0.4725,15424.0,1280.0,-768.0
0.475,15360.0,1280.0,-768.0
0.4775,15360.0,1344.0,-832.0
0.48,15360.0,1344.0,-896.0
0.4825,15360.0,1344.0,-960.0
0.485,15296.0,1344.0,-960.0
0.4875,15296.0,1344.0,-896.0
0.49,15296.0,1408.0,-896.0
0.4925,15360.0,1344.0,-832.0
0.495,15360.0,1280.0,-832.0
0.4975,15360.0,1280.0,-768.0
0.5,15424.0,1344.0,-832.0
0.5025,15360.0,1344.0,-832.0
0.505,15360.0,1344.0,-832.0
0.5075,15296.0,1280.0,-832.0
0.51,15296.0,1280.0,-896.0
0.5125,15296.0,1280.0,-832.0
0.515,15296.0,1280.0,-896.0
0.5175,15360.0,1216.0,-960.0
0.52,15296.0,1280.0,-896.0
0.5225,15232.0,1280.0,-896.0
0.525,15232.0,1280.0,-832.0
0.5275,15232.0,1344.0,-896.0
0.53,15232.0,1280.0,-896.0
0.5325,15232.0,1344.0,-960.0
0.535,15168.0,1280.0,-960.0
0.5375,15168.0,1280.0,-960.0
0.54,15296.0,1280.0,-1088.0
0.5425,15232.0,1216.0,-960.0
0.545,15296.0,1216.0,-896.0
0.5475,15232.0,1280.0,-896.0
0.55,15232.0,1344.0,-832.0
0.5525,15232.0,1344.0,-832.0
0.555,15232.0,1280.0,-896.0
0.5575,15232.0,1344.0,-896.0
0.56,15296.0,1280.0,-832.0
0.5625,15296.0,1280.0,-832.0
0.565,15232.0,1280.0,-832.0
0.5675,15296.0,1280.0,-832.0
0.57,15232.0,1280.0,-832.0
0.5725,15296.0,1280.0,-832.0
0.575,15296.0,1280.0,-832.0
0.5775,15296.0,1280.0,-896.0
0.58,15360.0,1280.0,-896.0
0.5825,15360.0,1216.0,-960.0
0.585,15296.0,1216.0,-1024.0
0.5875,15360.0,1216.0,-1024.0
0.59,15296.0,1280.0,-1024.0
0.5925,15296.0,1280.0,-1088.0
0.595,15296.0,1216.0,-1024.0
0.5975,15296.0,1280.0,-1024.0
0.6,15296.0,1344.0,-1088.0
0.6025,15360.0,1344.0,-1088.0
0.605,15296.0,1280.0,-960.0
0.6075,15360.0,1344.0,-832.0
0.61,15360.0,1344.0,-832.0
0.6125,15360.0,1344.0,-896.0
0.615,15424.0,1280.0,-832.0
0.6175,15424.0,1280.0,-896.0
0.62,15424.0,1344.0,-832.0
0.6225,15424.0,1280.0,-960.0
0.625,15360.0,1344.0,-832.0
0.6275,15360.0,1344.0,-960.0
0.63,15360.0,1344.0,-896.0
0.6325,15360.0,1344.0,-960.0
0.635,15296.0,1280.0,-960.0
0.6375,15296.0,1280.0,-1024.0
0.64,15360.0,1280.0,-960.0
0.6425,15360.0,1344.0,-960.0
0.645,15360.0,1280.0,-1024.0
0.6475,15296.0,1344.0,-1024.0
0.65,15360.0,1280.0,-960.0
0.6525,15360.0,1280.0,-1024.0
0.655,15424.0,1280.0,-1024.0
0.6575,15488.0,1280.0,-1024.0
0.66,15424.0,1280.0,-960.0
0.6625,15424.0,1280.0,-896.0
0.665,15488.0,1280.0,-896.0
0.6675,15488.0,1216.0,-960.0
0.67,15424.0,1216.0,-896.0
0.6725,15424.0,1216.0,-960.0
0.675,15424.0,1216.0,-896.0
0.6775,15488.0,1216.0,-896.0
0.68,15488.0,1280.0,-896.0
0.6825,15424.0,1344.0,-960.0
0.685,15488.0,1280.0,-960.0
0.6875,15424.0,1280.0,-960.0
0.69,15360.0,1280.0,-960.0
0.6925,15360.0,1216.0,-960.0
0.695,15424.0,1344.0,-1088.0
0.6975,15360.0,1344.0,-1088.0
0.7,15360.0,1280.0,-1024.0
0.7025,15424.0,1280.0,-1024.0
0.705,15360.0,1280.0,-1024.0
0.7075,15360.0,1280.0,-960.0
0.71,15360.0,1344.0,-1024.0
0.7125,15424.0,1280.0,-1024.0
0.715,15424.0,1280.0,-960.0
0.7175,15360.0,1280.0,-1024.0
0.72,15296.0,1280.0,-960.0
0.7225,15360.0,1280.0,-896.0
0.725,15360.0,1216.0,-896.0
0.7275,15360.0,1280.0,-896.0
0.73,15360.0,1280.0,-896.0
0.7325,15360.0,1216.0,-896.0
0.735,15360.0,1216.0,-960.0
0.7375,15360.0,1152.0,-896.0
0.74,15360.0,1152.0,-960.0
0.7425,15296.0,1216.0,-1088.0
0.745,15360.0,1216.0,-1024.0
0.7475,15424.0,1216.0,-1024.0
0.75,15360.0,1216.0,-1024.0
0.7525,15296.0,1216.0,-1024.0
0.755,15296.0,1216.0,-1088.0
0.7575,15296.0,1216.0,-1088.0
0.76,15232.0,1280.0,-1024.0
0.7625,15296.0,1216.0,-1024.0
0.765,15360.0,1280.0,-1088.0
0.7675,15360.0,1344.0,-1024.0
0.77,15296.0,1344.0,-1024.0
0.7725,15424.0,1280.0,-1024.0
0.775,15360.0,1216.0,-960.0
0.7775,15360.0,1216.0,-960.0
0.78,15296.0,1280.0,-1024.0
0.7825,15296.0,1216.0,-960.0
0.785,15360.0,1216.0,-960.0
0.7875,15296.0,1216.0,-896.0
0.79,15296.0,1216.0,-896.0
0.7925,15296.0,1216.0,-960.0
0.795,15360.0,1216.0,-960.0
0.7975,15360.0,1280.0,-896.0
0.8,15488.0,1280.0,-896.0
0.8025,15360.0,1280.0,-960.0
0.805,15360.0,1280.0,-1024.0
0.8075,15424.0,1216.0,-896.0
0.81,15424.0,1280.0,-896.0
0.8125,15424.0,1280.0,-960.0
0.815,15424.0,1280.0,-1024.0
0.8175,15488.0,1216.0,-960.0
0.82,15488.0,1216.0,-960.0
0.8225,15488.0,1216.0,-896.0
0.825,15296.0,1280.0,-832.0
0.8275,15360.0,1344.0,-896.0
0.83,15424.0,1344.0,-896.0
0.8325,15424.0,1280.0,-832.0
0.835,15488.0,1280.0,-832.0
0.8375,15488.0,1280.0,-832.0
0.84,15488.0,1280.0,-832.0
0.8425,15424.0,1216.0,-960.0
0.845,15488.0,1216.0,-960.0
0.8475,15488.0,1280.0,-896.0
0.85,15488.0,1216.0,-896.0
0.8525,15552.0,1216.0,-960.0
0.855,15488.0,1216.0,-960.0
0.8575,15488.0,1216.0,-960.0
0.86,15616.0,1152.0,-896.0
0.8625,15552.0,1216.0,-896.0
0.865,15552.0,1216.0,-832.0
0.8675,15488.0,1216.0,-832.0
0.87,15552.0,1216.0,-832.0
0.8725,15488.0,1216.0,-832.0
0.875,15488.0,1216.0,-832.0
0.8775,15552.0,1280.0,-832.0
0.88,15552.0,1344.0,-768.0
0.8825,15552.0,1344.0,-704.0
0.885,15552.0,1344.0,-704.0
0.8875,15552.0,1408.0,-704.0
0.89,15552.0,1408.0,-704.0
0.8925,15552.0,1472.0,-704.0
0.895,15488.0,1472.0,-704.0
0.8975,15488.0,1472.0,-704.0
0.9,15552.0,1472.0,-768.0
0.9025,15552.0,1472.0,-768.0
0.905,15552.0,1472.0,-768.0
0.9075,15552.0,1408.0,-768.0
0.91,15616.0,1408.0,-832.0
0.9125,15552.0,1408.0,-832.0
0.915,15552.0,1408.0,-832.0
0.9175,15488.0,1408.0,-832.0
0.92,15488.0,1344.0,-896.0
0.9225,15488.0,1344.0,-832.0
0.925,15488.0,1344.0,-768.0
0.9275,15488.0,1472.0,-768.0
0.93,15488.0,1472.0,-768.0
0.9325,15488.0,1536.0,-832.0
0.935,15488.0,1472.0,-832.0
0.9375,15424.0,1472.0,-704.0
0.94,15488.0,1472.0,-704.0
0.9425,15488.0,1408.0,-704.0
0.945,15552.0,1472.0,-704.0
0.9475,15552.0,1472.0,-768.0
0.95,15552.0,1536.0,-704.0
0.9525,15552.0,1536.0,-640.0
0.955,15488.0,1536.0,-704.0
0.9575,15552.0,1600.0,-704.0
0.96,15616.0,1664.0,-640.0
0.9625,15552.0,1600.0,-704.0
0.965,15552.0,1536.0,-640.0
0.9675,15552.0,1536.0,-768.0
0.97,15616.0,1536.0,-768.0
0.9725,15616.0,1536.0,-704.0
0.975,15680.0,1536.0,-704.0
0.9775,15744.0,1472.0,-768.0
0.98,15680.0,1536.0,-704.0
0.9825,15680.0,1600.0,-640.0
0.985,15680.0,1600.0,-640.0
0.9875,15680.0,1600.0,-704.0
0.99,15680.0,1600.0,-640.0
0.9925,15744.0,1664.0,-640.0
0.995,15744.0,1600.0,-640.0
0.9975,15744.0,1600.0,-576.0
1.0,15680.0,1600.0,-512.0
1.0025,15616.0,1536.0,-512.0
1.005,15680.0,1600.0,-576.0
1.0075,15680.0,1536.0,-576.0
1.01,15616.0,1536.0,-576.0
1.0125,15616.0,1536.0,-576.0
1.015,15616.0,1536.0,-640.0
1.0175,15616.0,1600.0,-640.0
1.02,15552.0,1536.0,-640.0
1.0225,15552.0,1600.0,-640.0
1.025,15552.0,1600.0,-576.0
1.0275,15488.0,1600.0,-576.0
1.03,15552.0,1600.0,-576.0
1.0325,15488.0,1600.0,-576.0
1.035,15488.0,1600.0,-640.0
1.0375,15488.0,1536.0,-640.0
1.04,15488.0,1472.0,-640.0
1.0425,15424.0,1472.0,-640.0
1.045,15488.0,1472.0,-704.0
1.0475,15488.0,1472.0,-576.0
1.05,15488.0,1472.0,-576.0
1.0525,15488.0,1408.0,-640.0
1.055,15488.0,1344.0,-704.0
1.0575,15424.0,1344.0,-704.0
1.06,15424.0,1344.0,-704.0
1.0625,15488.0,1408.0,-640.0
1.065,15424.0,1472.0,-640.0
1.0675,15488.0,1472.0,-704.0
1.07,15424.0,1472.0,-768.0
1.0725,15424.0,1472.0,-704.0
1.075,15424.0,1472.0,-768.0
1.0775,15424.0,1408.0,-768.0
1.08,15424.0,1408.0,-768.0
1.0825,15360.0,1408.0,-896.0
1.085,15296.0,1344.0,-960.0
1.0875,15296.0,1408.0,-960.0
1.09,15296.0,1344.0,-896.0
1.0925,15296.0,1408.0,-896.0
1.095,15296.0,1472.0,-768.0
1.0975,15360.0,1472.0,-832.0
1.1,15360.0,1536.0,-896.0
1.1025,15360.0,1472.0,-832.0
1.105,15296.0,1472.0,-832.0
1.1075,15360.0,1408.0,-832.0
1.11,15296.0,1344.0,-832.0
1.1125,15232.0,1344.0,-896.0
1.115,15232.0,1408.0,-832.0
1.1175,15232.0,1408.0,-896.0
1.12,15232.0,1344.0,-896.0
1.1225,15232.0,1408.0,-960.0
1.125,15168.0,1408.0,-960.0
1.1275,15168.0,1408.0,-1088.0
1.13,15104.0,1408.0,-1152.0
1.1325,15168.0,1344.0,-1088.0
1.135,15232.0,1344.0,-1216.0
1.1375,15232.0,1280.0,-1216.0
1.14,15232.0,1280.0,-1152.0
1.1425,15168.0,1280.0,-1152.0
1.145,15104.0,1216.0,-1152.0
1.1475,15168.0,1216.0,-1216.0
1.15,15104.0,1216.0,-1152.0
1.1525,15168.0,1152.0,-1088.0
1.155,15168.0,1088.0,-1152.0
1.1575,15232.0,1152.0,-1152.0
1.16,15232.0,1088.0,-1152.0
1.1625,15168.0,1088.0,-1152.0
1.165,15168.0,1152.0,-1152.0
1.1675,15104.0,1088.0,-1216.0
1.17,15232.0,1088.0,-1152.0
1.1725,15168.0,1088.0,-1088.0
1.175,15168.0,1088.0,-1216.0
1.1775,15232.0,1152.0,-1216.0
1.18,15232.0,1152.0,-1152.0
1.1825,15168.0,1152.0,-1216.0
1.185,15168.0,1152.0,-1280.0
1.1875,15168.0,1152.0,-1280.0
1.19,15168.0,1152.0,-1344.0
1.1925,15168.0,1152.0,-1344.0
1.195,15168.0,1152.0,-1344.0
1.1975,15104.0,1152.0,-1408.0
1.2,15104.0,1088.0,-1472.0
1.2025,15168.0,1088.0,-1408.0
1.205,15232.0,1088.0,-1280.0
1.2075,15296.0,1088.0,-1216.0
1.21,15296.0,1088.0,-1280.0
1.2125,15296.0,1280.0,-1216.0
1.215,15296.0,1280.0,-1152.0
1.2175,15296.0,1216.0,-1152.0
1.22,15296.0,1280.0,-1280.0
1.2225,15296.0,1216.0,-1216.0
1.225,15360.0,1280.0,-1216.0
1.2275,15360.0,1216.0,-1216.0
1.23,15360.0,1216.0,-1216.0
1.2325,15424.0,1216.0,-1280.0
1.235,15296.0,1152.0,-1280.0
1.2375,15360.0,1152.0,-1280.0
1.24,15360.0,1152.0,-1344.0
1.2425,15424.0,1152.0,-1408.0
1.245,15360.0,1152.0,-1408.0
1.2475,15296.0,1152.0,-1408.0
1.25,15296.0,1088.0,-1408.0
1.2525,15360.0,1152.0,-1408.0
1.255,15360.0,1152.0,-1472.0
1.2575,15360.0,1152.0,-1472.0
1.26,15360.0,1152.0,-1472.0
1.2625,15296.0,1152.0,-1536.0
1.265,15296.0,1152.0,-1536.0
1.2675,15296.0,1088.0,-1472.0
1.27,15296.0,1088.0,-1472.0
1.2725,15296.0,1216.0,-1408.0
1.275,15296.0,1216.0,-1408.0
1.2775,15296.0,1216.0,-1408.0
1.28,15296.0,1216.0,-1472.0
1.2825,15296.0,1216.0,-1472.0
1.285,15296.0,1152.0,-1472.0
1.2875,15360.0,1152.0,-1472.0
1.29,15296.0,1152.0,-1472.0
1.2925,15232.0,1152.0,-1536.0
1.295,15296.0,1216.0,-1600.0
1.2975,15296.0,1216.0,-1536.0
1.3,15296.0,1216.0,-1536.0
1.3025,15296.0,1216.0,-1536.0
1.305,15232.0,1216.0,-1536.0
1.3075,15232.0,1216.0,-1536.0
1.31,15232.0,1280.0,-1472.0
1.3125,15232.0,1216.0,-1536.0
1.315,15296.0,1216.0,-1600.0
1.3175,15296.0,1152.0,-1536.0
1.32,15296.0,1088.0,-1536.0
1.3225,15296.0,1216.0,-1472.0
1.325,15296.0,1152.0,-1472.0
1.3275,15296.0,1216.0,-1536.0
1.33,15296.0,1216.0,-1472.0
1.3325,15296.0,1280.0,-1536.0
1.335,15296.0,1280.0,-1536.0
1.3375,15296.0,1344.0,-1536.0
1.34,15296.0,1344.0,-1536.0
1.3425,15360.0,1344.0,-1600.0
1.345,15360.0,1280.0,-1536.0
1.3475,15360.0,1216.0,-1472.0
1.35,15424.0,1152.0,-1472.0
1.3525,15488.0,1216.0,-1536.0
1.355,15424.0,1280.0,-1536.0
1.3575,15488.0,1280.0,-1536.0
1.36,15488.0,1216.0,-1536.0
1.3625,15424.0,1216.0,-1536.0
1.365,15424.0,1280.0,-1536.0
1.3675,15424.0,1280.0,-1536.0
1.37,15488.0,1280.0,-1600.0
1.3725,15424.0,1280.0,-1600.0
1.375,15424.0,1280.0,-1600.0
1.3775,15488.0,1280.0,-1536.0
1.38,15488.0,1280.0,-1472.0
1.3825,15488.0,1280.0,-1536.0
1.385,15488.0,1280.0,-1472.0
1.3875,15488.0,1344.0,-1408.0
1.39,15488.0,1344.0,-1408.0
1.3925,15552.0,1280.0,-1408.0
1.395,15552.0,1280.0,-1344.0
1.3975,15552.0,1280.0,-1408.0
1.4,15488.0,1280.0,-1408.0
1.4025,15552.0,1280.0,-1408.0
1.405,15488.0,1344.0,-1472.0
1.4075,15488.0,1408.0,-1408.0
1.41,15424.0,1408.0,-1408.0
1.4125,15360.0,1408.0,-1408.0
1.415,15360.0,1408.0,-1344.0
1.4175,15360.0,1408.0,-1280.0
1.42,15360.0,1408.0,-1344.0
1.4225,15424.0,1472.0,-1344.0
1.425,15360.0,1408.0,-1408.0
1.4275,15424.0,1408.0,-1344.0
1.43,15360.0,1472.0,-1280.0
1.4325,15424.0,1408.0,-1152.0
1.435,15488.0,1344.0,-1216.0
1.4375,15424.0,1344.0,-1216.0
1.44,15360.0,1344.0,-1280.0
1.4425,15296.0,1344.0,-1280.0
1.445,15360.0,1344.0,-1280.0
1.4475,15424.0,1408.0,-1280.0
1.45,15424.0,1472.0,-1280.0
1.4525,15360.0,1408.0,-1280.0
1.455,15360.0,1408.0,-1344.0
1.4575,15296.0,1408.0,-1344.0
1.46,15296.0,1280.0,-1280.0
1.4625,15296.0,1280.0,-1216.0
1.465,15296.0,1344.0,-1152.0
1.4675,15424.0,1280.0,-1216.0
1.47,15424.0,1344.0,-1216.0
1.4725,15360.0,1408.0,-1216.0
1.475,15360.0,1344.0,-1216.0
1.4775,15360.0,1408.0,-1152.0
1.48,15296.0,1408.0,-1152.0
1.4825,15296.0,1472.0,-1152.0
1.485,15296.0,1344.0,-1088.0
1.4875,15296.0,1408.0,-1152.0
1.49,15296.0,1344.0,-1088.0
1.4925,15296.0,1344.0,-1088.0
1.495,15296.0,1344.0,-1088.0
1.4975,15232.0,1344.0,-1088.0
1.5,15232.0,1344.0,-1088.0
1.5025,15232.0,1408.0,-1024.0
1.505,15232.0,1408.0,-1024.0
1.5075,15296.0,1344.0,-1024.0
1.51,15424.0,1344.0,-1024.0
1.5125,15296.0,1344.0,-1024.0
1.515,15360.0,1344.0,-1088.0
1.5175,15360.0,1344.0,-1088.0
1.52,15360.0,1344.0,-1088.0
1.5225,15360.0,1344.0,-1152.0
1.525,15360.0,1408.0,-1088.0
1.5275,15360.0,1408.0,-1088.0
1.53,15424.0,1344.0,-1024.0
1.5325,15424.0,1280.0,-1024.0
1.535,15360.0,1344.0,-1088.0
1.5375,15296.0,1344.0,-1088.0
1.54,15296.0,1344.0,-960.0
1.5425,15360.0,1408.0,-960.0
1.545,15360.0,1408.0,-1024.0
1.5475,15360.0,1408.0,-960.0
1.55,15360.0,1408.0,-1024.0
1.5525,15424.0,1344.0,-1088.0
1.555,15424.0,1280.0,-1024.0
1.5575,15424.0,1344.0,-1088.0
1.56,15360.0,1344.0,-1088.0
1.5625,15360.0,1344.0,-1024.0
1.565,15424.0,1344.0,-1024.0
1.5675,15488.0,1280.0,-1088.0
1.57,15488.0,1216.0,-1088.0
1.5725,15424.0,1280.0,-1088.0
1.575,15488.0,1280.0,-1024.0
1.5775,15488.0,1216.0,-1088.0
1.58,15424.0,1216.0,-1088.0
1.5825,15424.0,1280.0,-1024.0
1.585,15488.0,1280.0,-1088.0
1.5875,15488.0,1280.0,-1088.0
1.59,15552.0,1216.0,-1024.0
1.5925,15552.0,1216.0,-1024.0
1.595,15488.0,1280.0,-1088.0
1.5975,15424.0,1280.0,-960.0
1.6,15424.0,1216.0,-960.0
1.6025,15488.0,1280.0,-960.0
1.605,15488.0,1280.0,-960.0
1.6075,15552.0,1280.0,-960.0
1.61,15552.0,1344.0,-960.0
1.6125,15552.0,1408.0,-896.0
1.615,15552.0,1408.0,-896.0
1.6175,15552.0,1408.0,-1024.0
1.62,15552.0,1408.0,-960.0
1.6225,15552.0,1408.0,-896.0
1.625,15552.0,1408.0,-896.0
1.6275,15488.0,1472.0,-960.0
1.63,15488.0,1408.0,-1024.0
1.6325,15424.0,1408.0,-960.0
1.635,15488.0,1472.0,-1024.0
1.6375,15552.0,1472.0,-1024.0
1.64,15552.0,1472.0,-960.0
1.6425,15552.0,1536.0,-1024.0
1.645,15552.0,1536.0,-960.0
1.6475,15488.0,1536.0,-1024.0
1.65,15424.0,1536.0,-896.0
1.6525,15424.0,1408.0,-960.0
1.655,15488.0,1408.0,-896.0
1.6575,15488.0,1344.0,-896.0
1.66,15488.0,1344.0,-960.0
1.6625,15552.0,1344.0,-960.0
1.665,15616.0,1408.0,-896.0
1.6675,15552.0,1408.0,-896.0
1.67,15488.0,1472.0,-896.0
1.6725,15424.0,1472.0,-960.0
1.675,15424.0,1472.0,-896.0
1.6775,15424.0,1472.0,-832.0
1.68,15488.0,1472.0,-896.0
1.6825,15488.0,1472.0,-896.0
1.685,15488.0,1472.0,-896.0
1.6875,15488.0,1472.0,-896.0
1.69,15488.0,1408.0,-896.0
1.6925,15488.0,1472.0,-960.0
1.695,15552.0,1472.0,-960.0
1.6975,15488.0,1536.0,-960.0
1.7,15616.0,1600.0,-1024.0
1.7025,15552.0,1472.0,-960.0
1.705,15552.0,1472.0,-960.0
1.7075,15552.0,1408.0,-960.0
1.71,15488.0,1472.0,-896.0
1.7125,15488.0,1536.0,-896.0
1.715,15552.0,1600.0,-896.0
1.7175,15552.0,1536.0,-896.0
1.72,15616.0,1472.0,-896.0
1.7225,15552.0,1536.0,-896.0
1.725,15552.0,1472.0,-896.0
1.7275,15552.0,1472.0,-832.0
1.73,15552.0,1536.0,-768.0
1.7325,15616.0,1600.0,-832.0
1.735,15680.0,1600.0,-768.0
1.7375,15616.0,1536.0,-768.0
1.74,15552.0,1536.0,-832.0
1.7425,15488.0,1536.0,-768.0
1.745,15488.0,1536.0,-832.0
1.7475,15552.0,1536.0,-832.0
1.75,15552.0,1536.0,-896.0
1.7525,15488.0,1536.0,-896.0
1.755,15424.0,1536.0,-960.0
1.7575,15424.0,1536.0,-960.0
1.76,15424.0,1536.0,-896.0
1.7625,15360.0,1536.0,-960.0
1.765,15424.0,1536.0,-960.0
1.7675,15360.0,1472.0,-832.0
1.77,15360.0,1472.0,-832.0
1.7725,15424.0,1472.0,-832.0
1.775,15360.0,1472.0,-768.0
1.7775,15424.0,1536.0,-768.0
1.78,15424.0,1536.0,-768.0
1.7825,15424.0,1600.0,-768.0
1.785,15424.0,1600.0,-768.0
1.7875,15424.0,1600.0,-832.0
1.79,15424.0,1600.0,-832.0
1.7925,15424.0,1600.0,-896.0
1.795,15360.0,1600.0,-896.0
1.7975,15424.0,1536.0,-960.0
1.8,15424.0,1472.0,-960.0
1.8025,15424.0,1408.0,-960.0
1.805,15424.0,1408.0,-1024.0
1.8075,15360.0,1344.0,-1088.0
1.81,15360.0,1344.0,-1152.0
1.8125,15424.0,1280.0,-1088.0
1.815,15424.0,1280.0,-1088.0
1.8175,15424.0,1280.0,-1024.0
1.82,15488.0,1216.0,-1088.0
1.8225,15488.0,1216.0,-1024.0
1.825,15552.0,1216.0,-960.0
1.8275,15616.0,1344.0,-960.0
1.83,15616.0,1344.0,-960.0
1.8325,15616.0,1408.0,-1024.0
1.835,15616.0,1408.0,-1024.0
1.8375,15616.0,1408.0,-1024.0
1.84,15616.0,1344.0,-1088.0
1.8425,15616.0,1344.0,-1024.0
1.845,15616.0,1344.0,-1024.0
1.8475,15680.0,1344.0,-1152.0
1.85,15552.0,1280.0,-1152.0
1.8525,15552.0,1216.0,-1024.0
1.855,15616.0,1216.0,-1024.0
1.8575,15616.0,1216.0,-1024.0
1.86,15616.0,1280.0,-1024.0
1.8625,15552.0,1280.0,-1024.0
1.865,15552.0,1152.0,-1088.0
1.8675,15424.0,1216.0,-1152.0
1.87,15488.0,1216.0,-1088.0
1.8725,15424.0,1280.0,-1088.0
1.875,15488.0,1280.0,-1024.0
1.8775,15552.0,1280.0,-1088.0
1.88,15488.0,1280.0,-1088.0
1.8825,15552.0,1216.0,-960.0
1.885,15424.0,1280.0,-960.0
1.8875,15424.0,1280.0,-960.0
1.89,15424.0,1280.0,-960.0
1.8925,15488.0,1216.0,-1024.0
1.895,15488.0,1216.0,-1024.0
1.8975,15488.0,1280.0,-960.0
1.9,15488.0,1280.0,-1024.0
1.9025,15424.0,1216.0,-1024.0
1.905,15360.0,1152.0,-1024.0
1.9075,15360.0,1216.0,-1088.0
1.91,15360.0,1216.0,-1152.0
1.9125,15360.0,1280.0,-1088.0
1.915,15360.0,1216.0,-1088.0
1.9175,15296.0,1280.0,-1024.0
1.92,15296.0,1216.0,-1088.0
1.9225,15296.0,1280.0,-1024.0
1.925,15360.0,1216.0,-1024.0
1.9275,15360.0,1216.0,-1088.0
1.93,15296.0,1216.0,-1024.0
1.9325,15296.0,1216.0,-1088.0
1.935,15296.0,1216.0,-960.0
1.9375,15360.0,1216.0,-1088.0
1.94,15360.0,1216.0,-1024.0
1.9425,15424.0,1280.0,-1088.0
1.945,15360.0,1280.0,-960.0
1.9475,15424.0,1280.0,-1024.0
1.95,15360.0,1280.0,-1024.0
1.9525,15424.0,1344.0,-1024.0
1.955,15424.0,1280.0,-960.0
1.9575,15360.0,1344.0,-1024.0
1.96,15296.0,1344.0,-960.0
1.9625,15360.0,1280.0,-960.0
1.965,15360.0,1216.0,-1088.0
1.9675,15360.0,1216.0,-1088.0
1.97,15360.0,1152.0,-1088.0
1.9725,15296.0,1216.0,-1152.0
1.975,15232.0,1280.0,-1088.0
1.9775,15360.0,1280.0,-1088.0
1.98,15360.0,1280.0,-1152.0
1.9825,15424.0,1280.0,-1152.0
1.985,15360.0,1280.0,-1088.0
1.9875,15424.0,1216.0,-1088.0
1.99,15488.0,1280.0,-1152.0
1.9925,15424.0,1280.0,-1024.0
1.995,15360.0,1280.0,-1088.0
1.9975,15424.0,1280.0,-1088.0
2.0,15424.0,1280.0,-1088.0
2.0025,15424.0,1280.0,-1024.0
2.005,15488.0,1280.0,-1024.0
2.0075,15424.0,1280.0,-1024.0
2.01,15424.0,1280.0,-1024.0
2.0125,15296.0,1344.0,-1088.0
2.015,15360.0,1280.0,-1088.0
2.0175,15360.0,1280.0,-1152.0
2.02,15296.0,1280.0,-1088.0
2.0225,15296.0,1344.0,-1088.0
2.025,15296.0,1216.0,-1088.0
2.0275,15296.0,1280.0,-1088.0
2.03,15296.0,1280.0,-1088.0
2.0325,15232.0,1216.0,-1024.0
2.035,15232.0,1216.0,-1024.0
2.0375,15296.0,1280.0,-1024.0
2.04,15296.0,1216.0,-1088.0
2.0425,15296.0,1216.0,-1088.0
2.045,15296.0,1216.0,-1088.0
2.0475,15296.0,1216.0,-1024.0
2.05,15360.0,1280.0,-1024.0
2.0525,15360.0,1280.0,-1024.0
2.055,15360.0,1280.0,-1024.0
2.0575,15296.0,1280.0,-1088.0
2.06,15360.0,1280.0,-1088.0
2.0625,15296.0,1280.0,-1088.0
2.065,15360.0,1216.0,-1152.0
2.0675,15360.0,1152.0,-1088.0
2.07,15296.0,1088.0,-1152.0
2.0725,15296.0,1088.0,-1152.0
2.075,15296.0,1152.0,-1216.0
2.0775,15296.0,1088.0,-1216.0
2.08,15360.0,1152.0,-1152.0
2.0825,15296.0,1152.0,-1152.0
2.085,15296.0,1152.0,-1152.0
2.0875,15296.0,1152.0,-1024.0
2.09,15296.0,1216.0,-1024.0
2.0925,15296.0,1152.0,-1024.0
2.095,15360.0,1152.0,-1088.0
2.0975,15360.0,1152.0,-1088.0
2.1,15296.0,1152.0,-1088.0
2.1025,15360.0,1152.0,-1088.0
2.105,15360.0,1152.0,-1088.0
2.1075,15360.0,1152.0,-1152.0
2.11,15296.0,1216.0,-1152.0
2.1125,15296.0,1216.0,-1152.0
2.115,15232.0,1216.0,-1088.0
2.1175,15296.0,1216.0,-1088.0
2.12,15296.0,1216.0,-1024.0
2.1225,15296.0,1216.0,-1024.0
2.125,15296.0,1216.0,-1088.0
2.1275,15360.0,1152.0,-1088.0
2.13,15296.0,1152.0,-1024.0
2.1325,15360.0,1216.0,-1088.0
2.135,15232.0,1152.0,-1088.0
2.1375,15296.0,1152.0,-1024.0
2.14,15296.0,1152.0,-1088.0
2.1425,15296.0,1152.0,-1088.0
2.145,15296.0,1152.0,-1088.0
2.1475,15296.0,1152.0,-1152.0
2.15,15232.0,1152.0,-1216.0
2.1525,15232.0,1152.0,-1152.0
2.155,15232.0,1088.0,-1216.0
2.1575,15296.0,1216.0,-1152.0
2.16,15360.0,1152.0,-1088.0
2.1625,15360.0,1152.0,-1088.0
2.165,15424.0,1152.0,-1088.0
2.1675,15424.0,1088.0,-1088.0
2.17,15360.0,1088.0,-1088.0
2.1725,15296.0,1024.0,-1216.0
2.175,15360.0,1152.0,-1152.0
2.1775,15360.0,1088.0,-1152.0
2.18,15360.0,1088.0,-1088.0
2.1825,15360.0,1152.0,-1152.0
2.185,15360.0,1088.0,-1152.0
2.1875,15424.0,1088.0,-1088.0
2.19,15360.0,1152.0,-1024.0
2.1925,15360.0,1152.0,-1024.0
2.195,15360.0,1152.0,-1024.0
2.1975,15360.0,1152.0,-960.0
2.2,15424.0,1216.0,-1024.0
2.2025,15424.0,1216.0,-1024.0
2.205,15360.0,1216.0,-960.0
2.2075,15296.0,1216.0,-960.0
2.21,15296.0,1152.0,-960.0
2.2125,15360.0,1152.0,-960.0
2.215,15360.0,1280.0,-1088.0
2.2175,15360.0,1280.0,-960.0
2.22,15360.0,1216.0,-960.0
2.2225,15424.0,1216.0,-960.0
2.225,15360.0,1216.0,-960.0
2.2275,15360.0,1216.0,-960.0
2.23,15360.0,1280.0,-960.0
2.2325,15360.0,1216.0,-960.0
2.235,15360.0,1216.0,-1024.0
2.2375,15424.0,1216.0,-1024.0
2.24,15360.0,1152.0,-960.0
2.2425,15296.0,1152.0,-1024.0
2.245,15360.0,1152.0,-1024.0
2.2475,15360.0,1152.0,-1024.0
2.25,15296.0,1152.0,-1024.0
2.2525,15360.0,1152.0,-1024.0
2.255,15360.0,1088.0,-960.0
2.2575,15360.0,1152.0,-896.0
2.26,15424.0,1152.0,-896.0
2.2625,15360.0,1216.0,-832.0
2.265,15360.0,1216.0,-832.0
2.2675,15360.0,1216.0,-832.0
2.27,15360.0,1216.0,-896.0
2.2725,15296.0,1152.0,-896.0
2.275,15296.0,1152.0,-896.0
2.2775,15296.0,1152.0,-960.0
2.28,15296.0,1152.0,-896.0
2.2825,15296.0,1152.0,-960.0
2.285,15360.0,1216.0,-960.0
2.2875,15296.0,1216.0,-960.0
2.29,15296.0,1280.0,-896.0
2.2925,15360.0,1152.0,-960.0
2.295,15360.0,1216.0,-896.0
2.2975,15296.0,1280.0,-896.0
2.3,15232.0,1344.0,-832.0
2.3025,15232.0,1280.0,-896.0
2.305,15232.0,1216.0,-896.0
2.3075,15360.0,1216.0,-896.0
2.31,15296.0,1216.0,-832.0
2.3125,15232.0,1216.0,-896.0
2.315,15232.0,1152.0,-768.0
2.3175,15232.0,1152.0,-768.0
2.32,15232.0,1152.0,-768.0
2.3225,15232.0,1216.0,-832.0
2.325,15296.0,1216.0,-768.0
2.3275,15296.0,1216.0,-768.0
2.33,15296.0,1216.0,-768.0
2.3325,15232.0,1152.0,-768.0
2.335,15232.0,1216.0,-768.0
2.3375,15232.0,1216.0,-832.0
2.34,15232.0,1152.0,-832.0
2.3425,15232.0,1152.0,-832.0
2.345,15232.0,1152.0,-832.0
2.3475,15296.0,1152.0,-896.0
2.35,15296.0,1216.0,-832.0
2.3525,15296.0,1216.0,-896.0
2.355,15296.0,1152.0,-896.0
2.3575,15360.0,1088.0,-896.0
2.36,15360.0,1152.0,-896.0
2.3625,15360.0,1152.0,-896.0
2.365,15296.0,1152.0,-896.0
2.3675,15360.0,1152.0,-896.0
2.37,15296.0,1152.0,-896.0
2.3725,15296.0,1088.0,-896.0
2.375,15232.0,1152.0,-896.0
2.3775,15296.0,1088.0,-896.0
2.38,15360.0,1088.0,-896.0
2.3825,15424.0,1024.0,-832.0
2.385,15360.0,1024.0,-896.0
2.3875,15424.0,1024.0,-832.0
2.39,15424.0,1088.0,-896.0
2.3925,15424.0,1152.0,-832.0
2.395,15424.0,1088.0,-832.0
2.3975,15424.0,1088.0,-768.0
2.4,15488.0,1088.0,-896.0
2.4025,15488.0,1088.0,-896.0
2.405,15488.0,1088.0,-896.0
2.4075,15424.0,1088.0,-960.0
2.41,15488.0,1088.0,-960.0
2.4125,15424.0,1088.0,-832.0
2.415,15488.0,1088.0,-896.0
2.4175,15552.0,1152.0,-896.0
2.42,15488.0,1152.0,-896.0
2.4225,15488.0,1088.0,-832.0
2.425,15552.0,1088.0,-960.0
2.4275,15552.0,1024.0,-896.0
2.43,15552.0,1024.0,-832.0
2.4325,15552.0,1088.0,-832.0
2.435,15616.0,1088.0,-768.0
2.4375,15616.0,960.0,-832.0
2.44,15552.0,1024.0,-832.0
2.4425,15616.0,1024.0,-832.0
2.445,15680.0,1088.0,-768.0
2.4475,15616.0,1152.0,-832.0
2.45,15616.0,1152.0,-768.0
2.4525,15616.0,1152.0,-768.0
2.455,15680.0,1152.0,-704.0
2.4575,15616.0,1152.0,-704.0
2.46,15680.0,1216.0,-768.0
2.4625,15680.0,1152.0,-768.0
2.465,15616.0,1152.0,-768.0
2.4675,15616.0,1152.0,-768.0
2.47,15616.0,1152.0,-768.0
2.4725,15552.0,1152.0,-768.0
2.475,15616.0,1152.0,-832.0
2.4775,15616.0,1216.0,-832.0
2.48,15616.0,1216.0,-768.0
2.4825,15616.0,1152.0,-704.0
2.485,15552.0,1216.0,-704.0
2.4875,15552.0,1216.0,-768.0
2.49,15680.0,1216.0,-704.0
2.4925,15680.0,1216.0,-704.0
2.495,15616.0,1216.0,-704.0
2.4975,15616.0,1280.0,-768.0
2.5,15680.0,1216.0,-704.0
2.5025,15616.0,1280.0,-704.0
2.505,15616.0,1216.0,-832.0
2.5075,15552.0,1216.0,-704.0
2.51,15616.0,1216.0,-768.0
2.5125,15680.0,1216.0,-768.0
2.515,15616.0,1216.0,-768.0
2.5175,15552.0,1216.0,-768.0
2.52,15552.0,1216.0,-768.0
2.5225,15552.0,1216.0,-768.0
2.525,15616.0,1216.0,-832.0
2.5275,15552.0,1216.0,-768.0
2.53,15552.0,1216.0,-768.0
2.5325,15616.0,1216.0,-704.0
2.535,15616.0,1216.0,-704.0
2.5375,15680.0,1280.0,-704.0
2.54,15680.0,1280.0,-704.0
2.5425,15616.0,1216.0,-704.0
2.545,15616.0,1280.0,-704.0
2.5475,15680.0,1280.0,-640.0
2.55,15616.0,1344.0,-704.0
2.5525,15680.0,1344.0,-576.0
2.555,15616.0,1344.0,-576.0
2.5575,15744.0,1280.0,-640.0
2.56,15680.0,1344.0,-576.0
2.5625,15616.0,1408.0,-576.0
2.565,15616.0,1344.0,-576.0
2.5675,15616.0,1344.0,-576.0
2.57,15616.0,1408.0,-576.0
2.5725,15616.0,1344.0,-512.0
2.575,15552.0,1408.0,-576.0
2.5775,15488.0,1344.0,-512.0
2.58,15488.0,1344.0,-576.0
2.5825,15488.0,1408.0,-576.0
2.585,15488.0,1408.0,-576.0
2.5875,15424.0,1472.0,-512.0
2.59,15424.0,1408.0,-512.0
2.5925,15360.0,1408.0,-512.0
2.595,15360.0,1408.0,-512.0
2.5975,15360.0,1408.0,-512.0
2.6,15360.0,1408.0,-448.0
2.6025,15360.0,1344.0,-512.0
2.605,15360.0,1408.0,-512.0
2.6075,15296.0,1408.0,-512.0
2.61,15296.0,1344.0,-512.0
2.6125,15296.0,1344.0,-448.0
2.615,15296.0,1344.0,-448.0
2.6175,15168.0,1408.0,-448.0
2.62,15168.0,1408.0,-448.0
2.6225,15232.0,1344.0,-320.0
2.625,15232.0,1408.0,-384.0
2.6275,15296.0,1408.0,-384.0
2.63,15232.0,1408.0,-448.0
2.6325,15168.0,1408.0,-448.0
2.635,15168.0,1408.0,-384.0
2.6375,15040.0,1408.0,-384.0
2.64,15104.0,1408.0,-384.0
2.6425,15104.0,1408.0,-384.0
2.645,15168.0,1344.0,-448.0
2.6475,15168.0,1408.0,-384.0
2.65,15104.0,1344.0,-384.0
2.6525,15168.0,1408.0,-448.0
2.655,15104.0,1280.0,-512.0
2.6575,15168.0,1280.0,-448.0
2.66,15168.0,1344.0,-448.0
2.6625,15168.0,1344.0,-384.0
2.665,15168.0,1344.0,-448.0
2.6675,15168.0,1408.0,-448.0
2.67,15168.0,1408.0,-384.0
2.6725,15232.0,1472.0,-384.0
2.675,15168.0,1408.0,-448.0
2.6775,15232.0,1408.0,-448.0
2.68,15296.0,1408.0,-512.0
2.6825,15232.0,1408.0,-512.0
2.685,15168.0,1472.0,-576.0
2.6875,15232.0,1472.0,-576.0
2.69,15232.0,1408.0,-576.0
2.6925,15232.0,1408.0,-512.0
2.695,15296.0,1472.0,-512.0
2.6975,15296.0,1472.0,-512.0
2.7,15296.0,1472.0,-512.0
2.7025,15296.0,1472.0,-512.0
2.705,15232.0,1408.0,-576.0
2.7075,15296.0,1408.0,-640.0
2.71,15296.0,1408.0,-576.0
2.7125,15232.0,1472.0,-576.0
2.715,15232.0,1472.0,-640.0
2.7175,15296.0,1472.0,-640.0
2.72,15296.0,1408.0,-576.0
2.7225,15360.0,1344.0,-704.0
2.725,15296.0,1408.0,-704.0
2.7275,15296.0,1344.0,-704.0
2.73,15296.0,1408.0,-704.0
2.7325,15296.0,1472.0,-704.0
2.735,15296.0,1472.0,-640.0
2.7375,15360.0,1472.0,-768.0
2.74,15296.0,1472.0,-768.0
2.7425,15296.0,1408.0,-768.0
2.745,15296.0,1344.0,-768.0
2.7475,15296.0,1344.0,-832.0
2.75,15296.0,1280.0,-832.0
2.7525,15296.0,1216.0,-768.0
2.755,15232.0,1280.0,-832.0
2.7575,15232.0,1280.0,-896.0
2.76,15232.0,1280.0,-896.0
2.7625,15168.0,1280.0,-960.0
2.765,15232.0,1280.0,-896.0
2.7675,15168.0,1344.0,-832.0
2.77,15296.0,1344.0,-896.0
2.7725,15296.0,1344.0,-896.0
2.775,15360.0,1408.0,-896.0
2.7775,15360.0,1408.0,-960.0
2.78,15296.0,1344.0,-960.0
2.7825,15296.0,1408.0,-960.0
2.785,15232.0,1408.0,-1024.0
2.7875,15360.0,1408.0,-1088.0
2.79,15360.0,1344.0,-1152.0
2.7925,15360.0,1408.0,-1088.0
2.795,15424.0,1344.0,-1088.0
2.7975,15360.0,1280.0,-1088.0
2.8,15360.0,1344.0,-1088.0
2.8025,15360.0,1280.0,-1088.0
2.805,15360.0,1280.0,-1152.0
2.8075,15424.0,1280.0,-1088.0
2.81,15296.0,1280.0,-1088.0
2.8125,15360.0,1216.0,-1152.0
2.815,15360.0,1280.0,-1216.0
2.8175,15360.0,1280.0,-1152.0
2.82,15424.0,1280.0,-1152.0
2.8225,15488.0,1344.0,-1280.0
2.825,15488.0,1280.0,-1280.0
2.8275,15488.0,1280.0,-1280.0
2.83,15488.0,1344.0,-1216.0
2.8325,15488.0,1280.0,-1344.0
2.835,15488.0,1216.0,-1280.0
2.8375,15488.0,1216.0,-1216.0
2.84,15488.0,1216.0,-1216.0
2.8425,15488.0,1152.0,-1216.0
2.845,15552.0,1216.0,-1216.0
2.8475,15488.0,1280.0,-1152.0
2.85,15616.0,1280.0,-1216.0
2.8525,15616.0,1280.0,-1152.0
2.855,15616.0,1280.0,-1216.0
2.8575,15616.0,1280.0,-1280.0
2.86,15616.0,1280.0,-1216.0
2.8625,15552.0,1280.0,-1280.0
2.865,15552.0,1216.0,-1344.0
2.8675,15552.0,1216.0,-1344.0
2.87,15488.0,1152.0,-1344.0
2.8725,15488.0,1216.0,-1344.0
2.875,15552.0,1216.0,-1344.0
2.8775,15488.0,1216.0,-1344.0
2.88,15552.0,1216.0,-1408.0
2.8825,15552.0,1280.0,-1344.0
2.885,15552.0,1280.0,-1344.0
2.8875,15552.0,1344.0,-1280.0
2.89,15552.0,1280.0,-1344.0
2.8925,15552.0,1280.0,-1344.0
2.895,15552.0,1280.0,-1344.0
2.8975,15552.0,1280.0,-1344.0
2.9,15552.0,1280.0,-1280.0
2.9025,15552.0,1280.0,-1280.0
2.905,15552.0,1280.0,-1344.0
2.9075,15488.0,1216.0,-1344.0
2.91,15488.0,1216.0,-1280.0
2.9125,15488.0,1216.0,-1280.0
2.915,15488.0,1280.0,-1280.0
2.9175,15424.0,1216.0,-1280.0
2.92,15488.0,1280.0,-1344.0
2.9225,15424.0,1280.0,-1344.0
2.925,15488.0,1216.0,-1280.0
2.9275,15424.0,1216.0,-1280.0
2.93,15360.0,1152.0,-1344.0
2.9325,15360.0,1152.0,-1344.0
2.935,15424.0,1216.0,-1280.0
2.9375,15424.0,1152.0,-1280.0
2.94,15424.0,1152.0,-1344.0
2.9425,15360.0,1152.0,-1280.0
2.945,15424.0,1216.0,-1280.0
2.9475,15360.0,1216.0,-1216.0
2.95,15296.0,1152.0,-1216.0
2.9525,15360.0,1152.0,-1088.0
2.955,15296.0,1152.0,-1088.0
2.9575,15360.0,1216.0,-1088.0
2.96,15360.0,1216.0,-1088.0
2.9625,15360.0,1216.0,-1088.0
2.965,15360.0,1216.0,-1152.0
2.9675,15360.0,1216.0,-1152.0
2.97,15360.0,1152.0,-1088.0
2.9725,15296.0,1152.0,-1088.0
2.975,15360.0,1152.0,-1088.0
2.9775,15296.0,1152.0,-1088.0
2.98,15360.0,1152.0,-1152.0
2.9825,15360.0,1152.0,-1216.0
2.985,15296.0,1088.0,-1216.0
2.9875,15360.0,1088.0,-1152.0
2.99,15360.0,1088.0,-1152.0
2.9925,15360.0,1024.0,-1088.0
2.995,15360.0,1088.0,-1088.0
2.9975,15360.0,1088.0,-1088.0
3.0,15360.0,1088.0,-1088.0
3.0025,15360.0,1088.0,-1088.0
3.005,15360.0,1024.0,-1088.0
3.0075,15424.0,1024.0,-1088.0
3.01,15424.0,1088.0,-1024.0
3.0125,15360.0,1088.0,-1024.0
3.015,15424.0,1088.0,-1024.0
3.0175,15424.0,1088.0,-960.0
3.02,15424.0,1088.0,-896.0
3.0225,15424.0,1152.0,-896.0
3.025,15424.0,1152.0,-960.0
3.0275,15488.0,1152.0,-896.0
3.03,15424.0,1152.0,-896.0
3.0325,15360.0,1088.0,-896.0
3.035,15296.0,1152.0,-896.0
3.0375,15296.0,1152.0,-960.0
3.04,15296.0,1152.0,-960.0
3.0425,15296.0,1152.0,-960.0
3.045,15296.0,1088.0,-896.0
3.0475,15360.0,1088.0,-896.0
3.05,15296.0,1152.0,-896.0
3.0525,15296.0,1152.0,-896.0
3.055,15296.0,1088.0,-896.0
3.0575,15296.0,1088.0,-896.0
3.06,15360.0,1088.0,-896.0
3.0625,15296.0,1088.0,-832.0
3.065,15360.0,1088.0,-832.0
3.0675,15360.0,1024.0,-768.0
3.07,15296.0,1088.0,-768.0
3.0725,15360.0,1088.0,-768.0
3.075,15296.0,1088.0,-768.0
3.0775,15296.0,1088.0,-768.0
3.08,15360.0,1088.0,-768.0
3.0825,15360.0,1088.0,-768.0
3.085,15360.0,1088.0,-832.0
3.0875,15296.0,1088.0,-768.0
3.09,15296.0,1024.0,-832.0
3.0925,15296.0,1024.0,-832.0
3.095,15296.0,1088.0,-832.0
3.0975,15232.0,1024.0,-832.0
3.1,15296.0,1024.0,-832.0
3.1025,15296.0,1088.0,-832.0
3.105,15296.0,1088.0,-896.0
3.1075,15296.0,1088.0,-896.0
3.11,15296.0,1024.0,-832.0
3.1125,15296.0,1024.0,-768.0
3.115,15296.0,960.0,-832.0
3.1175,15296.0,960.0,-768.0
3.12,15296.0,960.0,-768.0
3.1225,15296.0,1024.0,-832.0
3.125,15232.0,1024.0,-768.0
3.1275,15296.0,1088.0,-768.0
3.13,15296.0,1088.0,-704.0
3.1325,15232.0,1088.0,-640.0
3.135,15296.0,1088.0,-640.0
3.1375,15296.0,1024.0,-704.0
3.14,15296.0,1024.0,-768.0
3.1425,15296.0,1088.0,-704.0
3.145,15296.0,1088.0,-768.0
3.1475,15360.0,1088.0,-768.0
3.15,15424.0,1152.0,-704.0
3.1525,15360.0,1152.0,-640.0
3.155,15360.0,1152.0,-704.0
3.1575,15360.0,1088.0,-768.0
3.16,15360.0,1024.0,-704.0
3.1625,15296.0,1024.0,-704.0
3.165,15296.0,1024.0,-576.0
3.1675,15296.0,1024.0,-640.0
3.17,15424.0,1088.0,-640.0
3.1725,15424.0,1152.0,-576.0
3.175,15424.0,1152.0,-576.0
3.1775,15424.0,1152.0,-576.0
3.18,15424.0,1152.0,-576.0
3.1825,15424.0,1152.0,-576.0
3.185,15360.0,1152.0,-640.0
3.1875,15424.0,1152.0,-704.0
3.19,15424.0,1152.0,-640.0
3.1925,15360.0,1088.0,-640.0
3.195,15296.0,1152.0,-640.0
3.1975,15360.0,1088.0,-640.0
3.2,15296.0,1152.0,-576.0
3.2025,15360.0,1088.0,-576.0
3.205,15360.0,1088.0,-640.0
3.2075,15360.0,1152.0,-640.0
3.21,15360.0,1152.0,-640.0
3.2125,15360.0,1216.0,-640.0
3.215,15360.0,1216.0,-640.0
3.2175,15424.0,1152.0,-640.0
3.22,15360.0,1088.0,-640.0
3.2225,15360.0,1088.0,-704.0
3.225,15424.0,1088.0,-640.0
3.2275,15424.0,1152.0,-704.0
3.23,15488.0,1152.0,-704.0
3.2325,15488.0,1152.0,-704.0
3.235,15424.0,1152.0,-640.0
3.2375,15424.0,1088.0,-704.0
3.24,15424.0,1088.0,-640.0
3.2425,15488.0,1152.0,-576.0
3.245,15488.0,1152.0,-640.0
3.2475,15488.0,1152.0,-576.0
3.25,15488.0,1216.0,-640.0
3.2525,15488.0,1152.0,-576.0
3.255,15488.0,1216.0,-640.0
3.2575,15488.0,1152.0,-640.0
3.26,15424.0,1216.0,-704.0
3.2625,15424.0,1216.0,-704.0
3.265,15424.0,1216.0,-640.0
3.2675,15424.0,1152.0,-640.0
3.27,15424.0,1152.0,-640.0
3.2725,15360.0,1216.0,-640.0
3.275,15360.0,1216.0,-640.0
3.2775,15296.0,1152.0,-640.0
3.28,15424.0,1280.0,-576.0
3.2825,15424.0,1216.0,-640.0
3.285,15424.0,1216.0,-576.0
3.2875,15424.0,1280.0,-576.0
3.29,15424.0,1280.0,-512.0
3.2925,15424.0,1280.0,-576.0
3.295,15424.0,1344.0,-576.0
3.2975,15424.0,1280.0,-512.0
3.3,15424.0,1280.0,-512.0
3.3025,15424.0,1280.0,-512.0
3.305,15424.0,1344.0,-576.0
3.3075,15488.0,1280.0,-576.0
3.31,15424.0,1344.0,-640.0
3.3125,15424.0,1280.0,-704.0
3.315,15360.0,1280.0,-640.0
3.3175,15424.0,1280.0,-704.0
3.32,15360.0,1280.0,-640.0
3.3225,15424.0,1280.0,-640.0
3.325,15360.0,1280.0,-640.0
3.3275,15360.0,1280.0,-576.0
3.33,15488.0,1344.0,-512.0
3.3325,15424.0,1408.0,-512.0
3.335,15424.0,1408.0,-576.0
3.3375,15488.0,1408.0,-512.0
3.34,15424.0,1408.0,-512.0
3.3425,15424.0,1408.0,-512.0
3.345,15424.0,1408.0,-576.0
3.3475,15424.0,1408.0,-576.0
3.35,15488.0,1408.0,-576.0
3.3525,15424.0,1408.0,-640.0
3.355,15488.0,1408.0,-640.0
3.3575,15488.0,1344.0,-640.0
3.36,15488.0,1344.0,-640.0
3.3625,15424.0,1344.0,-640.0
3.365,15488.0,1344.0,-640.0
3.3675,15488.0,1280.0,-576.0
3.37,15424.0,1408.0,-640.0
3.3725,15424.0,1472.0,-640.0
3.375,15424.0,1408.0,-576.0
3.3775,15424.0,1408.0,-640.0
3.38,15424.0,1408.0,-576.0
3.3825,15360.0,1408.0,-576.0
3.385,15424.0,1408.0,-576.0
3.3875,15424.0,1408.0,-576.0
3.39,15360.0,1408.0,-512.0
3.3925,15360.0,1408.0,-576.0
3.395,15424.0,1408.0,-576.0
3.3975,15360.0,1408.0,-576.0
3.4,15488.0,1472.0,-576.0
3.4025,15488.0,1472.0,-640.0
3.405,15488.0,1472.0,-640.0
3.4075,15552.0,1408.0,-640.0
3.41,15616.0,1472.0,-704.0
3.4125,15552.0,1472.0,-640.0
3.415,15552.0,1536.0,-704.0
3.4175,15552.0,1472.0,-640.0
3.42,15552.0,1472.0,-704.0
3.4225,15552.0,1472.0,-768.0
3.425,15552.0,1472.0,-768.0
3.4275,15552.0,1408.0,-832.0
3.43,15552.0,1408.0,-832.0
3.4325,15488.0,1408.0,-832.0
3.435,15488.0,1408.0,-832.0
3.4375,15488.0,1472.0,-832.0
3.44,15488.0,1472.0,-768.0
3.4425,15552.0,1472.0,-832.0
3.445,15552.0,1408.0,-768.0
3.4475,15552.0,1408.0,-704.0
3.45,15552.0,1472.0,-704.0
3.4525,15616.0,1472.0,-704.0
3.455,15616.0,1536.0,-704.0
3.4575,15552.0,1536.0,-704.0
3.46,15552.0,1600.0,-768.0
3.4625,15552.0,1600.0,-704.0
3.465,15488.0,1600.0,-832.0
3.4675,15488.0,1600.0,-832.0
3.47,15488.0,1536.0,-896.0
3.4725,15488.0,1536.0,-896.0
3.475,15552.0,1472.0,-960.0
3.4775,15488.0,1472.0,-896.0
3.48,15488.0,1472.0,-896.0
3.4825,15488.0,1408.0,-832.0
3.485,15488.0,1472.0,-896.0
3.4875,15552.0,1472.0,-896.0
3.49,15488.0,1472.0,-896.0
3.4925,15488.0,1472.0,-896.0
3.495,15552.0,1472.0,-832.0
3.4975,15552.0,1472.0,-832.0
3.5,15552.0,1472.0,-832.0
3.5025,15616.0,1472.0,-832.0
3.505,15616.0,1408.0,-768.0
3.5075,15552.0,1472.0,-832.0
3.51,15616.0,1472.0,-832.0
3.5125,15616.0,1472.0,-832.0
3.515,15616.0,1472.0,-832.0
3.5175,15552.0,1472.0,-832.0
3.52,15552.0,1472.0,-960.0
3.5225,15488.0,1536.0,-960.0
3.525,15488.0,1536.0,-960.0
3.5275,15488.0,1600.0,-960.0
3.53,15488.0,1472.0,-960.0
3.5325,15488.0,1472.0,-960.0
3.535,15488.0,1408.0,-960.0
3.5375,15488.0,1408.0,-960.0
3.54,15488.0,1408.0,-960.0
3.5425,15488.0,1472.0,-960.0
3.545,15488.0,1408.0,-960.0
3.5475,15488.0,1344.0,-832.0
3.55,15424.0,1344.0,-896.0
3.5525,15424.0,1344.0,-960.0
3.555,15424.0,1344.0,-960.0
3.5575,15360.0,1408.0,-896.0
3.56,15360.0,1408.0,-896.0
3.5625,15360.0,1344.0,-896.0
3.565,15360.0,1280.0,-896.0
3.5675,15360.0,1344.0,-896.0
3.57,15424.0,1408.0,-832.0
3.5725,15424.0,1408.0,-896.0
3.575,15424.0,1408.0,-896.0
3.5775,15360.0,1408.0,-896.0
3.58,15360.0,1408.0,-896.0
3.5825,15296.0,1344.0,-896.0
3.585,15360.0,1280.0,-960.0
3.5875,15296.0,1152.0,-1024.0
3.59,15296.0,1216.0,-960.0
3.5925,15296.0,1216.0,-896.0
3.595,15296.0,1216.0,-960.0
3.5975,15296.0,1216.0,-896.0
3.6,15296.0,1216.0,-960.0
3.6025,15296.0,1216.0,-960.0
3.605,15360.0,1216.0,-960.0
3.6075,15360.0,1216.0,-896.0
3.61,15360.0,1216.0,-832.0
3.6125,15360.0,1216.0,-832.0
3.615,15424.0,1216.0,-832.0
3.6175,15424.0,1216.0,-832.0
3.62,15424.0,1280.0,-768.0
3.6225,15360.0,1280.0,-768.0
3.625,15360.0,1280.0,-832.0
3.6275,15424.0,1280.0,-832.0
3.63,15360.0,1216.0,-768.0
3.6325,15360.0,1216.0,-832.0
3.635,15360.0,1216.0,-896.0
3.6375,15360.0,1280.0,-768.0
3.64,15424.0,1280.0,-896.0
3.6425,15296.0,1216.0,-832.0
3.645,15360.0,1216.0,-832.0
3.6475,15360.0,1216.0,-832.0
3.65,15360.0,1216.0,-896.0
3.6525,15360.0,1216.0,-896.0
3.655,15360.0,1088.0,-896.0
3.6575,15296.0,1088.0,-960.0
3.66,15232.0,1152.0,-896.0
3.6625,15232.0,1088.0,-960.0
3.665,15232.0,1024.0,-896.0
3.6675,15232.0,1024.0,-960.0
3.67,15360.0,1088.0,-832.0
3.6725,15360.0,1088.0,-768.0
3.675,15360.0,1152.0,-768.0
3.6775,15360.0,1152.0,-832.0
3.68,15360.0,1152.0,-704.0
3.6825,15360.0,1152.0,-704.0
3.685,15360.0,1152.0,-768.0
3.6875,15360.0,1152.0,-832.0
3.69,15296.0,1152.0,-768.0
3.6925,15296.0,1152.0,-768.0
3.695,15296.0,1088.0,-768.0
3.6975,15232.0,1152.0,-832.0
3.7,15232.0,1088.0,-832.0
3.7025,15232.0,1152.0,-832.0
3.705,15232.0,1088.0,-832.0
3.7075,15168.0,1088.0,-896.0
3.71,15168.0,1024.0,-896.0
3.7125,15168.0,1088.0,-896.0
3.715,15168.0,1024.0,-960.0
3.7175,15232.0,1088.0,-960.0
3.72,15232.0,1088.0,-896.0
3.7225,15232.0,1088.0,-896.0
3.725,15296.0,1088.0,-896.0
3.7275,15232.0,1024.0,-896.0
3.73,15296.0,1024.0,-896.0
3.7325,15296.0,1024.0,-896.0
3.735,15232.0,960.0,-768.0
3.7375,15296.0,1024.0,-832.0
3.74,15232.0,1088.0,-832.0
3.7425,15232.0,1088.0,-832.0
3.745,15296.0,1088.0,-832.0
3.7475,15296.0,1088.0,-832.0
3.75,15232.0,1024.0,-896.0
3.7525,15232.0,1024.0,-960.0
3.755,15232.0,1024.0,-896.0
3.7575,15232.0,1024.0,-896.0
3.76,15232.0,1024.0,-896.0
3.7625,15232.0,1088.0,-832.0
3.765,15232.0,1088.0,-896.0
3.7675,15232.0,1152.0,-896.0
3.77,15232.0,1088.0,-960.0
3.7725,15168.0,1088.0,-960.0
3.775,15232.0,1024.0,-896.0
3.7775,15232.0,1024.0,-960.0
3.78,15232.0,1024.0,-896.0
3.7825,15296.0,1024.0,-896.0
3.785,15360.0,1024.0,-832.0
3.7875,15296.0,1088.0,-768.0
3.79,15360.0,1088.0,-768.0
3.7925,15360.0,1152.0,-704.0
3.795,15296.0,1152.0,-768.0
3.7975,15424.0,1088.0,-704.0
3.8,15424.0,1088.0,-704.0
3.8025,15360.0,1088.0,-768.0
3.805,15296.0,1088.0,-768.0
3.8075,15296.0,1152.0,-704.0
3.81,15296.0,1088.0,-832.0
3.8125,15296.0,1152.0,-832.0
3.815,15360.0,1152.0,-832.0
3.8175,15296.0,1152.0,-832.0
3.82,15296.0,1152.0,-896.0
3.8225,15232.0,1088.0,-896.0
3.825,15232.0,1088.0,-896.0
3.8275,15296.0,1088.0,-960.0
3.83,15296.0,1024.0,-896.0
3.8325,15296.0,1088.0,-832.0
3.835,15360.0,1088.0,-768.0
3.8375,15360.0,1088.0,-704.0
3.84,15424.0,1088.0,-704.0
3.8425,15424.0,1152.0,-640.0
3.845,15488.0,1152.0,-640.0
3.8475,15488.0,1152.0,-640.0
3.85,15488.0,1152.0,-704.0
3.8525,15488.0,1216.0,-704.0
3.855,15488.0,1280.0,-640.0
3.8575,15488.0,1280.0,-640.0
3.86,15424.0,1280.0,-704.0
3.8625,15360.0,1280.0,-768.0
3.865,15360.0,1152.0,-768.0
3.8675,15360.0,1088.0,-832.0
3.87,15360.0,1152.0,-832.0
3.8725,15360.0,1152.0,-832.0
3.875,15424.0,1152.0,-832.0
3.8775,15360.0,1152.0,-704.0
3.88,15424.0,1152.0,-704.0
3.8825,15360.0,1152.0,-704.0
3.885,15296.0,1216.0,-704.0
3.8875,15296.0,1216.0,-704.0
3.89,15360.0,1152.0,-576.0
3.8925,15360.0,1152.0,-576.0
3.895,15360.0,1152.0,-640.0
3.8975,15424.0,1152.0,-576.0
3.9,15424.0,1152.0,-576.0
3.9025,15360.0,1216.0,-576.0
3.905,15296.0,1152.0,-576.0
3.9075,15360.0,1088.0,-576.0
3.91,15360.0,1152.0,-576.0
3.9125,15296.0,1088.0,-576.0
3.915,15296.0,1152.0,-512.0
3.9175,15296.0,1152.0,-576.0
3.92,15296.0,1216.0,-576.0
3.9225,15296.0,1280.0,-640.0
3.925,15296.0,1216.0,-704.0
3.9275,15296.0,1280.0,-704.0
3.93,15360.0,1280.0,-704.0
3.9325,15296.0,1216.0,-640.0
3.935,15360.0,1216.0,-640.0
3.9375,15360.0,1280.0,-704.0
3.94,15360.0,1152.0,-640.0
3.9425,15360.0,1216.0,-640.0
3.945,15360.0,1216.0,-640.0
3.9475,15296.0,1216.0,-640.0
3.95,15296.0,1152.0,-576.0
3.9525,15360.0,1216.0,-576.0
3.955,15424.0,1216.0,-512.0
3.9575,15424.0,1216.0,-512.0
3.96,15424.0,1344.0,-512.0
3.9625,15424.0,1344.0,-448.0
3.965,15488.0,1344.0,-512.0
3.9675,15488.0,1280.0,-448.0
3.97,15488.0,1216.0,-512.0
3.9725,15424.0,1280.0,-512.0
3.975,15424.0,1280.0,-512.0
3.9775,15424.0,1280.0,-576.0
3.98,15488.0,1280.0,-576.0
3.9825,15488.0,1344.0,-640.0
3.985,15488.0,1280.0,-640.0
3.9875,15488.0,1344.0,-512.0
3.99,15488.0,1344.0,-576.0
3.9925,15424.0,1280.0,-576.0
3.995,15360.0,1280.0,-576.0
3.9975,15424.0,1280.0,-576.0
4.0,15360.0,1216.0,-640.0
4.0025,15424.0,1216.0,-576.0
4.005,15488.0,1152.0,-512.0
4.0075,15424.0,1280.0,-512.0
4.01,15424.0,1216.0,-512.0
4.0125,15360.0,1280.0,-512.0
4.015,15424.0,1280.0,-512.0
4.0175,15424.0,1344.0,-512.0
4.02,15488.0,1344.0,-512.0
4.0225,15616.0,1344.0,-576.0
4.025,15488.0,1280.0,-512.0
4.0275,15488.0,1344.0,-576.0
4.03,15488.0,1408.0,-576.0
4.0325,15488.0,1408.0,-640.0
4.035,15552.0,1344.0,-640.0
4.0375,15488.0,1408.0,-576.0
4.04,15488.0,1408.0,-640.0
4.0425,15488.0,1344.0,-576.0
4.045,15488.0,1280.0,-640.0
4.0475,15424.0,1344.0,-640.0
4.05,15488.0,1280.0,-576.0
4.0525,15488.0,1344.0,-640.0
4.055,15488.0,1344.0,-576.0
4.0575,15488.0,1344.0,-576.0
4.06,15488.0,1408.0,-576.0
4.0625,15552.0,1344.0,-512.0
4.065,15488.0,1344.0,-512.0
4.0675,15552.0,1344.0,-384.0
4.07,15488.0,1280.0,-384.0
4.0725,15552.0,1216.0,-448.0
4.075,15616.0,1344.0,-384.0
4.0775,15552.0,1280.0,-448.0
4.08,15552.0,1344.0,-512.0
4.0825,15552.0,1344.0,-512.0
4.085,15552.0,1408.0,-576.0
4.0875,15616.0,1408.0,-512.0
4.09,15616.0,1408.0,-576.0
4.0925,15552.0,1472.0,-576.0
4.095,15552.0,1408.0,-512.0
4.0975,15552.0,1472.0,-576.0
4.1,15552.0,1472.0,-576.0
4.1025,15552.0,1472.0,-576.0
4.105,15552.0,1472.0,-640.0
4.1075,15552.0,1472.0,-576.0
4.11,15552.0,1472.0,-640.0
4.1125,15616.0,1472.0,-640.0
4.115,15552.0,1408.0,-640.0
4.1175,15552.0,1408.0,-576.0
4.12,15552.0,1408.0,-512.0
4.1225,15552.0,1408.0,-576.0
4.125,15616.0,1472.0,-640.0
4.1275,15552.0,1472.0,-576.0
4.13,15552.0,1472.0,-640.0
4.1325,15616.0,1472.0,-640.0
4.135,15616.0,1472.0,-640.0
4.1375,15552.0,1536.0,-640.0
4.14,15552.0,1472.0,-640.0
4.1425,15552.0,1472.0,-576.0
4.145,15616.0,1408.0,-640.0
4.1475,15552.0,1344.0,-640.0
4.15,15552.0,1280.0,-640.0
4.1525,15552.0,1280.0,-640.0
4.155,15616.0,1344.0,-704.0
4.1575,15488.0,1344.0,-704.0
4.16,15488.0,1344.0,-704.0
4.1625,15488.0,1344.0,-768.0
4.165,15488.0,1408.0,-704.0
4.1675,15488.0,1344.0,-704.0
4.17,15552.0,1344.0,-640.0
4.1725,15552.0,1344.0,-576.0
4.175,15552.0,1408.0,-640.0
4.1775,15552.0,1408.0,-640.0
4.18,15552.0,1408.0,-704.0
4.1825,15616.0,1408.0,-640.0
4.185,15616.0,1344.0,-640.0
4.1875,15552.0,1408.0,-640.0
4.19,15616.0,1472.0,-576.0
4.1925,15616.0,1408.0,-640.0
4.195,15552.0,1408.0,-704.0
4.1975,15552.0,1408.0,-704.0
4.2,15552.0,1408.0,-704.0
4.2025,15552.0,1344.0,-704.0
4.205,15552.0,1408.0,-704.0
4.2075,15488.0,1472.0,-768.0
4.21,15552.0,1408.0,-832.0
4.2125,15488.0,1344.0,-832.0
4.215,15552.0,1344.0,-704.0
4.2175,15552.0,1344.0,-704.0
4.22,15616.0,1408.0,-704.0
4.2225,15552.0,1344.0,-768.0
4.225,15552.0,1344.0,-832.0
4.2275,15552.0,1280.0,-768.0
4.23,15552.0,1344.0,-768.0
4.2325,15616.0,1408.0,-704.0
4.235,15680.0,1344.0,-768.0
4.2375,15616.0,1408.0,-704.0
4.24,15616.0,1408.0,-704.0
4.2425,15552.0,1408.0,-768.0
4.245,15552.0,1472.0,-704.0
4.2475,15552.0,1408.0,-704.0
4.25,15552.0,1472.0,-704.0
4.2525,15552.0,1408.0,-704.0
4.255,15552.0,1408.0,-768.0
4.2575,15616.0,1408.0,-768.0
4.26,15552.0,1344.0,-832.0
4.2625,15488.0,1408.0,-832.0
4.265,15424.0,1344.0,-832.0
4.2675,15424.0,1408.0,-832.0
4.27,15360.0,1408.0,-832.0
4.2725,15360.0,1408.0,-960.0
4.275,15360.0,1344.0,-960.0
4.2775,15360.0,1280.0,-960.0
4.28,15360.0,1216.0,-832.0
4.2825,15360.0,1152.0,-832.0
4.285,15360.0,1280.0,-768.0
4.2875,15424.0,1216.0,-768.0
4.29,15360.0,1280.0,-768.0
4.2925,15360.0,1408.0,-768.0
4.295,15424.0,1408.0,-704.0
4.2975,15424.0,1408.0,-768.0
4.3,15360.0,1408.0,-832.0
4.3025,15296.0,1344.0,-768.0
4.305,15360.0,1344.0,-768.0
4.3075,15296.0,1280.0,-832.0
4.31,15232.0,1280.0,-768.0
4.3125,15232.0,1280.0,-832.0
4.315,15296.0,1216.0,-896.0
4.3175,15296.0,1280.0,-896.0
4.32,15232.0,1280.0,-960.0
4.3225,15232.0,1280.0,-896.0
4.325,15232.0,1280.0,-832.0
4.3275,15296.0,1280.0,-960.0
4.33,15296.0,1216.0,-960.0
4.3325,15296.0,1152.0,-896.0
4.335,15232.0,1152.0,-832.0
4.3375,15232.0,1152.0,-832.0
4.34,15296.0,1152.0,-896.0
4.3425,15296.0,1280.0,-832.0
4.345,15360.0,1216.0,-832.0
4.3475,15360.0,1216.0,-704.0
4.35,15296.0,1216.0,-704.0
4.3525,15296.0,1280.0,-704.0
4.355,15360.0,1216.0,-704.0
4.3575,15360.0,1216.0,-704.0
4.36,15360.0,1216.0,-704.0
4.3625,15360.0,1216.0,-640.0
4.365,15360.0,1216.0,-768.0
4.3675,15360.0,1216.0,-768.0
4.37,15296.0,1152.0,-768.0
4.3725,15296.0,1216.0,-832.0
4.375,15360.0,1280.0,-960.0
4.3775,15360.0,1152.0,-960.0
4.38,15360.0,1152.0,-1024.0
4.3825,15360.0,1152.0,-960.0
4.385,15360.0,1088.0,-960.0
4.3875,15360.0,1088.0,-960.0
4.39,15360.0,1152.0,-832.0
4.3925,15360.0,1152.0,-832.0
4.395,15424.0,1216.0,-768.0
4.3975,15360.0,1216.0,-768.0
4.4,15424.0,1152.0,-704.0
4.4025,15488.0,1152.0,-768.0
4.405,15424.0,1152.0,-704.0
4.4075,15424.0,1152.0,-704.0
4.41,15424.0,1216.0,-704.0
4.4125,15424.0,1216.0,-704.0
4.415,15360.0,1152.0,-768.0
4.4175,15360.0,1152.0,-768.0
4.42,15424.0,1216.0,-768.0
4.4225,15360.0,1152.0,-832.0
4.425,15360.0,1216.0,-832.0
4.4275,15360.0,1088.0,-896.0
4.43,15424.0,1152.0,-896.0
4.4325,15360.0,1152.0,-832.0
4.435,15360.0,1088.0,-832.0
4.4375,15360.0,1088.0,-896.0
4.44,15296.0,1088.0,-896.0
4.4425,15296.0,1152.0,-896.0
4.445,15360.0,1152.0,-832.0
4.4475,15488.0,1152.0,-832.0
4.45,15424.0,1088.0,-832.0
4.4525,15424.0,1088.0,-832.0
4.455,15360.0,1088.0,-768.0
4.4575,15424.0,1088.0,-896.0
4.46,15424.0,1088.0,-832.0
4.4625,15424.0,1088.0,-768.0
4.465,15488.0,1088.0,-768.0
4.4675,15424.0,1088.0,-768.0
4.47,15424.0,1088.0,-768.0
4.4725,15360.0,1152.0,-704.0
4.475,15296.0,1152.0,-640.0
4.4775,15360.0,1088.0,-704.0
4.48,15360.0,1088.0,-768.0
4.4825,15360.0,1088.0,-768.0
4.485,15296.0,1088.0,-768.0
4.4875,15296.0,1088.0,-768.0
4.49,15296.0,1152.0,-832.0
4.4925,15296.0,1088.0,-832.0
4.495,15296.0,1088.0,-832.0
4.4975,15296.0,1088.0,-832.0
4.5,15296.0,1024.0,-896.0
4.5025,15296.0,1088.0,-896.0
4.505,15296.0,1088.0,-832.0
4.5075,15296.0,1024.0,-832.0
4.51,15296.0,1024.0,-704.0
4.5125,15360.0,1024.0,-768.0
4.515,15296.0,960.0,-832.0
4.5175,15296.0,1024.0,-768.0
4.52,15360.0,1024.0,-704.0
4.5225,15296.0,1088.0,-704.0
4.525,15296.0,1088.0,-704.0
4.5275,15296.0,1088.0,-704.0
4.53,15296.0,1088.0,-640.0
4.5325,15424.0,1088.0,-640.0
4.535,15296.0,1088.0,-704.0
4.5375,15296.0,1088.0,-704.0
4.54,15296.0,1088.0,-768.0
4.5425,15296.0,1088.0,-768.0
4.545,15232.0,1088.0,-768.0
4.5475,15232.0,1088.0,-832.0
4.55,15232.0,1088.0,-832.0
4.5525,15232.0,1088.0,-896.0
4.555,15232.0,1024.0,-896.0
4.5575,15232.0,1024.0,-896.0
4.56,15232.0,1024.0,-896.0
4.5625,15296.0,1024.0,-832.0
4.565,15296.0,1024.0,-832.0
4.5675,15232.0,1024.0,-704.0
4.57,15296.0,1088.0,-704.0
4.5725,15232.0,1088.0,-704.0
4.575,15232.0,1024.0,-768.0
4.5775,15296.0,1088.0,-768.0
4.58,15360.0,1088.0,-704.0
4.5825,15296.0,1088.0,-704.0
4.585,15232.0,1152.0,-640.0
4.5875,15232.0,1152.0,-640.0
4.59,15232.0,1152.0,-704.0
4.5925,15232.0,1152.0,-704.0
4.595,15232.0,1152.0,-704.0
4.5975,15296.0,1152.0,-640.0
4.6,15296.0,1280.0,-704.0
4.6025,15360.0,1216.0,-704.0
4.605,15296.0,1216.0,-640.0
4.6075,15232.0,1216.0,-640.0
4.61,15232.0,1216.0,-704.0
4.6125,15296.0,1216.0,-768.0
4.615,15232.0,1216.0,-768.0
4.6175,15296.0,1152.0,-832.0
4.62,15296.0,1216.0,-768.0
4.6225,15360.0,1216.0,-768.0
4.625,15296.0,1216.0,-832.0
4.6275,15296.0,1216.0,-768.0
4.63,15296.0,1152.0,-704.0
4.6325,15296.0,1152.0,-704.0
4.635,15296.0,1216.0,-704.0
4.6375,15360.0,1216.0,-640.0
4.64,15424.0,1152.0,-704.0
4.6425,15424.0,1152.0,-704.0
4.645,15360.0,1088.0,-704.0
4.6475,15424.0,1152.0,-704.0
4.65,15424.0,1152.0,-704.0
4.6525,15360.0,1152.0,-768.0
4.655,15360.0,1216.0,-768.0
4.6575,15424.0,1216.0,-832.0
4.66,15424.0,1216.0,-832.0
4.6625,15424.0,1216.0,-832.0
4.665,15488.0,1280.0,-832.0
4.6675,15424.0,1152.0,-832.0
4.67,15424.0,1152.0,-960.0
4.6725,15488.0,1152.0,-960.0
4.675,15488.0,1216.0,-896.0
4.6775,15488.0,1216.0,-832.0
4.68,15424.0,1216.0,-832.0
4.6825,15424.0,1280.0,-768.0
4.685,15488.0,1216.0,-832.0
4.6875,15488.0,1216.0,-832.0
4.69,15424.0,1216.0,-768.0
4.6925,15424.0,1280.0,-768.0
4.695,15488.0,1280.0,-768.0
4.6975,15488.0,1280.0,-768.0
4.7,15488.0,1280.0,-768.0
4.7025,15424.0,1280.0,-832.0
4.705,15424.0,1280.0,-832.0
4.7075,15424.0,1280.0,-832.0
4.71,15424.0,1344.0,-832.0
4.7125,15424.0,1280.0,-896.0
4.715,15360.0,1280.0,-896.0
4.7175,15360.0,1280.0,-896.0
4.72,15360.0,1344.0,-832.0
4.7225,15360.0,1280.0,-832.0
4.725,15296.0,1280.0,-896.0
4.7275,15296.0,1280.0,-896.0
4.73,15360.0,1280.0,-832.0
4.7325,15296.0,1280.0,-832.0
4.735,15296.0,1280.0,-768.0
4.7375,15296.0,1280.0,-768.0
4.74,15296.0,1216.0,-832.0
4.7425,15296.0,1280.0,-704.0
4.745,15232.0,1344.0,-768.0
4.7475,15232.0,1344.0,-768.0
4.75,15360.0,1280.0,-832.0
4.7525,15296.0,1344.0,-768.0
4.755,15296.0,1344.0,-768.0
4.7575,15360.0,1344.0,-768.0
4.76,15296.0,1344.0,-768.0
4.7625,15296.0,1280.0,-832.0
4.765,15232.0,1344.0,-768.0
4.7675,15296.0,1344.0,-832.0
4.77,15296.0,1280.0,-896.0
4.7725,15296.0,1280.0,-960.0
4.775,15296.0,1344.0,-1024.0
4.7775,15296.0,1216.0,-960.0
4.78,15360.0,1216.0,-960.0
4.7825,15360.0,1280.0,-960.0
4.785,15360.0,1344.0,-960.0
4.7875,15360.0,1344.0,-896.0
4.79,15360.0,1280.0,-896.0
4.7925,15424.0,1216.0,-832.0
4.795,15360.0,1280.0,-832.0
4.7975,15424.0,1280.0,-896.0
4.8,15424.0,1280.0,-768.0
4.8025,15360.0,1344.0,-768.0
4.805,15360.0,1344.0,-832.0
4.8075,15296.0,1344.0,-704.0
4.81,15360.0,1344.0,-640.0
4.8125,15360.0,1344.0,-704.0
4.815,15488.0,1344.0,-768.0
4.8175,15488.0,1344.0,-768.0
4.82,15424.0,1344.0,-768.0
4.8225,15424.0,1344.0,-768.0
4.825,15424.0,1472.0,-832.0
4.8275,15488.0,1408.0,-832.0
4.83,15424.0,1408.0,-768.0
4.8325,15488.0,1344.0,-832.0
4.835,15488.0,1408.0,-896.0
4.8375,15488.0,1344.0,-896.0
4.84,15488.0,1408.0,-896.0
4.8425,15424.0,1408.0,-960.0
4.845,15424.0,1408.0,-960.0
4.8475,15424.0,1344.0,-960.0
4.85,15424.0,1344.0,-896.0
4.8525,15488.0,1344.0,-832.0
4.855,15424.0,1408.0,-768.0
4.8575,15424.0,1408.0,-768.0
4.86,15488.0,1472.0,-704.0
4.8625,15552.0,1408.0,-704.0
4.865,15488.0,1408.0,-704.0
4.8675,15488.0,1472.0,-768.0
4.87,15552.0,1472.0,-768.0
4.8725,15488.0,1472.0,-832.0
4.875,15424.0,1408.0,-832.0
4.8775,15488.0,1408.0,-896.0
4.88,15488.0,1472.0,-896.0
4.8825,15424.0,1472.0,-896.0
4.885,15424.0,1472.0,-960.0
4.8875,15424.0,1408.0,-1024.0
4.89,15424.0,1344.0,-960.0
4.8925,15424.0,1344.0,-960.0
4.895,15488.0,1344.0,-896.0
4.8975,15488.0,1344.0,-896.0
4.9,15424.0,1408.0,-832.0
4.9025,15424.0,1344.0,-768.0
4.905,15360.0,1344.0,-832.0
4.9075,15424.0,1408.0,-832.0
4.91,15488.0,1408.0,-768.0
4.9125,15424.0,1408.0,-704.0
4.915,15424.0,1472.0,-704.0
4.9175,15488.0,1408.0,-704.0
4.92,15488.0,1536.0,-704.0
4.9225,15424.0,1472.0,-704.0
4.925,15424.0,1536.0,-704.0
4.9275,15424.0,1600.0,-704.0
4.93,15360.0,1536.0,-832.0
4.9325,15424.0,1472.0,-896.0
4.935,15424.0,1536.0,-896.0
4.9375,15360.0,1536.0,-896.0
4.94,15360.0,1472.0,-960.0
4.9425,15296.0,1472.0,-960.0
4.945,15296.0,1472.0,-960.0
4.9475,15360.0,1536.0,-896.0
4.95,15424.0,1472.0,-896.0
4.9525,15360.0,1472.0,-832.0
4.955,15360.0,1408.0,-704.0
4.9575,15360.0,1472.0,-768.0
4.96,15424.0,1472.0,-832.0
4.9625,15424.0,1472.0,-704.0
4.965,15424.0,1536.0,-704.0
4.9675,15424.0,1536.0,-704.0
4.97,15424.0,1536.0,-704.0
4.9725,15488.0,1536.0,-768.0
4.975,15424.0,1536.0,-768.0
4.9775,15424.0,1536.0,-768.0
4.98,15488.0,1536.0,-768.0
4.9825,15488.0,1600.0,-768.0
4.985,15488.0,1536.0,-768.0
4.9875,15552.0,1536.0,-768.0
4.99,15552.0,1536.0,-832.0
4.9925,15616.0,1536.0,-768.0
4.995,15552.0,1536.0,-768.0
4.9975,15552.0,1536.0,-832.0
5.0,15552.0,1536.0,-768.0
5.0025,15552.0,1536.0,-832.0
5.005,15552.0,1600.0,-896.0
5.0075,15552.0,1600.0,-832.0
5.01,15616.0,1600.0,-832.0
5.0125,15552.0,1664.0,-832.0
5.015,15552.0,1600.0,-832.0
5.0175,15552.0,1536.0,-832.0
5.02,15552.0,1472.0,-832.0
5.0225,15552.0,1472.0,-768.0
5.025,15552.0,1536.0,-704.0
5.0275,15552.0,1472.0,-640.0
5.03,15552.0,1536.0,-704.0
5.0325,15552.0,1536.0,-704.0
5.035,15552.0,1536.0,-640.0
5.0375,15616.0,1472.0,-704.0
5.04,15616.0,1536.0,-832.0
5.0425,15552.0,1536.0,-768.0
5.045,15552.0,1536.0,-832.0
5.0475,15552.0,1536.0,-832.0
5.05,15552.0,1472.0,-832.0
5.0525,15616.0,1472.0,-832.0
5.055,15552.0,1408.0,-768.0
5.0575,15552.0,1472.0,-768.0
5.06,15552.0,1472.0,-704.0
5.0625,15488.0,1536.0,-768.0
5.065,15552.0,1472.0,-704.0
5.0675,15488.0,1472.0,-768.0
5.07,15488.0,1472.0,-832.0
5.0725,15488.0,1472.0,-832.0
5.075,15488.0,1472.0,-768.0
5.0775,15552.0,1472.0,-768.0
5.08,15552.0,1472.0,-704.0
5.0825,15616.0,1472.0,-768.0
5.085,15552.0,1472.0,-704.0
5.0875,15552.0,1536.0,-768.0
5.09,15488.0,1408.0,-768.0
5.0925,15488.0,1472.0,-704.0
5.095,15552.0,1472.0,-768.0
5.0975,15552.0,1472.0,-704.0
5.1,15488.0,1408.0,-704.0
5.1025,15488.0,1408.0,-704.0
5.105,15488.0,1408.0,-704.0
5.1075,15424.0,1408.0,-832.0
5.11,15360.0,1408.0,-832.0
5.1125,15424.0,1408.0,-768.0
5.115,15424.0,1344.0,-704.0
5.1175,15296.0,1408.0,-768.0
5.12,15360.0,1408.0,-832.0
5.1225,15360.0,1344.0,-832.0
5.125,15424.0,1280.0,-704.0
5.1275,15424.0,1280.0,-704.0
5.13,15360.0,1344.0,-768.0
5.1325,15360.0,1344.0,-704.0
5.135,15360.0,1344.0,-640.0
5.1375,15360.0,1344.0,-640.0
5.14,15424.0,1408.0,-640.0
5.1425,15424.0,1408.0,-576.0
5.145,15360.0,1344.0,-576.0
5.1475,15424.0,1344.0,-576.0
5.15,15424.0,1344.0,-576.0
5.1525,15360.0,1280.0,-640.0
5.155,15424.0,1280.0,-704.0
5.1575,15360.0,1280.0,-704.0
5.16,15424.0,1344.0,-704.0
5.1625,15424.0,1216.0,-704.0
5.165,15424.0,1280.0,-704.0
5.1675,15424.0,1280.0,-768.0
5.17,15424.0,1280.0,-768.0
5.1725,15296.0,1344.0,-576.0
5.175,15360.0,1280.0,-640.0
5.1775,15360.0,1344.0,-704.0
5.18,15488.0,1280.0,-704.0
5.1825,15488.0,1344.0,-704.0
5.185,15424.0,1280.0,-704.0
5.1875,15488.0,1344.0,-704.0
5.19,15424.0,1280.0,-704.0
5.1925,15488.0,1280.0,-704.0
5.195,15424.0,1344.0,-704.0
5.1975,15360.0,1344.0,-768.0
5.2,15488.0,1344.0,-768.0
5.2025,15488.0,1344.0,-704.0
5.205,15424.0,1344.0,-704.0
5.2075,15424.0,1408.0,-704.0
5.21,15488.0,1344.0,-704.0
5.2125,15488.0,1344.0,-704.0
5.215,15488.0,1280.0,-768.0
5.2175,15488.0,1280.0,-704.0
5.22,15488.0,1280.0,-768.0
5.2225,15424.0,1344.0,-768.0
5.225,15488.0,1280.0,-768.0
5.2275,15424.0,1216.0,-768.0
5.23,15360.0,1216.0,-768.0
5.2325,15360.0,1216.0,-768.0
5.235,15360.0,1216.0,-768.0
5.2375,15424.0,1280.0,-704.0
5.24,15424.0,1280.0,-640.0
5.2425,15488.0,1216.0,-640.0
5.245,15488.0,1280.0,-640.0
5.2475,15552.0,1280.0,-640.0
5.25,15616.0,1280.0,-640.0
5.2525,15552.0,1280.0,-704.0
5.255,15616.0,1344.0,-704.0
5.2575,15552.0,1280.0,-704.0
5.26,15488.0,1216.0,-704.0
5.2625,15488.0,1280.0,-704.0
5.265,15488.0,1280.0,-704.0
5.2675,15424.0,1216.0,-768.0
5.27,15424.0,1216.0,-768.0
5.2725,15424.0,1216.0,-768.0
5.275,15424.0,1216.0,-704.0
5.2775,15488.0,1216.0,-704.0
5.28,15488.0,1152.0,-704.0
5.2825,15424.0,1152.0,-640.0
5.285,15424.0,1216.0,-576.0
5.2875,15488.0,1280.0,-576.0
5.29,15552.0,1280.0,-448.0
5.2925,15552.0,1408.0,-384.0
5.295,15616.0,1344.0,-320.0
5.2975,15680.0,1344.0,-320.0
5.3,15680.0,1408.0,-192.0
5.3025,15744.0,1472.0,-128.0
5.305,15808.0,1536.0,-128.0
5.3075,15808.0,1600.0,-192.0
5.31,15872.0,1536.0,0.0
5.3125,15872.0,1472.0,0.0
5.315,15872.0,1472.0,128.0
5.3175,15872.0,1536.0,192.0
5.32,15872.0,1664.0,128.0
5.3225,15808.0,1664.0,64.0
5.325,15744.0,1728.0,0.0
5.3275,15680.0,1728.0,-64.0
5.33,15616.0,1664.0,-256.0
5.3325,15488.0,1664.0,-320.0
5.335,15360.0,1664.0,-320.0
5.3375,15424.0,1664.0,-448.0
5.34,15232.0,1728.0,-384.0
5.3425,15168.0,1728.0,-384.0
5.345,15232.0,1792.0,-320.0
5.3475,15296.0,1856.0,-320.0
5.35,15296.0,1856.0,-256.0
5.3525,15296.0,1856.0,-192.0
5.355,15296.0,1792.0,-128.0
5.3575,15296.0,1792.0,-128.0
5.36,15296.0,1728.0,-64.0
5.3625,15296.0,1728.0,-192.0
5.365,15232.0,1600.0,-256.0
5.3675,15232.0,1536.0,-192.0
5.37,15168.0,1408.0,-192.0
5.3725,15168.0,1280.0,-192.0
5.375,15104.0,1216.0,-256.0
5.3775,15104.0,1216.0,-256.0
5.38,15104.0,1024.0,-320.0
5.3825,15104.0,1024.0,-384.0
5.385,15040.0,832.0,-448.0
5.3875,15040.0,832.0,-512.0
5.39,15040.0,896.0,-576.0
5.3925,14976.0,896.0,-640.0
5.395,14976.0,832.0,-704.0
5.3975,14976.0,768.0,-768.0
5.4,14912.0,768.0,-896.0
5.4025,14912.0,768.0,-832.0
5.405,14848.0,640.0,-896.0
5.4075,14912.0,576.0,-896.0
5.41,14912.0,512.0,-1024.0
5.4125,14848.0,512.0,-1088.0
5.415,14848.0,576.0,-1088.0
5.4175,14848.0,512.0,-1152.0
5.42,14912.0,576.0,-1152.0
5.4225,14976.0,640.0,-1216.0
5.425,14976.0,640.0,-1216.0
5.4275,14912.0,704.0,-1216.0
5.43,14976.0,704.0,-1216.0
5.4325,14976.0,640.0,-1280.0
5.435,14976.0,704.0,-1280.0
5.4375,14976.0,704.0,-1216.0
5.44,15040.0,704.0,-1280.0
5.4425,15040.0,768.0,-1216.0
5.445,15104.0,768.0,-1216.0
5.4475,15168.0,768.0,-1216.0
5.45,15168.0,832.0,-1152.0
5.4525,15232.0,832.0,-1088.0
5.455,15296.0,832.0,-960.0
5.4575,15296.0,832.0,-960.0
5.46,15296.0,896.0,-832.0
5.4625,15424.0,896.0,-832.0
5.465,15424.0,960.0,-832.0
5.4675,15424.0,1024.0,-832.0
5.47,15424.0,1024.0,-832.0
5.4725,15424.0,1024.0,-832.0
5.475,15424.0,1088.0,-896.0
5.4775,15424.0,1024.0,-896.0
5.48,15424.0,1024.0,-1024.0
5.4825,15360.0,1088.0,-1024.0
5.485,15296.0,1088.0,-1088.0
5.4875,15360.0,1088.0,-1024.0
5.49,15360.0,1152.0,-1088.0
5.4925,15360.0,1088.0,-1088.0
5.495,15360.0,1152.0,-1024.0
5.4975,15360.0,1216.0,-960.0
5.5,15360.0,1216.0,-896.0
5.5025,15360.0,1280.0,-896.0
5.505,15360.0,1280.0,-896.0
5.5075,15488.0,1216.0,-896.0
5.51,15424.0,1216.0,-896.0
5.5125,15488.0,1152.0,-896.0
5.515,15488.0,1152.0,-960.0
5.5175,15424.0,1152.0,-960.0
5.52,15424.0,1152.0,-960.0
5.5225,15360.0,1152.0,-1088.0
5.525,15296.0,1088.0,-1088.0
5.5275,15296.0,1088.0,-1152.0
5.53,15296.0,1024.0,-1152.0
5.5325,15296.0,1024.0,-1216.0
5.535,15296.0,1088.0,-1152.0
5.5375,15232.0,1024.0,-1152.0
5.54,15296.0,1088.0,-1152.0
5.5425,15296.0,1088.0,-1152.0
5.545,15296.0,1088.0,-1152.0
5.5475,15296.0,1152.0,-1152.0
5.55,15360.0,1088.0,-1152.0
5.5525,15424.0,1088.0,-1152.0
5.555,15296.0,1088.0,-1152.0
5.5575,15296.0,1152.0,-1216.0
5.56,15232.0,1088.0,-1152.0
5.5625,15232.0,1152.0,-1216.0
5.565,15232.0,1088.0,-1152.0
5.5675,15232.0,1152.0,-1280.0
5.57,15232.0,1152.0,-1152.0
5.5725,15296.0,1152.0,-1088.0
5.575,15296.0,1088.0,-1088.0
5.5775,15360.0,1216.0,-1088.0
5.58,15424.0,1216.0,-1024.0
5.5825,15424.0,1280.0,-1024.0
5.585,15424.0,1344.0,-960.0
5.5875,15424.0,1344.0,-960.0
5.59,15424.0,1344.0,-1024.0
5.5925,15424.0,1344.0,-1024.0
5.595,15424.0,1344.0,-1024.0
5.5975,15360.0,1408.0,-1024.0
5.6,15360.0,1408.0,-1024.0
5.6025,15360.0,1408.0,-1088.0
5.605,15424.0,1408.0,-1088.0
5.6075,15424.0,1472.0,-1088.0
5.61,15424.0,1472.0,-1088.0
5.6125,15424.0,1536.0,-1088.0
5.615,15360.0,1472.0,-1152.0
5.6175,15360.0,1472.0,-1152.0
5.62,15360.0,1472.0,-1088.0
5.6225,15360.0,1472.0,-1088.0
5.625,15424.0,1536.0,-1088.0
5.6275,15360.0,1472.0,-1024.0
5.63,15360.0,1472.0,-1024.0
5.6325,15360.0,1536.0,-960.0
5.635,15488.0,1536.0,-960.0
5.6375,15424.0,1536.0,-896.0
5.64,15488.0,1600.0,-960.0
5.6425,15360.0,1536.0,-960.0
5.645,15360.0,1536.0,-960.0
5.6475,15424.0,1600.0,-1024.0
5.65,15424.0,1472.0,-1152.0
5.6525,15360.0,1472.0,-1152.0
5.655,15360.0,1472.0,-1152.0
5.6575,15360.0,1472.0,-1152.0
5.66,15296.0,1472.0,-1216.0
5.6625,15360.0,1472.0,-1152.0
5.665,15360.0,1472.0,-1088.0
5.6675,15424.0,1472.0,-1088.0
5.67,15360.0,1600.0,-1088.0
5.6725,15360.0,1600.0,-960.0
5.675,15360.0,1600.0,-1024.0
5.6775,15424.0,1600.0,-1024.0
5.68,15424.0,1536.0,-960.0
5.6825,15424.0,1536.0,-960.0
5.685,15424.0,1536.0,-960.0
5.6875,15360.0,1536.0,-960.0
5.69,15424.0,1600.0,-896.0
5.6925,15424.0,1664.0,-896.0
5.695,15360.0,1664.0,-896.0
5.6975,15360.0,1664.0,-896.0
5.7,15424.0,1792.0,-896.0
5.7025,15424.0,1728.0,-832.0
5.705,15424.0,1792.0,-704.0
5.7075,15488.0,1856.0,-768.0
5.71,15552.0,1856.0,-768.0
5.7125,15488.0,1856.0,-832.0
5.715,15488.0,1728.0,-768.0
5.7175,15488.0,1728.0,-768.0
5.72,15488.0,1664.0,-832.0
5.7225,15488.0,1664.0,-960.0
5.725,15424.0,1728.0,-1024.0
5.7275,15360.0,1664.0,-1024.0
5.73,15360.0,1664.0,-1088.0
5.7325,15360.0,1664.0,-1152.0
5.735,15296.0,1664.0,-1152.0
5.7375,15296.0,1600.0,-1088.0
5.74,15296.0,1664.0,-1024.0
5.7425,15296.0,1664.0,-1024.0
5.745,15296.0,1664.0,-960.0
5.7475,15360.0,1664.0,-896.0
5.75,15360.0,1600.0,-896.0
5.7525,15360.0,1536.0,-1024.0
5.755,15424.0,1536.0,-960.0
5.7575,15360.0,1536.0,-1024.0
5.76,15360.0,1472.0,-1088.0
5.7625,15360.0,1344.0,-1088.0
5.765,15360.0,1344.0,-1152.0
5.7675,15232.0,1344.0,-1152.0
5.77,15232.0,1216.0,-1216.0
5.7725,15296.0,1280.0,-1216.0
5.775,15296.0,1280.0,-1344.0
5.7775,15232.0,1216.0,-1344.0
5.78,15232.0,1280.0,-1344.0
5.7825,15232.0,1280.0,-1344.0
5.785,15232.0,1344.0,-1280.0
5.7875,15232.0,1408.0,-1344.0
5.79,15232.0,1408.0,-1216.0
5.7925,15360.0,1408.0,-1216.0
5.795,15360.0,1408.0,-1216.0
5.7975,15424.0,1408.0,-1152.0
5.8,15360.0,1408.0,-1088.0
5.8025,15360.0,1344.0,-1088.0
5.805,15296.0,1344.0,-1152.0
5.8075,15296.0,1344.0,-1216.0
5.81,15232.0,1344.0,-1216.0
5.8125,15296.0,1344.0,-1280.0
5.815,15232.0,1472.0,-1344.0
5.8175,15232.0,1408.0,-1408.0
5.82,15168.0,1472.0,-1472.0
5.8225,15232.0,1408.0,-1408.0
5.825,15296.0,1472.0,-1472.0
5.8275,15296.0,1472.0,-1536.0
5.83,15296.0,1408.0,-1536.0
5.8325,15360.0,1344.0,-1472.0
5.835,15296.0,1344.0,-1472.0
5.8375,15232.0,1344.0,-1472.0
5.84,15232.0,1344.0,-1408.0
5.8425,15296.0,1344.0,-1472.0
5.845,15296.0,1344.0,-1472.0
5.8475,15296.0,1280.0,-1472.0
5.85,15296.0,1280.0,-1472.0
5.8525,15296.0,1280.0,-1408.0
5.855,15360.0,1280.0,-1408.0
5.8575,15360.0,1280.0,-1344.0
5.86,15360.0,1344.0,-1280.0
5.8625,15360.0,1408.0,-1216.0
5.865,15424.0,1408.0,-1344.0
5.8675,15424.0,1408.0,-1280.0
5.87,15488.0,1344.0,-1280.0
5.8725,15488.0,1408.0,-1280.0
5.875,15488.0,1472.0,-1344.0
5.8775,15424.0,1408.0,-1344.0
5.88,15424.0,1408.0,-1344.0
5.8825,15360.0,1408.0,-1408.0
5.885,15296.0,1408.0,-1472.0
5.8875,15296.0,1408.0,-1536.0
5.89,15296.0,1344.0,-1600.0
5.8925,15232.0,1344.0,-1536.0
5.895,15296.0,1408.0,-1472.0
5.8975,15296.0,1408.0,-1472.0
5.9,15360.0,1472.0,-1408.0
5.9025,15424.0,1472.0,-1216.0
5.905,15488.0,1536.0,-1088.0
5.9075,15488.0,1600.0,-1024.0
5.91,15552.0,1600.0,-1088.0
5.9125,15616.0,1600.0,-1088.0
5.915,15616.0,1664.0,-1088.0
5.9175,15680.0,1600.0,-1088.0
5.92,15616.0,1664.0,-1152.0
5.9225,15616.0,1600.0,-1088.0
5.925,15616.0,1664.0,-1088.0
5.9275,15552.0,1664.0,-1152.0
5.93,15552.0,1664.0,-1152.0
5.9325,15488.0,1664.0,-1152.0
5.935,15424.0,1664.0,-1152.0
5.9375,15488.0,1664.0,-1216.0
5.94,15488.0,1664.0,-1088.0
5.9425,15488.0,1664.0,-1152.0
5.945,15552.0,1664.0,-1152.0
5.9475,15488.0,1728.0,-1088.0
5.95,15488.0,1664.0,-1152.0
5.9525,15488.0,1600.0,-1088.0
5.955,15424.0,1600.0,-1152.0
5.9575,15360.0,1536.0,-1152.0
5.96,15424.0,1472.0,-1088.0
5.9625,15424.0,1408.0,-1088.0
5.965,15360.0,1408.0,-1088.0
5.9675,15360.0,1472.0,-1024.0
5.97,15360.0,1472.0,-1152.0
5.9725,15424.0,1408.0,-1152.0
5.975,15424.0,1408.0,-1216.0
5.9775,15424.0,1408.0,-1152.0
5.98,15424.0,1408.0,-1216.0
5.9825,15424.0,1408.0,-1280.0
5.985,15360.0,1344.0,-1280.0
5.9875,15296.0,1280.0,-1280.0
5.99,15296.0,1216.0,-1408.0
5.9925,15296.0,1216.0,-1408.0
5.995,15296.0,1152.0,-1472.0
5.9975,15360.0,1152.0,-1472.0
6.0,15360.0,1216.0,-1472.0
6.0025,15424.0,1216.0,-1344.0
6.005,15360.0,1280.0,-1280.0
6.0075,15360.0,1344.0,-1280.0
6.01,15424.0,1408.0,-1216.0
6.0125,15424.0,1344.0,-1152.0
6.015,15488.0,1344.0,-1152.0
6.0175,15488.0,1344.0,-1024.0
6.02,15552.0,1344.0,-1088.0
6.0225,15488.0,1280.0,-1152.0
6.025,15552.0,1344.0,-1216.0
6.0275,15488.0,1280.0,-1216.0
6.03,15424.0,1344.0,-1216.0
6.0325,15488.0,1408.0,-1280.0
6.035,15424.0,1344.0,-1344.0
6.0375,15360.0,1280.0,-1408.0
6.04,15296.0,1280.0,-1344.0
6.0425,15296.0,1408.0,-1344.0
6.045,15360.0,1408.0,-1280.0
6.0475,15360.0,1408.0,-1280.0
6.05,15360.0,1344.0,-1216.0
6.0525,15360.0,1344.0,-1280.0
6.055,15424.0,1408.0,-1280.0
6.0575,15360.0,1344.0,-1344.0
6.06,15360.0,1280.0,-1280.0
6.0625,15360.0,1344.0,-1280.0
6.065,15296.0,1344.0,-1344.0
6.0675,15360.0,1280.0,-1408.0
6.07,15360.0,1280.0,-1280.0
6.0725,15296.0,1216.0,-1344.0
6.075,15296.0,1216.0,-1344.0
6.0775,15360.0,1280.0,-1216.0
6.08,15360.0,1280.0,-1088.0
6.0825,15360.0,1280.0,-1152.0
6.085,15424.0,1280.0,-1088.0
6.0875,15424.0,1216.0,-1216.0
6.09,15424.0,1216.0,-1152.0
6.0925,15360.0,1280.0,-1088.0
6.095,15296.0,1280.0,-1152.0
6.0975,15296.0,1280.0,-1216.0
6.1,15360.0,1280.0,-1344.0
6.1025,15296.0,1280.0,-1408.0
6.105,15296.0,1280.0,-1344.0
6.1075,15296.0,1280.0,-1408.0
6.11,15168.0,1280.0,-1472.0
6.1125,15232.0,1280.0,-1408.0
6.115,15168.0,1280.0,-1344.0
6.1175,15232.0,1280.0,-1344.0
6.12,15232.0,1280.0,-1280.0
6.1225,15296.0,1344.0,-1216.0
6.125,15232.0,1344.0,-1152.0
6.1275,15296.0,1344.0,-1088.0
6.13,15360.0,1408.0,-960.0
6.1325,15360.0,1408.0,-832.0
6.135,15424.0,1344.0,-960.0
6.1375,15424.0,1344.0,-960.0
6.14,15424.0,1344.0,-1088.0
6.1425,15424.0,1344.0,-1152.0
6.145,15296.0,1344.0,-1216.0
6.1475,15296.0,1344.0,-1216.0
6.15,15232.0,1344.0,-1280.0
6.1525,15232.0,1280.0,-1344.0
6.155,15232.0,1216.0,-1408.0
6.1575,15232.0,1152.0,-1408.0
6.16,15232.0,1280.0,-1408.0
6.1625,15232.0,1280.0,-1408.0
6.165,15296.0,1280.0,-1408.0
6.1675,15232.0,1344.0,-1344.0
6.17,15296.0,1280.0,-1280.0
6.1725,15296.0,1280.0,-1152.0
6.175,15360.0,1280.0,-1152.0
6.1775,15424.0,1280.0,-1088.0
6.18,15424.0,1280.0,-1216.0
6.1825,15424.0,1280.0,-1216.0
6.185,15424.0,1280.0,-1280.0
6.1875,15360.0,1280.0,-1344.0
6.19,15296.0,1280.0,-1280.0
6.1925,15296.0,1280.0,-1280.0
6.195,15360.0,1216.0,-1280.0
6.1975,15296.0,1152.0,-1344.0
6.2,15296.0,1216.0,-1472.0
6.2025,15296.0,1152.0,-1472.0
6.205,15296.0,1216.0,-1472.0
6.2075,15232.0,1216.0,-1536.0
6.21,15296.0,1216.0,-1536.0
6.2125,15296.0,1216.0,-1600.0
6.215,15296.0,1152.0,-1664.0
6.2175,15232.0,1088.0,-1664.0
6.22,15296.0,1024.0,-1728.0
6.2225,15232.0,1024.0,-1728.0
6.225,15296.0,1024.0,-1728.0
6.2275,15296.0,1024.0,-1664.0
6.23,15296.0,1088.0,-1536.0
6.2325,15360.0,1088.0,-1536.0
6.235,15424.0,1216.0,-1472.0
6.2375,15552.0,1216.0,-1408.0
6.24,15488.0,1280.0,-1344.0
6.2425,15616.0,1216.0,-1280.0
6.245,15488.0,1280.0,-1344.0
6.2475,15488.0,1280.0,-1408.0
6.25,15552.0,1280.0,-1408.0
6.2525,15552.0,1280.0,-1408.0
6.255,15488.0,1216.0,-1536.0
6.2575,15424.0,1280.0,-1472.0
6.26,15424.0,1280.0,-1536.0
6.2625,15360.0,1280.0,-1600.0
6.265,15360.0,1216.0,-1600.0
6.2675,15360.0,1216.0,-1536.0
6.27,15360.0,1216.0,-1472.0
6.2725,15360.0,1344.0,-1408.0
6.275,15424.0,1344.0,-1344.0
6.2775,15424.0,1408.0,-1280.0
6.28,15424.0,1536.0,-1152.0
6.2825,15424.0,1472.0,-1152.0
6.285,15488.0,1536.0,-1152.0
6.2875,15552.0,1536.0,-1152.0
6.29,15552.0,1536.0,-1152.0
6.2925,15488.0,1472.0,-1088.0
6.295,15488.0,1536.0,-1024.0
6.2975,15424.0,1536.0,-1088.0
6.3,15424.0,1472.0,-1152.0
6.3025,15424.0,1408.0,-1216.0
6.305,15360.0,1408.0,-1216.0
6.3075,15296.0,1408.0,-1280.0
6.31,15360.0,1408.0,-1216.0
6.3125,15360.0,1344.0,-1280.0
6.315,15360.0,1280.0,-1280.0
6.3175,15232.0,1280.0,-1280.0
6.32,15232.0,1280.0,-1344.0
6.3225,15296.0,1280.0,-1280.0
6.325,15232.0,1280.0,-1344.0
6.3275,15296.0,1280.0,-1472.0
6.33,15296.0,1280.0,-1344.0
6.3325,15232.0,1216.0,-1344.0
6.335,15232.0,1216.0,-1344.0
6.3375,15232.0,1152.0,-1472.0
6.34,15232.0,1088.0,-1472.0
6.3425,15168.0,1088.0,-1408.0
6.345,15168.0,1152.0,-1408.0
6.3475,15168.0,1152.0,-1280.0
6.35,15232.0,1152.0,-1344.0
6.3525,15232.0,1152.0,-1280.0
6.355,15296.0,1152.0,-1216.0
6.3575,15296.0,1216.0,-1280.0
6.36,15360.0,1152.0,-1280.0
6.3625,15360.0,1152.0,-1408.0
6.365,15296.0,1152.0,-1408.0
6.3675,15296.0,1152.0,-1472.0
6.37,15168.0,1152.0,-1408.0
6.3725,15232.0,1152.0,-1408.0
6.375,15232.0,1152.0,-1344.0
6.3775,15296.0,1216.0,-1344.0
6.38,15232.0,1280.0,-1280.0
6.3825,15296.0,1280.0,-1280.0
6.385,15360.0,1280.0,-1280.0
6.3875,15296.0,1280.0,-1280.0
6.39,15232.0,1280.0,-1280.0
6.3925,15296.0,1344.0,-1280.0
6.395,15360.0,1344.0,-1216.0
6.3975,15360.0,1344.0,-1216.0
6.4,15296.0,1344.0,-1152.0
6.4025,15296.0,1344.0,-1152.0
6.405,15296.0,1344.0,-1088.0
6.4075,15296.0,1344.0,-1024.0
6.41,15360.0,1344.0,-960.0
6.4125,15424.0,1408.0,-1024.0
6.415,15424.0,1408.0,-1024.0
6.4175,15424.0,1408.0,-960.0
6.42,15488.0,1408.0,-960.0
6.4225,15552.0,1344.0,-1024.0
6.425,15552.0,1344.0,-1088.0
6.4275,15488.0,1280.0,-1152.0
6.43,15488.0,1280.0,-1216.0
6.4325,15424.0,1280.0,-1216.0
6.435,15424.0,1280.0,-1344.0
6.4375,15360.0,1280.0,-1344.0
6.44,15424.0,1216.0,-1344.0
6.4425,15424.0,1216.0,-1216.0
6.445,15360.0,1216.0,-1280.0
6.4475,15360.0,1152.0,-1280.0
6.45,15488.0,1152.0,-1216.0
6.4525,15424.0,1152.0,-1216.0
6.455,15424.0,1216.0,-1152.0
6.4575,15488.0,1152.0,-1152.0
6.46,15488.0,1088.0,-1088.0
6.4625,15488.0,1152.0,-1024.0
6.465,15488.0,1216.0,-1152.0
6.4675,15488.0,1216.0,-1088.0
6.47,15488.0,1152.0,-1088.0
6.4725,15488.0,1216.0,-1152.0
6.475,15488.0,1152.0,-1152.0
6.4775,15552.0,1088.0,-1152.0
6.48,15488.0,1088.0,-1280.0
6.4825,15488.0,1088.0,-1216.0
6.485,15424.0,1088.0,-1280.0
6.4875,15488.0,1088.0,-1216.0
6.49,15488.0,1088.0,-1152.0
6.4925,15552.0,1152.0,-1152.0
6.495,15552.0,1152.0,-1088.0
6.4975,15552.0,1152.0,-1024.0
6.5,15616.0,1216.0,-1024.0
6.5025,15552.0,1280.0,-1024.0
6.505,15552.0,1280.0,-1024.0
6.5075,15552.0,1280.0,-1024.0
6.51,15552.0,1344.0,-1024.0
6.5125,15552.0,1280.0,-1088.0
6.515,15552.0,1280.0,-1024.0
6.5175,15552.0,1344.0,-960.0
6.52,15552.0,1344.0,-1024.0
6.5225,15488.0,1408.0,-1024.0
6.525,15488.0,1408.0,-960.0
6.5275,15552.0,1472.0,-960.0
6.53,15488.0,1472.0,-960.0
6.5325,15488.0,1472.0,-896.0
6.535,15552.0,1472.0,-960.0
6.5375,15488.0,1472.0,-960.0
6.54,15488.0,1472.0,-1024.0
6.5425,15424.0,1472.0,-960.0
6.545,15424.0,1408.0,-960.0
6.5475,15424.0,1472.0,-1024.0
6.55,15424.0,1472.0,-1088.0
6.5525,15360.0,1472.0,-1152.0
6.555,15360.0,1472.0,-1088.0
6.5575,15360.0,1472.0,-1152.0
6.56,15360.0,1408.0,-1088.0
6.5625,15424.0,1408.0,-1152.0
6.565,15424.0,1344.0,-1088.0
6.5675,15360.0,1408.0,-1152.0
6.57,15424.0,1472.0,-1088.0
6.5725,15360.0,1472.0,-1024.0
6.575,15360.0,1408.0,-1088.0
6.5775,15424.0,1472.0,-1024.0
6.58,15488.0,1344.0,-960.0
6.5825,15488.0,1344.0,-1024.0
6.585,15488.0,1344.0,-1024.0
6.5875,15424.0,1408.0,-1024.0
6.59,15424.0,1344.0,-1088.0
6.5925,15424.0,1344.0,-1088.0
6.595,15424.0,1344.0,-1088.0
6.5975,15360.0,1408.0,-1152.0
6.6,15360.0,1344.0,-1152.0
6.6025,15296.0,1344.0,-1216.0
6.605,15424.0,1408.0,-1216.0
6.6075,15360.0,1344.0,-1152.0
6.61,15360.0,1536.0,-1024.0
6.6125,15424.0,1472.0,-1088.0
6.615,15360.0,1536.0,-1088.0
6.6175,15424.0,1536.0,-960.0
6.62,15424.0,1600.0,-896.0
6.6225,15552.0,1664.0,-896.0
6.625,15488.0,1728.0,-896.0
6.6275,15488.0,1728.0,-896.0
6.63,15488.0,1664.0,-768.0
6.6325,15488.0,1664.0,-768.0
6.635,15552.0,1664.0,-768.0
6.6375,15552.0,1600.0,-896.0
6.64,15616.0,1600.0,-896.0
6.6425,15616.0,1600.0,-960.0
6.645,15680.0,1536.0,-960.0
6.6475,15616.0,1600.0,-960.0
6.65,15552.0,1600.0,-1088.0
6.6525,15552.0,1536.0,-1088.0
6.655,15616.0,1536.0,-1088.0
6.6575,15616.0,1536.0,-1088.0
6.66,15552.0,1600.0,-1088.0
6.6625,15552.0,1600.0,-1088.0
6.665,15616.0,1600.0,-1024.0
6.6675,15552.0,1600.0,-1088.0
6.67,15616.0,1600.0,-1088.0
6.6725,15616.0,1600.0,-960.0
6.675,15616.0,1536.0,-1024.0
6.6775,15680.0,1536.0,-1024.0
6.68,15616.0,1536.0,-1088.0
6.6825,15616.0,1536.0,-1088.0
6.685,15616.0,1472.0,-1024.0
6.6875,15552.0,1472.0,-1024.0
6.69,15552.0,1408.0,-1088.0
6.6925,15488.0,1408.0,-1152.0
6.695,15552.0,1408.0,-1088.0
6.6975,15552.0,1408.0,-1152.0
6.7,15552.0,1408.0,-1152.0
6.7025,15488.0,1344.0,-1152.0
6.705,15424.0,1344.0,-1088.0
6.7075,15488.0,1344.0,-1152.0
6.71,15488.0,1408.0,-1216.0
6.7125,15424.0,1408.0,-1216.0
6.715,15424.0,1408.0,-1216.0
6.7175,15424.0,1344.0,-1152.0
6.72,15424.0,1408.0,-1216.0
6.7225,15424.0,1408.0,-1216.0
6.725,15360.0,1408.0,-1216.0
6.7275,15424.0,1344.0,-1152.0
6.73,15424.0,1344.0,-1216.0
6.7325,15424.0,1408.0,-1152.0
6.735,15424.0,1344.0,-1216.0
6.7375,15488.0,1408.0,-1152.0
6.74,15424.0,1344.0,-1152.0
6.7425,15360.0,1344.0,-1152.0
6.745,15360.0,1280.0,-1088.0
6.7475,15424.0,1280.0,-1152.0
6.75,15360.0,1216.0,-1152.0
6.7525,15424.0,1216.0,-1152.0
6.755,15360.0,1216.0,-1216.0
6.7575,15424.0,1216.0,-1216.0
6.76,15424.0,1216.0,-1216.0
6.7625,15360.0,1280.0,-1280.0
6.765,15424.0,1280.0,-1280.0
6.7675,15424.0,1216.0,-1280.0
6.77,15424.0,1152.0,-1216.0
6.7725,15360.0,1216.0,-1216.0
6.775,15360.0,1280.0,-1216.0
6.7775,15424.0,1344.0,-1216.0
6.78,15424.0,1280.0,-1216.0
6.7825,15424.0,1344.0,-1216.0
6.785,15424.0,1408.0,-1152.0
6.7875,15424.0,1344.0,-1216.0
6.79,15424.0,1344.0,-1216.0
6.7925,15424.0,1344.0,-1216.0
6.795,15424.0,1280.0,-1088.0
6.7975,15424.0,1280.0,-1152.0
6.8,15424.0,1152.0,-1216.0
6.8025,15424.0,1152.0,-1152.0
6.805,15424.0,1152.0,-1216.0
6.8075,15424.0,1152.0,-1216.0
6.81,15424.0,1152.0,-1152.0
6.8125,15360.0,1152.0,-1216.0
6.815,15360.0,1152.0,-1344.0
6.8175,15296.0,1088.0,-1344.0
6.82,15360.0,1088.0,-1344.0
6.8225,15360.0,1088.0,-1344.0
6.825,15360.0,1088.0,-1344.0
6.8275,15296.0,1088.0,-1472.0
6.83,15296.0,1088.0,-1408.0
6.8325,15296.0,1088.0,-1408.0
6.835,15296.0,1088.0,-1408.0
6.8375,15296.0,1088.0,-1344.0
6.84,15232.0,1024.0,-1344.0
6.8425,15296.0,960.0,-1344.0
6.845,15360.0,960.0,-1344.0
6.8475,15360.0,960.0,-1280.0
6.85,15360.0,1024.0,-1280.0
6.8525,15360.0,1024.0,-1216.0
6.855,15360.0,1024.0,-1216.0
6.8575,15296.0,1024.0,-1216.0
6.86,15360.0,1088.0,-1088.0
6.8625,15424.0,1152.0,-1088.0
6.865,15488.0,1152.0,-1088.0
6.8675,15360.0,1152.0,-1088.0
6.87,15360.0,1152.0,-1088.0
6.8725,15424.0,1152.0,-1088.0
6.875,15424.0,1152.0,-1152.0
6.8775,15424.0,1152.0,-1152.0
6.88,15360.0,1216.0,-1152.0
6.8825,15296.0,1216.0,-1152.0
6.885,15296.0,1152.0,-1152.0
6.8875,15296.0,1152.0,-1152.0
6.89,15296.0,1216.0,-1152.0
6.8925,15232.0,1152.0,-1152.0
6.895,15232.0,1216.0,-1088.0
6.8975,15232.0,1216.0,-1088.0
6.9,15296.0,1280.0,-1088.0
6.9025,15296.0,1216.0,-960.0
6.905,15296.0,1216.0,-960.0
6.9075,15296.0,1216.0,-960.0
6.91,15296.0,1280.0,-960.0
6.9125,15360.0,1280.0,-960.0
6.915,15296.0,1280.0,-960.0
6.9175,15296.0,1280.0,-960.0
6.92,15296.0,1152.0,-960.0
6.9225,15232.0,1152.0,-1024.0
6.925,15232.0,1152.0,-1024.0
6.9275,15232.0,1088.0,-1152.0
6.93,15104.0,1088.0,-1216.0
6.9325,15168.0,1088.0,-1216.0
6.935,15168.0,1024.0,-1280.0
6.9375,15168.0,1088.0,-1216.0
6.94,15232.0,1088.0,-1280.0
6.9425,15168.0,1024.0,-1216.0
6.945,15168.0,1024.0,-1152.0
6.9475,15232.0,1024.0,-1088.0
6.95,15232.0,1024.0,-1088.0
6.9525,15232.0,1024.0,-1024.0
6.955,15296.0,1024.0,-960.0
6.9575,15360.0,1024.0,-896.0
6.96,15360.0,1088.0,-768.0
6.9625,15360.0,1088.0,-768.0
6.965,15360.0,1152.0,-704.0
6.9675,15360.0,1216.0,-640.0
6.97,15424.0,1216.0,-704.0
6.9725,15360.0,1344.0,-704.0
6.975,15424.0,1344.0,-768.0
6.9775,15296.0,1344.0,-768.0
6.98,15296.0,1344.0,-704.0
6.9825,15296.0,1344.0,-768.0
6.985,15232.0,1344.0,-832.0
6.9875,15168.0,1344.0,-896.0
6.99,15168.0,1408.0,-960.0
6.9925,15168.0,1344.0,-1024.0
6.995,15168.0,1408.0,-1088.0
6.9975,15168.0,1408.0,-1088.0
7.0,15168.0,1344.0,-1024.0
7.0025,15104.0,1280.0,-1088.0
7.005,15104.0,1280.0,-1088.0
7.0075,15168.0,1216.0,-1152.0
7.01,15168.0,1216.0,-1024.0
7.0125,15168.0,1152.0,-1088.0
7.015,15232.0,1088.0,-1024.0
7.0175,15232.0,1088.0,-960.0
7.02,15232.0,1088.0,-960.0
7.0225,15296.0,1088.0,-960.0
7.025,15296.0,1088.0,-960.0
7.0275,15360.0,1024.0,-960.0
7.03,15360.0,1024.0,-896.0
7.0325,15360.0,1088.0,-960.0
7.035,15360.0,1088.0,-960.0
7.0375,15360.0,1088.0,-960.0
7.04,15296.0,1088.0,-960.0
7.0425,15296.0,1088.0,-1088.0
7.045,15296.0,1088.0,-1024.0
7.0475,15232.0,1024.0,-1088.0
7.05,15296.0,1024.0,-1088.0
7.0525,15296.0,1024.0,-1216.0
7.055,15360.0,1088.0,-1152.0
7.0575,15296.0,1152.0,-1216.0
7.06,15296.0,1088.0,-1216.0
7.0625,15232.0,1088.0,-1216.0
7.065,15232.0,1152.0,-1216.0
7.0675,15232.0,1088.0,-1216.0
7.07,15232.0,1152.0,-1216.0
7.0725,15232.0,1152.0,-1280.0
7.075,15296.0,1152.0,-1216.0
7.0775,15232.0,1152.0,-1280.0
7.08,15232.0,1088.0,-1216.0
7.0825,15232.0,1152.0,-1152.0
7.085,15296.0,1216.0,-1152.0
7.0875,15296.0,1152.0,-1088.0
7.09,15360.0,1216.0,-1024.0
7.0925,15296.0,1216.0,-1024.0
7.095,15360.0,1216.0,-1024.0
7.0975,15424.0,1216.0,-960.0
7.1,15424.0,1216.0,-960.0
7.1025,15424.0,1216.0,-1024.0
7.105,15424.0,1216.0,-1088.0
7.1075,15424.0,1152.0,-1024.0
7.11,15360.0,1152.0,-1088.0
7.1125,15360.0,1088.0,-1152.0
7.115,15360.0,1088.0,-1152.0
7.1175,15296.0,1088.0,-1280.0
7.12,15296.0,1152.0,-1280.0
7.1225,15296.0,1152.0,-1216.0
7.125,15296.0,1152.0,-1280.0
7.1275,15232.0,1216.0,-1280.0
7.13,15296.0,1280.0,-1216.0
7.1325,15168.0,1216.0,-1152.0
7.135,15232.0,1216.0,-1216.0
7.1375,15296.0,1216.0,-1088.0
7.14,15296.0,1280.0,-1152.0
7.1425,15360.0,1280.0,-1152.0
7.145,15296.0,1280.0,-1152.0
7.1475,15360.0,1280.0,-1152.0
7.15,15296.0,1280.0,-1216.0
7.1525,15296.0,1280.0,-1216.0
7.155,15232.0,1280.0,-1152.0
7.1575,15232.0,1216.0,-1216.0
7.16,15232.0,1280.0,-1152.0
7.1625,15232.0,1280.0,-1216.0
7.165,15232.0,1216.0,-1152.0
7.1675,15232.0,1152.0,-1216.0
7.17,15232.0,1152.0,-1216.0
7.1725,15296.0,1152.0,-1216.0
7.175,15360.0,1152.0,-1216.0
7.1775,15424.0,1152.0,-1088.0
7.18,15424.0,1088.0,-1024.0
7.1825,15360.0,1152.0,-960.0
7.185,15424.0,1152.0,-1024.0
7.1875,15424.0,1216.0,-960.0
7.19,15424.0,1280.0,-960.0
7.1925,15424.0,1216.0,-1024.0
7.195,15424.0,1280.0,-960.0
7.1975,15488.0,1344.0,-960.0
7.2,15488.0,1280.0,-1088.0
7.2025,15424.0,1280.0,-1152.0
7.205,15360.0,1280.0,-1152.0
7.2075,15424.0,1280.0,-1216.0
7.21,15360.0,1280.0,-1152.0
7.2125,15360.0,1344.0,-1152.0
7.215,15424.0,1344.0,-1152.0
7.2175,15360.0,1344.0,-1152.0
7.22,15360.0,1344.0,-1152.0
7.2225,15360.0,1408.0,-1088.0
7.225,15360.0,1344.0,-1088.0
7.2275,15360.0,1344.0,-1088.0
7.23,15360.0,1344.0,-1024.0
7.2325,15360.0,1344.0,-960.0
7.235,15360.0,1344.0,-960.0
7.2375,15424.0,1344.0,-1024.0
7.24,15360.0,1280.0,-1088.0
7.2425,15360.0,1344.0,-1088.0
7.245,15424.0,1280.0,-1152.0
7.2475,15424.0,1280.0,-1024.0
7.25,15424.0,1344.0,-1088.0
7.2525,15424.0,1344.0,-1088.0
7.255,15424.0,1344.0,-1088.0
7.2575,15424.0,1408.0,-1088.0
7.26,15424.0,1472.0,-1088.0
7.2625,15360.0,1408.0,-1024.0
7.265,15296.0,1344.0,-960.0
7.2675,15360.0,1472.0,-1024.0
7.27,15424.0,1536.0,-1088.0
7.2725,15360.0,1472.0,-1024.0
7.275,15360.0,1472.0,-1024.0
7.2775,15360.0,1472.0,-1024.0
7.28,15296.0,1600.0,-1024.0
7.2825,15360.0,1536.0,-1088.0
7.285,15360.0,1408.0,-1088.0
7.2875,15296.0,1408.0,-1088.0
7.29,15296.0,1472.0,-1152.0
7.2925,15296.0,1536.0,-1152.0
7.295,15296.0,1536.0,-1216.0
7.2975,15296.0,1472.0,-1216.0
7.3,15360.0,1408.0,-1216.0
7.3025,15360.0,1344.0,-1216.0
7.305,15360.0,1344.0,-1216.0
7.3075,15360.0,1344.0,-1216.0
7.31,15296.0,1344.0,-1152.0
7.3125,15296.0,1344.0,-1280.0
7.315,15296.0,1280.0,-1280.0
7.3175,15296.0,1280.0,-1280.0
7.32,15232.0,1216.0,-1344.0
7.3225,15232.0,1152.0,-1344.0
7.325,15232.0,1216.0,-1344.0
7.3275,15232.0,1152.0,-1344.0
7.33,15232.0,1152.0,-1408.0
7.3325,15168.0,1152.0,-1472.0
7.335,15168.0,1152.0,-1472.0
7.3375,15168.0,1216.0,-1408.0
7.34,15168.0,1152.0,-1472.0
7.3425,15296.0,1152.0,-1472.0
7.345,15232.0,1152.0,-1408.0
7.3475,15232.0,1152.0,-1408.0
7.35,15232.0,1216.0,-1408.0
7.3525,15296.0,1216.0,-1408.0
7.355,15360.0,1216.0,-1408.0
7.3575,15360.0,1280.0,-1408.0
7.36,15360.0,1344.0,-1344.0
7.3625,15360.0,1280.0,-1280.0
7.365,15360.0,1280.0,-1344.0
7.3675,15360.0,1344.0,-1280.0
7.37,15360.0,1280.0,-1344.0
7.3725,15296.0,1344.0,-1280.0
7.375,15296.0,1344.0,-1344.0
7.3775,15360.0,1344.0,-1344.0
7.38,15360.0,1344.0,-1344.0
7.3825,15360.0,1408.0,-1344.0
7.385,15360.0,1472.0,-1344.0
7.3875,15296.0,1472.0,-1344.0
7.39,15360.0,1472.0,-1344.0
7.3925,15296.0,1536.0,-1344.0
7.395,15296.0,1472.0,-1344.0
7.3975,15296.0,1408.0,-1280.0
7.4,15296.0,1408.0,-1216.0
7.4025,15360.0,1408.0,-1280.0
7.405,15360.0,1408.0,-1280.0
7.4075,15488.0,1408.0,-1280.0
7.41,15488.0,1408.0,-1216.0
7.4125,15488.0,1408.0,-1152.0
7.415,15488.0,1472.0,-1216.0
7.4175,15488.0,1472.0,-1280.0
7.42,15424.0,1536.0,-1280.0
7.4225,15552.0,1472.0,-1280.0
7.425,15552.0,1472.0,-1280.0
7.4275,15552.0,1472.0,-1280.0
7.43,15488.0,1408.0,-1280.0
7.4325,15488.0,1472.0,-1280.0
7.435,15488.0,1472.0,-1344.0
7.4375,15488.0,1408.0,-1344.0
7.44,15424.0,1408.0,-1280.0
7.4425,15488.0,1472.0,-1280.0
7.445,15424.0,1472.0,-1280.0
7.4475,15424.0,1408.0,-1280.0
7.45,15424.0,1472.0,-1344.0
7.4525,15424.0,1536.0,-1280.0
7.455,15488.0,1472.0,-1280.0
7.4575,15488.0,1472.0,-1216.0
7.46,15424.0,1472.0,-1216.0
7.4625,15424.0,1536.0,-1280.0
7.465,15424.0,1600.0,-1152.0
7.4675,15424.0,1600.0,-1216.0
7.47,15424.0,1600.0,-1152.0
7.4725,15424.0,1664.0,-1088.0
7.475,15424.0,1664.0,-1152.0
7.4775,15488.0,1600.0,-1216.0
7.48,15488.0,1600.0,-1216.0
7.4825,15424.0,1600.0,-1216.0
7.485,15424.0,1600.0,-1216.0
7.4875,15424.0,1600.0,-1216.0
7.49,15424.0,1472.0,-1280.0
7.4925,15360.0,1472.0,-1280.0
7.495,15360.0,1408.0,-1280.0
7.4975,15360.0,1408.0,-1216.0
7.5,15360.0,1408.0,-1216.0
7.5025,15360.0,1472.0,-1216.0
7.505,15360.0,1408.0,-1216.0
7.5075,15360.0,1472.0,-1152.0
7.51,15424.0,1408.0,-1152.0
7.5125,15424.0,1472.0,-1152.0
7.515,15424.0,1408.0,-1152.0
7.5175,15488.0,1472.0,-1088.0
7.52,15488.0,1472.0,-1088.0
7.5225,15488.0,1408.0,-1088.0
7.525,15488.0,1344.0,-1024.0
7.5275,15488.0,1472.0,-1088.0
7.53,15488.0,1472.0,-1088.0
7.5325,15424.0,1472.0,-1216.0
7.535,15488.0,1472.0,-1216.0
7.5375,15488.0,1472.0,-1216.0
7.54,15488.0,1536.0,-1216.0
7.5425,15424.0,1536.0,-1280.0
7.545,15488.0,1536.0,-1216.0
7.5475,15424.0,1600.0,-1216.0
7.55,15424.0,1536.0,-1280.0
7.5525,15488.0,1472.0,-1216.0
7.555,15488.0,1536.0,-1152.0
7.5575,15552.0,1536.0,-1152.0
7.56,15552.0,1600.0,-1088.0
7.5625,15552.0,1600.0,-1024.0
7.565,15552.0,1536.0,-960.0
7.5675,15488.0,1600.0,-960.0
7.57,15616.0,1664.0,-896.0
7.5725,15552.0,1664.0,-896.0
7.575,15616.0,1664.0,-896.0
7.5775,15616.0,1600.0,-960.0
7.58,15552.0,1600.0,-896.0
7.5825,15552.0,1600.0,-896.0
7.585,15552.0,1600.0,-896.0
7.5875,15616.0,1600.0,-896.0
7.59,15616.0,1536.0,-960.0
7.5925,15616.0,1536.0,-1024.0
7.595,15616.0,1472.0,-1024.0
7.5975,15616.0,1408.0,-960.0
7.6,15616.0,1408.0,-1024.0
7.6025,15552.0,1408.0,-1024.0
7.605,15552.0,1408.0,-1024.0
7.6075,15616.0,1408.0,-1024.0
7.61,15552.0,1344.0,-1024.0
7.6125,15552.0,1344.0,-1088.0
7.615,15616.0,1408.0,-1024.0
7.6175,15552.0,1344.0,-1088.0
7.62,15488.0,1408.0,-1088.0
7.6225,15488.0,1344.0,-1024.0
7.625,15488.0,1280.0,-1088.0
7.6275,15488.0,1344.0,-1024.0
7.63,15488.0,1344.0,-1088.0
7.6325,15488.0,1344.0,-1088.0
7.635,15424.0,1344.0,-1088.0
7.6375,15488.0,1280.0,-1088.0
7.64,15488.0,1280.0,-1152.0
7.6425,15424.0,1280.0,-1152.0
7.645,15424.0,1344.0,-1152.0
7.6475,15424.0,1280.0,-1152.0
7.65,15424.0,1216.0,-1216.0
7.6525,15360.0,1280.0,-1152.0
7.655,15360.0,1280.0,-1152.0
7.6575,15360.0,1280.0,-1152.0
7.66,15424.0,1216.0,-1152.0
7.6625,15424.0,1280.0,-1216.0
7.665,15424.0,1280.0,-1216.0
7.6675,15424.0,1216.0,-1152.0
7.67,15424.0,1152.0,-1152.0
7.6725,15360.0,1152.0,-1152.0
7.675,15360.0,1152.0,-1152.0
7.6775,15360.0,1088.0,-1088.0
7.68,15360.0,1152.0,-1088.0
7.6825,15360.0,1152.0,-1152.0
7.685,15360.0,1088.0,-1152.0
7.6875,15424.0,1152.0,-1088.0
7.69,15424.0,1216.0,-1088.0
7.6925,15424.0,1152.0,-1152.0
7.695,15424.0,1152.0,-1088.0
7.6975,15424.0,1152.0,-1088.0
7.7,15360.0,1152.0,-1088.0
7.7025,15360.0,1216.0,-1152.0
7.705,15424.0,1280.0,-1152.0
7.7075,15360.0,1280.0,-1088.0
7.71,15360.0,1280.0,-1088.0
7.7125,15360.0,1216.0,-1152.0
7.715,15360.0,1216.0,-1152.0
7.7175,15296.0,1152.0,-1088.0
7.72,15168.0,1152.0,-1088.0
7.7225,15232.0,1152.0,-1152.0
7.725,15296.0,1216.0,-1088.0
7.7275,15296.0,1152.0,-1024.0
7.73,15296.0,1216.0,-1024.0
7.7325,15296.0,1216.0,-1024.0
7.735,15360.0,1280.0,-1088.0
7.7375,15296.0,1344.0,-1088.0
7.74,15360.0,1344.0,-1024.0
7.7425,15360.0,1344.0,-1024.0
7.745,15360.0,1280.0,-1024.0
7.7475,15296.0,1216.0,-1088.0
7.75,15296.0,1280.0,-1152.0
7.7525,15232.0,1280.0,-1088.0
7.755,15296.0,1280.0,-1152.0
7.7575,15232.0,1216.0,-1088.0
7.76,15296.0,1216.0,-1088.0
7.7625,15296.0,1216.0,-1088.0
7.765,15232.0,1280.0,-1024.0
7.7675,15296.0,1216.0,-1024.0
7.77,15296.0,1152.0,-1152.0
7.7725,15360.0,1216.0,-1088.0
7.775,15360.0,1152.0,-1088.0
7.7775,15424.0,1152.0,-1088.0
7.78,15424.0,1152.0,-1152.0
7.7825,15424.0,1216.0,-1152.0
7.785,15424.0,1152.0,-1152.0
7.7875,15424.0,1152.0,-1152.0
7.79,15424.0,1088.0,-1088.0
7.7925,15424.0,1088.0,-1088.0
7.795,15424.0,1152.0,-1216.0
7.7975,15424.0,1088.0,-1216.0
7.8,15424.0,1024.0,-1216.0
7.8025,15360.0,1088.0,-1152.0
7.805,15424.0,1152.0,-1088.0
7.8075,15424.0,1088.0,-1152.0
7.81,15424.0,1088.0,-1152.0
7.8125,15360.0,1088.0,-1216.0
7.815,15360.0,1088.0,-1216.0
7.8175,15360.0,1088.0,-1216.0
7.82,15360.0,1152.0,-1216.0
7.8225,15360.0,1152.0,-1216.0
7.825,15360.0,1088.0,-1216.0
7.8275,15360.0,1088.0,-1216.0
7.83,15360.0,1152.0,-1216.0
7.8325,15360.0,1152.0,-1280.0
7.835,15360.0,1088.0,-1280.0
7.8375,15296.0,1088.0,-1280.0
7.84,15296.0,1024.0,-1280.0
7.8425,15232.0,1024.0,-1216.0
7.845,15296.0,960.0,-1216.0
7.8475,15296.0,960.0,-1152.0
7.85,15360.0,1024.0,-1152.0
7.8525,15360.0,1024.0,-1088.0
7.855,15296.0,1088.0,-960.0
7.8575,15360.0,1152.0,-960.0
7.86,15424.0,1152.0,-960.0
7.8625,15424.0,1216.0,-896.0
7.865,15424.0,1216.0,-896.0
7.8675,15424.0,1280.0,-896.0
7.87,15424.0,1280.0,-960.0
7.8725,15424.0,1280.0,-960.0
7.875,15360.0,1280.0,-960.0
7.8775,15360.0,1216.0,-1024.0
7.88,15360.0,1216.0,-1152.0
7.8825,15360.0,1152.0,-1152.0
7.885,15360.0,1216.0,-1152.0
7.8875,15296.0,1152.0,-1216.0
7.89,15232.0,1216.0,-1216.0
7.8925,15232.0,1152.0,-1216.0
7.895,15232.0,1152.0,-1216.0
7.8975,15296.0,1152.0,-1152.0
7.9,15296.0,1152.0,-1152.0
7.9025,15360.0,1152.0,-1088.0
7.905,15424.0,1216.0,-1024.0
7.9075,15360.0,1216.0,-1024.0
7.91,15360.0,1152.0,-960.0
7.9125,15360.0,1216.0,-960.0
7.915,15360.0,1216.0,-1024.0
7.9175,15424.0,1152.0,-1088.0
7.92,15424.0,1152.0,-1024.0
7.9225,15424.0,1088.0,-1088.0
7.925,15424.0,1088.0,-1088.0
7.9275,15424.0,1152.0,-1088.0
7.93,15424.0,1088.0,-1152.0
7.9325,15424.0,1024.0,-1216.0
7.935,15424.0,1024.0,-1216.0
7.9375,15424.0,1024.0,-1152.0
7.94,15424.0,1024.0,-1152.0
7.9425,15424.0,1024.0,-1216.0
7.945,15424.0,1024.0,-1152.0
7.9475,15424.0,1088.0,-1152.0
7.95,15488.0,1088.0,-1152.0
7.9525,15488.0,1152.0,-1152.0
7.955,15552.0,1152.0,-1152.0
7.9575,15552.0,1152.0,-1152.0
7.96,15552.0,1088.0,-1152.0
7.9625,15552.0,1216.0,-1088.0
7.965,15552.0,1152.0,-1024.0
7.9675,15552.0,1152.0,-960.0
7.97,15552.0,1088.0,-960.0
7.9725,15488.0,1152.0,-960.0
7.975,15552.0,1216.0,-960.0
7.9775,15552.0,1280.0,-1024.0
7.98,15616.0,1216.0,-1088.0
7.9825,15552.0,1216.0,-1088.0
7.985,15552.0,1280.0,-1152.0
7.9875,15552.0,1216.0,-1152.0
7.99,15552.0,1216.0,-1088.0
7.9925,15488.0,1216.0,-1152.0
7.995,15488.0,1216.0,-1152.0
7.9975,15488.0,1152.0,-1152.0
8.0,15488.0,1088.0,-1152.0
8.0025,15488.0,1152.0,-1280.0
8.005,15424.0,1152.0,-1152.0
8.0075,15488.0,1152.0,-1088.0
8.01,15488.0,1088.0,-1152.0
8.0125,15488.0,1152.0,-1088.0
8.015,15488.0,1088.0,-1088.0
8.0175,15488.0,1088.0,-1088.0
8.02,15488.0,1088.0,-1024.0
8.0225,15552.0,1088.0,-1088.0
8.025,15552.0,1088.0,-1088.0
8.0275,15488.0,1088.0,-1152.0
8.03,15488.0,1088.0,-1088.0
8.0325,15488.0,1088.0,-1088.0
8.035,15488.0,1024.0,-1024.0
8.0375,15488.0,960.0,-1088.0
8.04,15424.0,1024.0,-1152.0
8.0425,15424.0,960.0,-1152.0
8.045,15424.0,960.0,-1216.0
8.0475,15424.0,960.0,-1280.0
8.05,15424.0,960.0,-1216.0
8.0525,15360.0,1024.0,-1216.0
8.055,15360.0,1024.0,-1152.0
8.0575,15424.0,960.0,-1152.0
8.06,15488.0,1024.0,-1216.0
8.0625,15552.0,1024.0,-1216.0
8.065,15552.0,1024.0,-1088.0
8.0675,15616.0,1024.0,-1088.0
8.07,15552.0,1024.0,-1088.0
8.0725,15552.0,1088.0,-1152.0
8.075,15616.0,1088.0,-1088.0
8.0775,15552.0,1088.0,-1024.0
8.08,15552.0,1152.0,-1024.0
8.0825,15680.0,1216.0,-1024.0
8.085,15680.0,1216.0,-1024.0
8.0875,15616.0,1216.0,-1024.0
8.09,15552.0,1152.0,-1024.0
8.0925,15552.0,1216.0,-1088.0
8.095,15552.0,1152.0,-1088.0
8.0975,15616.0,1088.0,-1088.0
8.1,15488.0,1088.0,-1152.0
8.1025,15552.0,1024.0,-1152.0
8.105,15552.0,960.0,-1216.0
8.1075,15488.0,1024.0,-1216.0
8.11,15488.0,1024.0,-1152.0
8.1125,15488.0,960.0,-1152.0
8.115,15552.0,1088.0,-1152.0
8.1175,15552.0,1024.0,-1216.0
8.12,15488.0,960.0,-1152.0
8.1225,15488.0,960.0,-1152.0
8.125,15424.0,960.0,-1152.0
8.1275,15424.0,960.0,-1088.0
8.13,15488.0,1024.0,-1152.0
8.1325,15488.0,960.0,-1152.0
8.135,15424.0,960.0,-1152.0
8.1375,15488.0,896.0,-1152.0
8.14,15488.0,960.0,-1216.0
8.1425,15424.0,896.0,-1216.0
8.145,15424.0,832.0,-1152.0
8.1475,15360.0,832.0,-1152.0
8.15,15360.0,896.0,-1216.0
8.1525,15360.0,896.0,-1216.0
8.155,15360.0,832.0,-1152.0
8.1575,15360.0,896.0,-1088.0
8.16,15360.0,896.0,-1152.0
8.1625,15360.0,896.0,-1216.0
8.165,15360.0,960.0,-1216.0
8.1675,15360.0,960.0,-1216.0
8.17,15360.0,896.0,-1216.0
8.1725,15360.0,896.0,-1216.0
8.175,15296.0,960.0,-1216.0
8.1775,15296.0,896.0,-1280.0
8.18,15296.0,896.0,-1280.0
8.1825,15232.0,896.0,-1216.0
8.185,15296.0,832.0,-1216.0
8.1875,15232.0,832.0,-1216.0
8.19,15296.0,832.0,-1216.0
8.1925,15232.0,832.0,-1216.0
8.195,15232.0,896.0,-1280.0
8.1975,15232.0,896.0,-1280.0
8.2,15168.0,832.0,-1280.0
8.2025,15168.0,832.0,-1280.0
8.205,15168.0,832.0,-1344.0
8.2075,15104.0,896.0,-1344.0
8.21,15168.0,832.0,-1408.0
8.2125,15168.0,832.0,-1344.0
8.215,15104.0,768.0,-1344.0
8.2175,15168.0,704.0,-1344.0
8.22,15168.0,768.0,-1344.0
8.2225,15104.0,832.0,-1408.0
8.225,15168.0,768.0,-1408.0
8.2275,15168.0,832.0,-1408.0
8.23,15168.0,768.0,-1344.0
8.2325,15232.0,768.0,-1216.0
8.235,15168.0,768.0,-1152.0
8.2375,15168.0,832.0,-1152.0
8.24,15168.0,832.0,-1088.0
8.2425,15232.0,832.0,-1088.0
8.245,15232.0,896.0,-960.0
8.2475,15232.0,832.0,-1024.0
8.25,15296.0,832.0,-1024.0
8.2525,15296.0,832.0,-960.0
8.255,15232.0,896.0,-896.0
8.2575,15296.0,896.0,-960.0
8.26,15424.0,896.0,-1024.0
8.2625,15424.0,896.0,-1024.0
8.265,15424.0,960.0,-960.0
8.2675,15552.0,1024.0,-896.0
8.27,15552.0,1152.0,-896.0
8.2725,15680.0,1152.0,-768.0
8.275,15744.0,1216.0,-640.0
8.2775,15808.0,1280.0,-576.0
8.28,15872.0,1408.0,-576.0
8.2825,15808.0,1472.0,-512.0
8.285,15936.0,1408.0,-448.0
8.2875,15936.0,1408.0,-512.0
8.29,16064.0,1600.0,-512.0
8.2925,16064.0,1664.0,-384.0
8.295,16064.0,1728.0,-384.0
8.2975,16064.0,1792.0,-384.0
8.3,16000.0,1856.0,-384.0
8.3025,16064.0,1920.0,-384.0
8.305,16128.0,1984.0,-320.0
8.3075,16064.0,2048.0,-384.0
8.31,16000.0,2048.0,-320.0
8.3125,16000.0,1984.0,-320.0
8.315,16000.0,1984.0,-384.0
8.3175,16000.0,1920.0,-448.0
8.32,16000.0,1856.0,-448.0
8.3225,16000.0,1728.0,-576.0
8.325,16000.0,1728.0,-576.0
8.3275,15936.0,1728.0,-576.0
8.33,15936.0,1728.0,-576.0
8.3325,15872.0,1664.0,-512.0
8.335,15872.0,1664.0,-576.0
8.3375,15872.0,1600.0,-512.0
8.34,15872.0,1536.0,-576.0
8.3425,15872.0,1536.0,-512.0
8.345,15808.0,1536.0,-512.0
8.3475,15808.0,1536.0,-512.0
8.35,15808.0,1536.0,-512.0
8.3525,15808.0,1536.0,-512.0
8.355,15808.0,1472.0,-512.0
8.3575,15808.0,1472.0,-512.0
8.36,15808.0,1408.0,-576.0
8.3625,15744.0,1408.0,-640.0
8.365,15744.0,1216.0,-704.0
8.3675,15744.0,1088.0,-768.0
8.37,15680.0,1088.0,-832.0
8.3725,15680.0,1152.0,-768.0
8.375,15680.0,1152.0,-896.0
8.3775,15680.0,1024.0,-960.0
8.38,15744.0,960.0,-960.0
8.3825,15680.0,896.0,-1024.0
8.385,15680.0,896.0,-1088.0
8.3875,15744.0,896.0,-1088.0
8.39,15744.0,896.0,-1152.0
8.3925,15680.0,896.0,-1216.0
8.395,15680.0,832.0,-1280.0
8.3975,15680.0,832.0,-1280.0
8.4,15680.0,832.0,-1344.0
8.4025,15680.0,896.0,-1280.0
8.405,15680.0,832.0,-1280.0
8.4075,15680.0,896.0,-1344.0
8.41,15744.0,896.0,-1280.0
8.4125,15744.0,896.0,-1216.0
8.415,15744.0,896.0,-1152.0
8.4175,15680.0,896.0,-1152.0
8.42,15808.0,960.0,-1152.0
8.4225,15744.0,960.0,-1152.0
8.425,15744.0,1024.0,-1088.0
8.4275,15744.0,1088.0,-1088.0
8.43,15744.0,1152.0,-1088.0
8.4325,15680.0,1088.0,-1088.0
8.435,15680.0,1152.0,-1152.0
8.4375,15616.0,1152.0,-1088.0
8.44,15552.0,1088.0,-1024.0
8.4425,15488.0,1152.0,-1024.0
8.445,15360.0,1088.0,-960.0
8.4475,15360.0,1152.0,-960.0
8.45,15232.0,1152.0,-1024.0
8.4525,15296.0,1280.0,-1088.0
8.455,15296.0,1280.0,-1024.0
8.4575,15168.0,1216.0,-960.0
8.46,15168.0,1216.0,-960.0
8.4625,15104.0,1280.0,-896.0
8.465,15104.0,1216.0,-896.0
8.4675,15040.0,1152.0,-896.0
8.47,15040.0,1152.0,-896.0
8.4725,15040.0,1216.0,-896.0
8.475,15040.0,1280.0,-896.0
8.4775,15040.0,1216.0,-832.0
8.48,14976.0,1152.0,-832.0
8.4825,14912.0,1216.0,-832.0
8.485,14976.0,1216.0,-896.0
8.4875,14976.0,1152.0,-896.0
8.49,14976.0,1152.0,-960.0
8.4925,14912.0,1152.0,-1024.0
8.495,14912.0,1216.0,-1088.0
8.4975,14784.0,1152.0,-1152.0
8.5,14784.0,1152.0,-1280.0
8.5025,14784.0,1088.0,-1344.0
8.505,14784.0,1152.0,-1344.0
8.5075,14656.0,1152.0,-1280.0
8.51,14720.0,1024.0,-1216.0
8.5125,14784.0,960.0,-1216.0
8.515,14848.0,896.0,-1216.0
8.5175,14848.0,832.0,-1216.0
8.52,14912.0,768.0,-1344.0
8.5225,14848.0,768.0,-1344.0
8.525,14912.0,768.0,-1280.0
8.5275,14912.0,768.0,-1344.0
8.53,15040.0,768.0,-1408.0
8.5325,15104.0,768.0,-1408.0
8.535,15104.0,704.0,-1472.0
8.5375,15168.0,704.0,-1536.0
8.54,15168.0,704.0,-1472.0
8.5425,15168.0,768.0,-1408.0
8.545,15168.0,768.0,-1408.0
8.5475,15168.0,704.0,-1472.0
8.55,15104.0,640.0,-1408.0
8.5525,15104.0,512.0,-1280.0
8.555,15168.0,576.0,-1216.0
8.5575,15168.0,704.0,-1152.0
8.56,15168.0,896.0,-1024.0
8.5625,15168.0,960.0,-960.0
8.565,15168.0,960.0,-832.0
8.5675,15168.0,1088.0,-704.0
8.57,15104.0,1088.0,-576.0
8.5725,15104.0,1088.0,-512.0
8.575,15104.0,1152.0,-384.0
8.5775,15040.0,1216.0,-384.0
8.58,15040.0,1408.0,-320.0
8.5825,14976.0,1536.0,-448.0
8.585,14912.0,1536.0,-448.0
8.5875,14976.0,1344.0,-512.0
8.59,14976.0,1088.0,-576.0
8.5925,15040.0,1088.0,-576.0
8.595,14976.0,1024.0,-704.0
8.5975,14912.0,1024.0,-704.0
8.6,14848.0,960.0,-768.0
8.6025,14848.0,832.0,-768.0
8.605,14784.0,960.0,-704.0
8.6075,14592.0,1024.0,-768.0
8.61,14528.0,1088.0,-1024.0
8.6125,14464.0,1152.0,-960.0
8.615,14400.0,1152.0,-1024.0
8.6175,14400.0,1152.0,-960.0
8.62,14464.0,1216.0,-960.0
8.6225,14528.0,1280.0,-960.0
8.625,14464.0,1344.0,-1024.0
8.6275,14400.0,1280.0,-1088.0
8.63,14400.0,1280.0,-1088.0
8.6325,14336.0,1280.0,-1152.0
8.635,14272.0,1280.0,-1152.0
8.6375,14336.0,1408.0,-1152.0
8.64,14464.0,1408.0,-1216.0
8.6425,14528.0,1408.0,-1088.0
8.645,14592.0,1536.0,-1152.0
8.6475,14656.0,1600.0,-1088.0
8.65,14848.0,1600.0,-960.0
8.6525,14912.0,1536.0,-960.0
8.655,14912.0,1664.0,-960.0
8.6575,14912.0,1728.0,-1024.0
8.66,14912.0,1728.0,-896.0
8.6625,14912.0,1664.0,-960.0
8.665,14976.0,1664.0,-896.0
8.6675,15040.0,1792.0,-768.0
8.67,15040.0,1920.0,-704.0
8.6725,15168.0,1984.0,-640.0
8.675,15168.0,2112.0,-640.0
8.6775,15168.0,2240.0,-576.0
8.68,15232.0,2304.0,-576.0
8.6825,15296.0,2304.0,-512.0
8.685,15168.0,2304.0,-576.0
8.6875,15296.0,2304.0,-576.0
8.69,15168.0,2304.0,-512.0
8.6925,15168.0,2304.0,-448.0
8.695,15104.0,2368.0,-512.0
8.6975,15104.0,2432.0,-448.0
8.7,15104.0,2432.0,-448.0
8.7025,15040.0,2432.0,-512.0
8.705,15040.0,2432.0,-512.0
8.7075,14976.0,2496.0,-512.0
8.71,14976.0,2432.0,-512.0
8.7125,14848.0,2368.0,-448.0
8.715,14784.0,2432.0,-448.0
8.7175,14784.0,2432.0,-320.0
8.72,14784.0,2432.0,-256.0
8.7225,14848.0,2496.0,-256.0
8.725,14848.0,2496.0,-128.0
8.7275,14912.0,2496.0,-128.0
8.73,14912.0,2432.0,-128.0
8.7325,14912.0,2368.0,-128.0
8.735,15040.0,2368.0,-128.0
8.7375,15040.0,2368.0,-128.0
8.74,15104.0,2368.0,-128.0
8.7425,15104.0,2368.0,-192.0
8.745,15104.0,2432.0,-256.0
8.7475,15168.0,2432.0,-320.0
8.75,15232.0,2496.0,-320.0
8.7525,15168.0,2496.0,-384.0
8.755,15296.0,2432.0,-384.0
8.7575,15360.0,2496.0,-448.0
8.76,15360.0,2432.0,-512.0
8.7625,15424.0,2432.0,-512.0
8.765,15488.0,2368.0,-512.0
8.7675,15552.0,2304.0,-512.0
8.77,15616.0,2112.0,-576.0
8.7725,15808.0,2112.0,-576.0
8.775,15808.0,2048.0,-704.0
8.7775,15808.0,1984.0,-832.0
8.78,15808.0,1984.0,-832.0
8.7825,15872.0,2048.0,-832.0
8.785,15872.0,2112.0,-896.0
8.7875,15808.0,2176.0,-896.0
8.79,15808.0,2240.0,-960.0
8.7925,15744.0,2304.0,-960.0
8.795,15808.0,2368.0,-896.0
8.7975,15808.0,2496.0,-1024.0
8.8,15936.0,2624.0,-1152.0
8.8025,15872.0,2624.0,-1216.0
8.805,15872.0,2624.0,-1344.0
8.8075,15872.0,2688.0,-1280.0
8.81,15872.0,2624.0,-1280.0
8.8125,15936.0,2752.0,-1280.0
8.815,15872.0,2752.0,-1344.0
8.8175,15872.0,2816.0,-1344.0
8.82,15808.0,2944.0,-1344.0
8.8225,15744.0,3072.0,-1408.0
8.825,15680.0,3072.0,-1472.0
8.8275,15680.0,3072.0,-1536.0
8.83,15680.0,3072.0,-1472.0
8.8325,15616.0,3072.0,-1472.0
8.835,15552.0,3136.0,-1472.0
8.8375,15552.0,3072.0,-1408.0
8.84,15360.0,3072.0,-1472.0
8.8425,15296.0,3072.0,-1344.0
8.845,15296.0,3200.0,-1344.0
8.8475,15232.0,3200.0,-1280.0
8.85,15168.0,3264.0,-1344.0
8.8525,15040.0,3328.0,-1280.0
8.855,15168.0,3328.0,-1344.0
8.8575,15168.0,3328.0,-1280.0
8.86,15168.0,3264.0,-1216.0
8.8625,15104.0,3200.0,-1152.0
8.865,15104.0,3200.0,-1152.0
8.8675,15104.0,3200.0,-1152.0
8.87,15040.0,3136.0,-1024.0
8.8725,15104.0,3072.0,-1024.0
8.875,15104.0,2944.0,-960.0
8.8775,14976.0,2944.0,-960.0
8.88,14976.0,2880.0,-1024.0
8.8825,14976.0,2816.0,-1024.0
8.885,15040.0,2880.0,-896.0
8.8875,14976.0,2880.0,-1024.0
8.89,15040.0,3008.0,-1088.0
8.8925,14976.0,2944.0,-1088.0
8.895,15040.0,2944.0,-1088.0
8.8975,15040.0,2944.0,-1152.0
8.9,14912.0,2944.0,-1152.0
8.9025,14912.0,2944.0,-1216.0
8.905,14912.0,2944.0,-1280.0
8.9075,14912.0,2944.0,-1408.0
8.91,14848.0,2944.0,-1408.0
8.9125,14848.0,2944.0,-1408.0
8.915,14912.0,2944.0,-1472.0
8.9175,14976.0,3008.0,-1536.0
8.92,15040.0,3008.0,-1536.0
8.9225,15040.0,3008.0,-1536.0
8.925,15040.0,3072.0,-1600.0
8.9275,15040.0,3072.0,-1600.0
8.93,15104.0,3136.0,-1728.0
8.9325,15168.0,3136.0,-1792.0
8.935,15168.0,3072.0,-1856.0
8.9375,15232.0,3072.0,-1920.0
8.94,15232.0,3008.0,-1984.0
8.9425,15232.0,3008.0,-1984.0
8.945,15232.0,2944.0,-1984.0
8.9475,15232.0,2944.0,-2048.0
8.95,15232.0,2880.0,-2112.0
8.9525,15296.0,2880.0,-2176.0
8.955,15296.0,2880.0,-2240.0
8.9575,15232.0,2816.0,-2304.0
8.96,15296.0,2752.0,-2368.0
8.9625,15360.0,2688.0,-2304.0
8.965,15424.0,2624.0,-2432.0
8.9675,15424.0,2624.0,-2368.0
8.97,15424.0,2560.0,-2304.0
8.9725,15424.0,2560.0,-2368.0
8.975,15488.0,2432.0,-2368.0
8.9775,15552.0,2560.0,-2432.0
8.98,15552.0,2560.0,-2368.0
8.9825,15488.0,2560.0,-2432.0
8.985,15552.0,2496.0,-2368.0
8.9875,15552.0,2432.0,-2432.0
8.99,15616.0,2496.0,-2432.0
8.9925,15616.0,2432.0,-2368.0
8.995,15680.0,2368.0,-2368.0
8.9975,15616.0,2368.0,-2368.0
9.0,15616.0,2368.0,-2432.0
9.0025,15680.0,2368.0,-2496.0
9.005,15680.0,2368.0,-2496.0
9.0075,15744.0,2368.0,-2432.0
9.01,15744.0,2432.0,-2368.0
9.0125,15680.0,2432.0,-2368.0
9.015,15680.0,2432.0,-2304.0
9.0175,15616.0,2368.0,-2368.0
9.02,15680.0,2304.0,-2304.0
9.0225,15616.0,2304.0,-2368.0
9.025,15552.0,2304.0,-2368.0
9.0275,15424.0,2368.0,-2304.0
9.03,15424.0,2304.0,-2240.0
9.0325,15424.0,2240.0,-2176.0
9.035,15360.0,2240.0,-2176.0
9.0375,15360.0,2240.0,-2176.0
9.04,15424.0,2176.0,-2112.0
9.0425,15424.0,2176.0,-2112.0
9.045,15424.0,2048.0,-2112.0
9.0475,15424.0,2048.0,-2176.0
9.05,15360.0,1984.0,-2176.0
9.0525,15424.0,1984.0,-2240.0
9.055,15360.0,1920.0,-2304.0
9.0575,15296.0,1984.0,-2432.0
9.06,15232.0,1984.0,-2432.0
9.0625,15232.0,1984.0,-2496.0
9.065,15232.0,1984.0,-2496.0
9.0675,15168.0,1984.0,-2560.0
9.07,15104.0,1920.0,-2624.0
9.0725,15168.0,1984.0,-2624.0
9.075,15168.0,1984.0,-2688.0
9.0775,15168.0,1920.0,-2688.0
9.08,15104.0,1856.0,-2752.0
9.0825,15104.0,1856.0,-2752.0
9.085,15040.0,1856.0,-2688.0
9.0875,15040.0,1856.0,-2752.0
9.09,14976.0,1856.0,-2752.0
9.0925,15040.0,1856.0,-2816.0
9.095,14976.0,1728.0,-2816.0
9.0975,15040.0,1728.0,-2752.0
9.1,15040.0,1728.0,-2752.0
9.1025,15104.0,1664.0,-2752.0
9.105,15040.0,1600.0,-2688.0
9.1075,14976.0,1536.0,-2816.0
9.11,14976.0,1472.0,-2752.0
9.1125,15040.0,1472.0,-2880.0
9.115,15104.0,1472.0,-2880.0
9.1175,15104.0,1472.0,-2944.0
9.12,15104.0,1408.0,-2944.0
9.1225,15104.0,1472.0,-2944.0
9.125,15040.0,1408.0,-2880.0
9.1275,15040.0,1472.0,-2944.0
9.13,15104.0,1472.0,-2880.0
9.1325,15104.0,1536.0,-2752.0
9.135,15104.0,1600.0,-2624.0
9.1375,15104.0,1664.0,-2560.0
9.14,15168.0,1664.0,-2560.0
9.1425,15168.0,1664.0,-2432.0
9.145,15232.0,1728.0,-2432.0
9.1475,15296.0,1664.0,-2368.0
9.15,15296.0,1728.0,-2304.0
9.1525,15296.0,1664.0,-2304.0
9.155,15296.0,1728.0,-2304.0
9.1575,15232.0,1792.0,-2304.0
9.16,15296.0,1728.0,-2304.0
9.1625,15296.0,1728.0,-2240.0
9.165,15232.0,1664.0,-2304.0
9.1675,15232.0,1664.0,-2240.0
9.17,15232.0,1600.0,-2176.0
9.1725,15232.0,1536.0,-2240.0
9.175,15232.0,1472.0,-2240.0
9.1775,15232.0,1472.0,-2112.0
9.18,15232.0,1472.0,-2176.0
9.1825,15232.0,1408.0,-2176.0
9.185,15360.0,1344.0,-2176.0
9.1875,15424.0,1280.0,-2176.0
9.19,15360.0,1280.0,-2240.0
9.1925,15360.0,1280.0,-2176.0
9.195,15360.0,1216.0,-2240.0
9.1975,15360.0,1216.0,-2176.0
9.2,15360.0,1216.0,-2304.0
9.2025,15296.0,1216.0,-2304.0
9.205,15232.0,1216.0,-2304.0
9.2075,15168.0,1216.0,-2368.0
9.21,15168.0,1152.0,-2496.0
9.2125,15232.0,1088.0,-2560.0
9.215,15168.0,1088.0,-2624.0
9.2175,15168.0,1088.0,-2688.0
9.22,15104.0,1088.0,-2688.0
9.2225,15104.0,960.0,-2624.0
9.225,15104.0,960.0,-2560.0
9.2275,15168.0,960.0,-2624.0
9.23,15168.0,1024.0,-2560.0
9.2325,15040.0,960.0,-2560.0
9.235,15104.0,896.0,-2624.0
9.2375,15040.0,896.0,-2624.0
9.24,15040.0,896.0,-2816.0
9.2425,15104.0,768.0,-2816.0
9.245,15040.0,768.0,-2816.0
9.2475,15040.0,768.0,-2880.0
9.25,15040.0,704.0,-2944.0
9.2525,14976.0,704.0,-2944.0
9.255,14848.0,768.0,-2880.0
9.2575,14912.0,768.0,-2880.0
9.26,14912.0,832.0,-2880.0
9.2625,14976.0,896.0,-2880.0
9.265,14976.0,960.0,-2880.0
9.2675,15040.0,1024.0,-2752.0
9.27,15040.0,1088.0,-2816.0
9.2725,15104.0,1152.0,-2752.0
9.275,15104.0,1152.0,-2752.0
9.2775,15104.0,1216.0,-2688.0
9.28,15104.0,1152.0,-2688.0
9.2825,15040.0,1088.0,-2624.0
9.285,15104.0,1088.0,-2624.0
9.2875,15104.0,1088.0,-2624.0
9.29,15168.0,1088.0,-2624.0
9.2925,15232.0,1024.0,-2560.0
9.295,15232.0,1024.0,-2560.0
9.2975,15296.0,1024.0,-2560.0
9.3,15424.0,1088.0,-2496.0
9.3025,15424.0,1024.0,-2432.0
9.305,15424.0,1088.0,-2496.0
9.3075,15424.0,1088.0,-2432.0
9.31,15424.0,1088.0,-2432.0
9.3125,15424.0,1152.0,-2496.0
9.315,15424.0,1088.0,-2432.0
9.3175,15424.0,1088.0,-2496.0
9.32,15488.0,1088.0,-2496.0
9.3225,15552.0,1088.0,-2560.0
9.325,15552.0,1088.0,-2560.0
9.3275,15552.0,1088.0,-2624.0
9.33,15616.0,1152.0,-2688.0
9.3325,15552.0,1152.0,-2624.0
9.335,15552.0,1152.0,-2560.0
9.3375,15488.0,1152.0,-2560.0
9.34,15488.0,1088.0,-2624.0
9.3425,15488.0,1088.0,-2624.0
9.345,15424.0,1088.0,-2624.0
9.3475,15360.0,1088.0,-2624.0
9.35,15360.0,1024.0,-2624.0
9.3525,15296.0,1024.0,-2688.0
9.355,15232.0,1088.0,-2688.0
9.3575,15168.0,1088.0,-2752.0
9.36,15104.0,1088.0,-2752.0
9.3625,15040.0,1152.0,-2816.0
9.365,15040.0,1152.0,-2880.0
9.3675,14976.0,1152.0,-2944.0
9.37,14976.0,1152.0,-2880.0
9.3725,14912.0,1088.0,-2944.0
9.375,14848.0,1152.0,-3008.0
9.3775,14784.0,1152.0,-3008.0
9.38,14784.0,1152.0,-3008.0
9.3825,14720.0,1088.0,-3008.0
9.385,14720.0,1024.0,-2944.0
9.3875,14720.0,1088.0,-2944.0
9.39,14592.0,1088.0,-2880.0
9.3925,14528.0,1152.0,-2944.0
9.395,14528.0,1216.0,-2944.0
9.3975,14528.0,1216.0,-2880.0
9.4,14528.0,1216.0,-2880.0
9.4025,14592.0,1216.0,-2816.0
9.405,14592.0,1216.0,-2752.0
9.4075,14656.0,1216.0,-2816.0
9.41,14592.0,1280.0,-2752.0
9.4125,14592.0,1344.0,-2752.0
9.415,14592.0,1344.0,-2752.0
9.4175,14592.0,1280.0,-2752.0
9.42,14592.0,1216.0,-2688.0
9.4225,14592.0,1280.0,-2688.0
9.425,14592.0,1280.0,-2816.0
9.4275,14592.0,1280.0,-2816.0
9.43,14528.0,1280.0,-2816.0
9.4325,14592.0,1216.0,-2816.0
9.435,14592.0,1152.0,-2752.0
9.4375,14592.0,1152.0,-2688.0
9.44,14656.0,1216.0,-2688.0
9.4425,14592.0,1152.0,-2816.0
9.445,14720.0,1216.0,-2752.0
9.4475,14720.0,1216.0,-2752.0
9.45,14784.0,1216.0,-2688.0
9.4525,14848.0,1216.0,-2752.0
9.455,14912.0,1280.0,-2624.0
9.4575,14848.0,1216.0,-2624.0
9.46,14784.0,1152.0,-2624.0
9.4625,14848.0,1152.0,-2496.0
9.465,14912.0,1088.0,-2368.0
9.4675,14976.0,1088.0,-2368.0
9.47,14848.0,1088.0,-2432.0
9.4725,14784.0,1088.0,-2496.0
9.475,14720.0,1024.0,-2496.0
9.4775,14848.0,1088.0,-2496.0
9.48,14848.0,1088.0,-2432.0
9.4825,14912.0,1024.0,-2560.0
9.485,14912.0,1024.0,-2624.0
9.4875,14976.0,1024.0,-2688.0
9.49,14784.0,1152.0,-2816.0
9.4925,14720.0,1088.0,-2816.0
9.495,14656.0,1088.0,-2816.0
9.4975,14784.0,1152.0,-2816.0
9.5,14784.0,1152.0,-2944.0
9.5025,14784.0,1088.0,-3008.0
9.505,14720.0,1088.0,-3008.0
9.5075,14592.0,1024.0,-3008.0
9.51,14592.0,1024.0,-2944.0
9.5125,14592.0,1024.0,-2944.0
9.515,14656.0,1024.0,-2944.0
9.5175,14720.0,1024.0,-2880.0
9.52,14656.0,1024.0,-2944.0
9.5225,14720.0,1088.0,-2880.0
9.525,14784.0,1088.0,-2880.0
9.5275,14784.0,1088.0,-2816.0
9.53,14784.0,1088.0,-2880.0
9.5325,14784.0,1024.0,-2880.0
9.535,14784.0,1024.0,-2944.0
9.5375,14784.0,1024.0,-3072.0
9.54,14784.0,1024.0,-3136.0
9.5425,14784.0,1024.0,-3072.0
9.545,14912.0,1024.0,-3072.0
9.5475,15040.0,960.0,-3072.0
9.55,15104.0,960.0,-3072.0
9.5525,15104.0,960.0,-3072.0
9.555,15168.0,896.0,-3136.0
9.5575,15168.0,896.0,-3200.0
9.56,15168.0,960.0,-3136.0
9.5625,15168.0,1024.0,-3136.0
9.565,15232.0,960.0,-3136.0
9.5675,15296.0,1024.0,-3072.0
9.57,15488.0,832.0,-3072.0
9.5725,15616.0,768.0,-3136.0
9.575,15616.0,768.0,-3200.0
9.5775,15616.0,704.0,-3136.0
9.58,15744.0,704.0,-3200.0
9.5825,15808.0,640.0,-3264.0
9.585,15936.0,640.0,-3264.0
9.5875,16000.0,704.0,-3200.0
9.59,16064.0,640.0,-3200.0
9.5925,16192.0,512.0,-3200.0
9.595,16256.0,576.0,-3136.0
9.5975,16320.0,576.0,-3136.0
9.6,16320.0,640.0,-3072.0
9.6025,16320.0,640.0,-3008.0
9.605,16384.0,640.0,-3008.0
9.6075,16384.0,640.0,-3072.0
9.61,16448.0,704.0,-3008.0
9.6125,16512.0,768.0,-3072.0
9.615,16576.0,832.0,-3072.0
9.6175,16576.0,832.0,-3008.0
9.62,16576.0,832.0,-3072.0
9.6225,16576.0,768.0,-3136.0
9.625,16512.0,896.0,-3136.0
9.6275,16512.0,896.0,-3136.0
9.63,16384.0,960.0,-3136.0
9.6325,16320.0,1024.0,-3136.0
9.635,16256.0,960.0,-3136.0
9.6375,16192.0,960.0,-3072.0
9.64,16128.0,960.0,-3136.0
9.6425,16192.0,960.0,-3072.0
9.645,16064.0,896.0,-3072.0
9.6475,16000.0,960.0,-3008.0
9.65,15936.0,960.0,-3008.0
9.6525,15872.0,960.0,-3008.0
9.655,15872.0,1024.0,-2944.0
9.6575,15808.0,1024.0,-2816.0
9.66,15808.0,1088.0,-2752.0
9.6625,15808.0,1152.0,-2752.0
9.665,15744.0,1280.0,-2688.0
9.6675,15744.0,1280.0,-2688.0
9.67,15744.0,1280.0,-2624.0
9.6725,15680.0,1280.0,-2624.0
9.675,15616.0,1216.0,-2688.0
9.6775,15488.0,1152.0,-2688.0
9.68,15424.0,1024.0,-2624.0
9.6825,15360.0,1088.0,-2624.0
9.685,15424.0,1024.0,-2688.0
9.6875,15360.0,1024.0,-2688.0
9.69,15296.0,1024.0,-2688.0
9.6925,15296.0,1024.0,-2816.0
9.695,15296.0,1024.0,-2816.0
9.6975,15232.0,960.0,-2880.0
9.7,15168.0,1024.0,-3008.0
9.7025,15232.0,1088.0,-3008.0
9.705,15168.0,1024.0,-3008.0
9.7075,15296.0,1024.0,-3072.0
9.71,15296.0,1024.0,-3008.0
9.7125,15296.0,1024.0,-3008.0
9.715,15296.0,960.0,-3072.0
9.7175,15360.0,960.0,-3008.0
9.72,15424.0,832.0,-2944.0
9.7225,15424.0,832.0,-2944.0
9.725,15360.0,768.0,-3008.0
9.7275,15296.0,704.0,-3008.0
9.73,15360.0,704.0,-3072.0
9.7325,15360.0,704.0,-3072.0
9.735,15424.0,704.0,-3008.0
9.7375,15424.0,704.0,-3072.0
9.74,15360.0,704.0,-3008.0
9.7425,15296.0,640.0,-3008.0
9.745,15424.0,640.0,-3008.0
9.7475,15424.0,704.0,-3136.0
9.75,15360.0,640.0,-3072.0
9.7525,15424.0,576.0,-3136.0
9.755,15488.0,576.0,-3136.0
9.7575,15552.0,576.0,-3072.0
9.76,15616.0,512.0,-3008.0
9.7625,15616.0,512.0,-3072.0
9.765,15680.0,576.0,-2944.0
9.7675,15616.0,640.0,-2880.0
9.77,15680.0,704.0,-2880.0
9.7725,15680.0,832.0,-2944.0
9.775,15616.0,768.0,-3008.0
9.7775,15616.0,704.0,-3072.0
9.78,15552.0,704.0,-3072.0
9.7825,15552.0,640.0,-3200.0
9.785,15616.0,640.0,-3200.0
9.7875,15552.0,576.0,-3264.0
9.79,15488.0,640.0,-3328.0
9.7925,15360.0,576.0,-3328.0
9.795,15296.0,576.0,-3264.0
9.7975,15360.0,576.0,-3200.0
9.8,15424.0,640.0,-3136.0
9.8025,15552.0,640.0,-3136.0
9.805,15680.0,832.0,-3136.0
9.8075,15744.0,960.0,-3136.0
9.81,15744.0,1024.0,-3136.0
9.8125,15808.0,960.0,-3264.0
9.815,15680.0,960.0,-3264.0
9.8175,15744.0,896.0,-3392.0
9.82,15808.0,832.0,-3392.0
9.8225,15936.0,832.0,-3392.0
9.825,16064.0,896.0,-3456.0
9.8275,16064.0,896.0,-3392.0
9.83,16064.0,960.0,-3328.0
9.8325,16064.0,1024.0,-3264.0
9.835,16128.0,960.0,-3200.0
9.8375,16128.0,960.0,-3200.0
9.84,16064.0,960.0,-3200.0
9.8425,16000.0,896.0,-3200.0
9.845,15872.0,960.0,-3200.0
9.8475,15808.0,960.0,-3200.0
9.85,15680.0,896.0,-3264.0
9.8525,15680.0,832.0,-3136.0
9.855,15552.0,768.0,-3200.0
9.8575,15424.0,832.0,-3136.0
9.86,15296.0,896.0,-3072.0
9.8625,15168.0,1024.0,-3008.0
9.865,15040.0,1024.0,-2944.0
9.8675,14848.0,1024.0,-3008.0
9.87,14784.0,1088.0,-2944.0
9.8725,14720.0,1216.0,-2944.0
9.875,14592.0,1280.0,-2880.0
9.8775,14464.0,1344.0,-2816.0
9.88,14400.0,1344.0,-2816.0
9.8825,14272.0,1408.0,-2816.0
9.885,14272.0,1472.0,-2688.0
9.8875,14208.0,1472.0,-2688.0
9.89,14144.0,1472.0,-2560.0
9.8925,14080.0,1536.0,-2560.0
9.895,14016.0,1600.0,-2560.0
9.8975,13952.0,1600.0,-2432.0
9.9,13952.0,1600.0,-2304.0
9.9025,13888.0,1600.0,-2304.0
9.905,13824.0,1664.0,-2240.0
9.9075,13760.0,1664.0,-2240.0
9.91,13760.0,1728.0,-2176.0
9.9125,13824.0,1728.0,-2112.0
9.915,13760.0,1664.0,-2048.0
9.9175,13824.0,1728.0,-1984.0
9.92,13824.0,1728.0,-1856.0
9.9225,13824.0,1792.0,-1856.0
9.925,13760.0,1792.0,-1856.0
9.9275,13696.0,1792.0,-1856.0
9.93,13824.0,1792.0,-1664.0
9.9325,13952.0,1728.0,-1600.0
9.935,14016.0,1856.0,-1536.0
9.9375,14144.0,1920.0,-1344.0
9.94,14272.0,1984.0,-1152.0
9.9425,14336.0,1984.0,-1088.0
9.945,14336.0,1984.0,-1024.0
9.9475,14336.0,1920.0,-1024.0
9.95,14464.0,1984.0,-960.0
9.9525,14464.0,1984.0,-960.0
9.955,14464.0,1984.0,-1088.0
9.9575,14400.0,1984.0,-1088.0
9.96,14464.0,1920.0,-1152.0
9.9625,14528.0,1920.0,-1216.0
9.965,14784.0,1984.0,-1280.0
9.9675,14848.0,1856.0,-1344.0
9.97,14976.0,1856.0,-1472.0
9.9725,14848.0,1920.0,-1472.0
9.975,14720.0,1920.0,-1536.0
9.9775,14656.0,1920.0,-1600.0
9.98,14720.0,1920.0,-1728.0
9.9825,14848.0,1984.0,-1856.0
9.985,15040.0,1984.0,-1856.0
9.9875,14976.0,1920.0,-1856.0
9.99,14912.0,1920.0,-1920.0
9.9925,14912.0,1856.0,-1984.0
9.995,14848.0,1856.0,-1984.0
9.9975,14848.0,1920.0,-2048.0
10.0,14848.0,1920.0,-2112.0
10.0025,14912.0,1856.0,-2176.0
10.005,14912.0,1856.0,-2176.0
10.0075,14976.0,1792.0,-2112.0
10.01,14976.0,1792.0,-2176.0
10.0125,15104.0,1728.0,-2240.0
10.015,15104.0,1728.0,-2112.0
10.0175,15104.0,1664.0,-2176.0
10.02,15104.0,1600.0,-2240.0
10.0225,15040.0,1536.0,-2240.0
10.025,15104.0,1536.0,-2240.0
10.0275,15104.0,1536.0,-2304.0
10.03,15104.0,1536.0,-2304.0
10.0325,15104.0,1600.0,-2368.0
10.035,15104.0,1600.0,-2368.0
10.0375,15104.0,1728.0,-2368.0
10.04,15104.0,1664.0,-2432.0
10.0425,15104.0,1728.0,-2432.0
10.045,15040.0,1728.0,-2432.0
10.0475,15040.0,1728.0,-2432.0
10.05,14976.0,1856.0,-2432.0
10.0525,15104.0,1792.0,-2368.0
10.055,15104.0,1856.0,-2304.0
10.0575,15104.0,1792.0,-2240.0
10.06,15232.0,1792.0,-2112.0
10.0625,15360.0,1728.0,-2112.0
10.065,15232.0,1600.0,-2112.0
10.0675,15232.0,1600.0,-2112.0
10.07,15232.0,1600.0,-2048.0
10.0725,15296.0,1536.0,-1984.0
10.075,15296.0,1536.0,-1984.0
10.0775,15360.0,1536.0,-1984.0
10.08,15424.0,1600.0,-1984.0
10.0825,15424.0,1664.0,-1984.0
10.085,15424.0,1664.0,-1984.0
10.0875,15488.0,1728.0,-1984.0
10.09,15488.0,1792.0,-1984.0
10.0925,15488.0,1728.0,-1984.0
10.095,15488.0,1792.0,-2048.0
10.0975,15488.0,1792.0,-2112.0
10.1,15488.0,1792.0,-2176.0
10.1025,15488.0,1856.0,-2240.0
10.105,15488.0,1856.0,-2240.0
10.1075,15424.0,1920.0,-2304.0
10.11,15360.0,1920.0,-2304.0
10.1125,15360.0,1920.0,-2304.0
10.115,15296.0,1920.0,-2304.0
10.1175,15232.0,1920.0,-2304.0
10.12,15232.0,1920.0,-2304.0
10.1225,15296.0,1856.0,-2240.0
10.125,15232.0,1856.0,-2304.0
10.1275,15296.0,1856.0,-2368.0
10.13,15296.0,1856.0,-2368.0
10.1325,15232.0,1792.0,-2368.0
10.135,15232.0,1792.0,-2304.0
10.1375,15104.0,1792.0,-2432.0
10.14,15104.0,1856.0,-2432.0
10.1425,15104.0,1792.0,-2432.0
10.145,15168.0,1792.0,-2432.0
10.1475,15232.0,1728.0,-2432.0
10.15,15168.0,1664.0,-2432.0
10.1525,15232.0,1728.0,-2432.0
10.155,15232.0,1664.0,-2368.0
10.1575,15232.0,1792.0,-2368.0
10.16,15168.0,1792.0,-2304.0
10.1625,15296.0,1792.0,-2240.0
10.165,15296.0,1728.0,-2240.0
10.1675,15296.0,1728.0,-2176.0
10.17,15296.0,1664.0,-2176.0
10.1725,15296.0,1664.0,-2112.0
10.175,15360.0,1664.0,-2112.0
10.1775,15360.0,1600.0,-2112.0
10.18,15360.0,1536.0,-2112.0
10.1825,15360.0,1536.0,-2048.0
10.185,15360.0,1600.0,-2048.0
10.1875,15360.0,1600.0,-2048.0
10.19,15424.0,1600.0,-2048.0
10.1925,15360.0,1472.0,-2048.0
10.195,15360.0,1536.0,-2048.0
10.1975,15360.0,1536.0,-2112.0
10.2,15360.0,1600.0,-2048.0
10.2025,15360.0,1600.0,-2048.0
10.205,15360.0,1600.0,-2176.0
10.2075,15296.0,1600.0,-2176.0
10.21,15232.0,1792.0,-2240.0
10.2125,15232.0,1728.0,-2240.0
10.215,15168.0,1792.0,-2304.0
10.2175,15104.0,1792.0,-2304.0
10.22,15168.0,1792.0,-2304.0
10.2225,15232.0,1792.0,-2304.0
10.225,15232.0,1856.0,-2368.0
10.2275,15168.0,1856.0,-2368.0
10.23,15168.0,1792.0,-2368.0
10.2325,15104.0,1792.0,-2368.0
10.235,15168.0,1728.0,-2240.0
10.2375,15168.0,1792.0,-2304.0
10.24,15168.0,1728.0,-2304.0
10.2425,15168.0,1664.0,-2304.0
10.245,15104.0,1728.0,-2304.0
10.2475,15168.0,1728.0,-2368.0
10.25,15168.0,1728.0,-2368.0
10.2525,15168.0,1728.0,-2432.0
10.255,15232.0,1792.0,-2432.0
10.2575,15168.0,1792.0,-2304.0
10.26,15168.0,1792.0,-2240.0
10.2625,15232.0,1792.0,-2240.0
10.265,15168.0,1792.0,-2304.0
10.2675,15168.0,1792.0,-2304.0
10.27,15232.0,1856.0,-2368.0
10.2725,15168.0,1856.0,-2304.0
10.275,15232.0,1920.0,-2304.0
10.2775,15232.0,1920.0,-2304.0
10.28,15296.0,1856.0,-2304.0
10.2825,15360.0,1856.0,-2304.0
10.285,15360.0,1856.0,-2368.0
10.2875,15360.0,1792.0,-2304.0
10.29,15360.0,1856.0,-2304.0
10.2925,15296.0,1856.0,-2240.0
10.295,15296.0,1792.0,-2240.0
10.2975,15360.0,1728.0,-2304.0
10.3,15360.0,1728.0,-2304.0
10.3025,15360.0,1792.0,-2368.0
10.305,15360.0,1792.0,-2368.0
10.3075,15296.0,1792.0,-2304.0
10.31,15488.0,1728.0,-2240.0
10.3125,15488.0,1728.0,-2304.0
10.315,15488.0,1728.0,-2240.0
10.3175,15424.0,1792.0,-2304.0
10.32,15488.0,1792.0,-2304.0
10.3225,15488.0,1792.0,-2304.0
10.325,15488.0,1792.0,-2240.0
10.3275,15552.0,1728.0,-2368.0
10.33,15616.0,1728.0,-2368.0
10.3325,15552.0,1664.0,-2368.0
10.335,15552.0,1664.0,-2368.0
10.3375,15488.0,1664.0,-2432.0
10.34,15424.0,1664.0,-2496.0
10.3425,15488.0,1664.0,-2496.0
10.345,15488.0,1664.0,-2496.0
10.3475,15424.0,1728.0,-2432.0
10.35,15424.0,1664.0,-2368.0
10.3525,15360.0,1728.0,-2432.0
10.355,15360.0,1728.0,-2432.0
10.3575,15424.0,1664.0,-2496.0
10.36,15424.0,1664.0,-2496.0
10.3625,15424.0,1728.0,-2432.0
10.365,15424.0,1792.0,-2368.0
10.3675,15488.0,1792.0,-2496.0
10.37,15488.0,1792.0,-2496.0
10.3725,15552.0,1728.0,-2496.0
10.375,15488.0,1728.0,-2496.0
10.3775,15424.0,1728.0,-2496.0
10.38,15424.0,1664.0,-2496.0
10.3825,15552.0,1664.0,-2496.0
10.385,15552.0,1664.0,-2368.0
10.3875,15488.0,1728.0,-2368.0
10.39,15488.0,1728.0,-2368.0
10.3925,15488.0,1728.0,-2304.0
10.395,15552.0,1792.0,-2304.0
10.3975,15488.0,1728.0,-2432.0
10.4,15488.0,1792.0,-2368.0
10.4025,15424.0,1792.0,-2368.0
10.405,15552.0,1792.0,-2368.0
10.4075,15488.0,1792.0,-2368.0
10.41,15488.0,1728.0,-2304.0
10.4125,15424.0,1728.0,-2304.0
10.415,15424.0,1728.0,-2368.0
10.4175,15424.0,1664.0,-2368.0
10.42,15424.0,1728.0,-2368.0
10.4225,15424.0,1728.0,-2368.0
10.425,15488.0,1792.0,-2368.0
10.4275,15488.0,1728.0,-2368.0
10.43,15424.0,1664.0,-2304.0
10.4325,15360.0,1664.0,-2304.0
10.435,15296.0,1664.0,-2240.0
10.4375,15296.0,1728.0,-2304.0
