time_stamp,acc_x,acc_y,acc_z
0.0,14912.0,2496.0,-1472.0
0.0025,14912.0,2496.0,-1408.0
0.005,14848.0,2496.0,-1472.0
0.0075,14784.0,2496.0,-1408.0
0.01,14784.0,2496.0,-1408.0
0.0125,14848.0,2496.0,-1408.0
0.015,14848.0,2432.0,-1408.0
0.0175,14784.0,2496.0,-1408.0
0.02,14720.0,2496.0,-1344.0
0.0225,14784.0,2496.0,-1344.0
0.025,14720.0,2496.0,-1280.0
0.0275,14720.0,2496.0,-1216.0
0.03,14720.0,2560.0,-1280.0
0.0325,14720.0,2560.0,-1216.0
0.035,14720.0,2688.0,-1216.0
0.0375,14720.0,2688.0,-1216.0
0.04,14656.0,2688.0,-1280.0
0.0425,14656.0,2688.0,-1216.0
0.045,14592.0,2688.0,-1216.0
0.0475,14656.0,2688.0,-1216.0
0.05,14592.0,2688.0,-1216.0
0.0525,14592.0,2688.0,-1216.0
0.055,14592.0,2688.0,-1216.0
0.0575,14592.0,2688.0,-1216.0
0.06,14656.0,2752.0,-1216.0
0.0625,14720.0,2752.0,-1280.0
0.065,14720.0,2752.0,-1280.0
0.0675,14784.0,2752.0,-1344.0
0.07,14784.0,2816.0,-1344.0
0.0725,14784.0,2880.0,-1408.0
0.075,14784.0,2880.0,-1472.0
0.0775,14848.0,2880.0,-1536.0
0.08,14848.0,2880.0,-1408.0
0.0825,14848.0,2880.0,-1344.0
0.085,14912.0,2880.0,-1472.0
0.0875,15040.0,2880.0,-1280.0
0.09,15040.0,2880.0,-1344.0
0.0925,14976.0,2880.0,-1280.0
0.095,15040.0,2944.0,-1280.0
0.0975,15104.0,3008.0,-1280.0
0.1,15168.0,3008.0,-1280.0
0.1025,15168.0,3008.0,-1280.0
0.105,15168.0,3072.0,-1344.0
0.1075,15168.0,3072.0,-1344.0
0.11,15168.0,3072.0,-1472.0
0.1125,15232.0,3072.0,-1344.0
0.115,15232.0,3072.0,-1408.0
0.1175,15232.0,3072.0,-1472.0
0.12,15232.0,3072.0,-1472.0
0.1225,15232.0,3008.0,-1536.0
0.125,15168.0,3072.0,-1536.0
0.1275,15168.0,3008.0,-1536.0
0.13,15168.0,3008.0,-1600.0
0.1325,15168.0,3008.0,-1664.0
0.135,15104.0,3072.0,-1664.0
0.1375,15168.0,3072.0,-1600.0
0.14,15104.0,3072.0,-1600.0
0.1425,15104.0,3008.0,-1664.0
0.145,15104.0,3008.0,-1600.0
0.1475,15104.0,3072.0,-1664.0
0.15,15104.0,3008.0,-1728.0
0.1525,15104.0,3008.0,-1664.0
0.155,15104.0,3072.0,-1664.0
0.1575,15040.0,3072.0,-1664.0
0.16,14976.0,3136.0,-1728.0
0.1625,14912.0,3072.0,-1792.0
0.165,14912.0,3072.0,-1792.0
0.1675,14912.0,3136.0,-1792.0
0.17,14912.0,3072.0,-1856.0
0.1725,14912.0,3072.0,-1792.0
0.175,14848.0,3008.0,-1856.0
0.1775,14848.0,3008.0,-1856.0
0.18,14848.0,3008.0,-1856.0
0.1825,14848.0,3008.0,-1856.0
0.185,14784.0,3008.0,-1792.0
0.1875,14784.0,3008.0,-1792.0
0.19,14848.0,3008.0,-1856.0
0.1925,14848.0,3008.0,-1920.0
0.195,14848.0,2944.0,-1792.0
0.1975,14848.0,2944.0,-1856.0
0.2,14912.0,3008.0,-1920.0
0.2025,14912.0,3008.0,-1856.0
0.205,14848.0,3072.0,-1920.0
0.2075,14848.0,3008.0,-1792.0
0.21,14784.0,3008.0,-1856.0
0.2125,14848.0,3072.0,-1920.0
0.215,14912.0,3072.0,-1920.0
0.2175,14912.0,3008.0,-1984.0
0.22,14912.0,3008.0,-1984.0
0.2225,14912.0,3008.0,-1984.0
0.225,14912.0,3072.0,-1984.0
0.2275,14912.0,3136.0,-1920.0
0.23,14976.0,3136.0,-1856.0
0.2325,14976.0,3136.0,-1920.0
0.235,14976.0,3200.0,-1920.0
0.2375,14976.0,3200.0,-1920.0
0.24,14912.0,3136.0,-1856.0
0.2425,14912.0,3136.0,-1856.0
0.245,14976.0,3200.0,-1984.0
0.2475,14912.0,3136.0,-1920.0
0.25,14912.0,3200.0,-1920.0
0.2525,14912.0,3136.0,-1984.0
0.255,14848.0,3136.0,-1920.0
0.2575,14848.0,3136.0,-1984.0
0.26,14784.0,3072.0,-1984.0
0.2625,14720.0,3136.0,-1920.0
0.265,14784.0,3136.0,-1920.0
0.2675,14784.0,3136.0,-1984.0
0.27,14784.0,3200.0,-2048.0
0.2725,14784.0,3200.0,-2048.0
0.275,14784.0,3136.0,-2048.0
0.2775,14720.0,3136.0,-2048.0
0.28,14720.0,3136.0,-2048.0
0.2825,14784.0,3200.0,-2048.0
0.285,14720.0,3264.0,-2048.0
0.2875,14656.0,3200.0,-2048.0
0.29,14656.0,3200.0,-2048.0
0.2925,14784.0,3200.0,-2048.0
0.295,14784.0,3136.0,-2048.0
0.2975,14720.0,3200.0,-1984.0
0.3,14720.0,3136.0,-2112.0
0.3025,14784.0,3136.0,-2048.0
0.305,14784.0,3072.0,-2112.0
0.3075,14848.0,3072.0,-2176.0
0.31,14848.0,3136.0,-2176.0
0.3125,14912.0,3072.0,-2176.0
0.315,14976.0,3008.0,-2176.0
0.3175,15040.0,3008.0,-2176.0
0.32,15104.0,3072.0,-2112.0
0.3225,15168.0,3008.0,-2048.0
0.325,15168.0,3072.0,-2048.0
0.3275,15168.0,3072.0,-2048.0
0.33,15232.0,3072.0,-2048.0
0.3325,15360.0,3136.0,-1984.0
0.335,15296.0,3136.0,-2048.0
0.3375,15360.0,3136.0,-2048.0
0.34,15424.0,3200.0,-2112.0
0.3425,15360.0,3200.0,-2048.0
0.345,15424.0,3264.0,-2112.0
0.3475,15488.0,3200.0,-2112.0
0.35,15488.0,3200.0,-2048.0
0.3525,15488.0,3200.0,-2048.0
0.355,15552.0,3264.0,-2112.0
0.3575,15552.0,3200.0,-2112.0
0.36,15552.0,3136.0,-2048.0
0.3625,15552.0,3264.0,-2048.0
0.365,15552.0,3264.0,-1984.0
0.3675,15552.0,3264.0,-1984.0
0.37,15488.0,3200.0,-1920.0
0.3725,15488.0,3264.0,-1984.0
0.375,15488.0,3328.0,-1984.0
0.3775,15488.0,3328.0,-1856.0
0.38,15488.0,3328.0,-1856.0
0.3825,15488.0,3328.0,-1856.0
0.385,15488.0,3328.0,-1856.0
0.3875,15424.0,3328.0,-1920.0
0.39,15488.0,3328.0,-1856.0
0.3925,15424.0,3264.0,-1856.0
0.395,15424.0,3200.0,-1856.0
0.3975,15424.0,3264.0,-1856.0
0.4,15360.0,3264.0,-1920.0
0.4025,15360.0,3264.0,-1856.0
0.405,15360.0,3264.0,-1856.0
0.4075,15360.0,3264.0,-1792.0
0.41,15360.0,3200.0,-1792.0
0.4125,15424.0,3200.0,-1856.0
0.415,15360.0,3200.0,-1856.0
0.4175,15360.0,3200.0,-1920.0
0.42,15424.0,3200.0,-1856.0
0.4225,15488.0,3072.0,-1920.0
0.425,15488.0,3072.0,-1920.0
0.4275,15488.0,3072.0,-1920.0
0.43,15488.0,3072.0,-1792.0
0.4325,15488.0,3136.0,-1728.0
0.435,15552.0,3072.0,-1728.0
0.4375,15552.0,3008.0,-1728.0
0.44,15552.0,3008.0,-1856.0
0.4425,15616.0,2944.0,-1728.0
0.445,15552.0,3008.0,-1728.0
0.4475,15616.0,3008.0,-1728.0
0.45,15616.0,3008.0,-1728.0
0.4525,15616.0,2944.0,-1664.0
0.455,15616.0,2944.0,-1728.0
0.4575,15616.0,2944.0,-1664.0
0.46,15616.0,2944.0,-1664.0
0.4625,15616.0,2944.0,-1664.0
0.465,15616.0,2880.0,-1600.0
0.4675,15680.0,2880.0,-1600.0
0.47,15616.0,2880.0,-1600.0
0.4725,15616.0,2880.0,-1536.0
0.475,15616.0,2944.0,-1536.0
0.4775,15680.0,3008.0,-1536.0
0.48,15680.0,2944.0,-1600.0
0.4825,15680.0,2880.0,-1536.0
0.485,15680.0,2944.0,-1472.0
0.4875,15616.0,3008.0,-1472.0
0.49,15616.0,3008.0,-1536.0
0.4925,15552.0,2944.0,-1536.0
0.495,15488.0,2944.0,-1536.0
0.4975,15488.0,2816.0,-1536.0
0.5,15488.0,2816.0,-1536.0
0.5025,15424.0,2816.0,-1536.0
0.505,15424.0,2816.0,-1536.0
0.5075,15424.0,2752.0,-1536.0
0.51,15424.0,2816.0,-1536.0
0.5125,15360.0,2752.0,-1536.0
0.515,15360.0,2752.0,-1536.0
0.5175,15424.0,2688.0,-1600.0
0.52,15424.0,2752.0,-1536.0
0.5225,15360.0,2688.0,-1536.0
0.525,15360.0,2752.0,-1472.0
0.5275,15360.0,2752.0,-1600.0
0.53,15360.0,2688.0,-1600.0
0.5325,15360.0,2688.0,-1536.0
0.535,15360.0,2688.0,-1536.0
0.5375,15296.0,2624.0,-1472.0
0.54,15360.0,2688.0,-1472.0
0.5425,15296.0,2624.0,-1408.0
0.545,15296.0,2624.0,-1472.0
0.5475,15360.0,2624.0,-1472.0
0.55,15360.0,2688.0,-1472.0
0.5525,15360.0,2688.0,-1472.0
0.555,15296.0,2624.0,-1472.0
0.5575,15296.0,2624.0,-1472.0
0.56,15296.0,2624.0,-1408.0
0.5625,15296.0,2560.0,-1408.0
0.565,15296.0,2560.0,-1408.0
0.5675,15296.0,2560.0,-1408.0
0.57,15296.0,2496.0,-1344.0
0.5725,15296.0,2496.0,-1344.0
0.575,15360.0,2560.0,-1344.0
0.5775,15360.0,2560.0,-1344.0
0.58,15232.0,2560.0,-1216.0
0.5825,15296.0,2624.0,-1280.0
0.585,15296.0,2560.0,-1280.0
0.5875,15232.0,2560.0,-1344.0
0.59,15232.0,2624.0,-1344.0
0.5925,15232.0,2560.0,-1344.0
0.595,15296.0,2624.0,-1216.0
0.5975,15296.0,2624.0,-1280.0
0.6,15232.0,2688.0,-1216.0
0.6025,15232.0,2688.0,-1280.0
0.605,15232.0,2688.0,-1344.0
0.6075,15232.0,2688.0,-1408.0
0.61,15232.0,2624.0,-1408.0
0.6125,15232.0,2560.0,-1408.0
0.615,15232.0,2624.0,-1344.0
0.6175,15232.0,2624.0,-1216.0
0.62,15168.0,2624.0,-1280.0
0.6225,15168.0,2560.0,-1280.0
0.625,15168.0,2560.0,-1344.0
0.6275,15104.0,2496.0,-1280.0
0.63,15104.0,2560.0,-1344.0
0.6325,15104.0,2496.0,-1280.0
0.635,15104.0,2432.0,-1344.0
0.6375,15104.0,2368.0,-1408.0
0.64,15168.0,2432.0,-1344.0
0.6425,15104.0,2432.0,-1344.0
0.645,15104.0,2368.0,-1344.0
0.6475,15104.0,2368.0,-1408.0
0.65,15104.0,2432.0,-1408.0
0.6525,15040.0,2432.0,-1408.0
0.655,15040.0,2432.0,-1408.0
0.6575,15104.0,2496.0,-1408.0
0.66,15040.0,2496.0,-1472.0
0.6625,15104.0,2432.0,-1408.0
0.665,15040.0,2432.0,-1472.0
0.6675,14976.0,2432.0,-1472.0
0.67,15040.0,2432.0,-1472.0
0.6725,14976.0,2368.0,-1536.0
0.675,14976.0,2432.0,-1536.0
0.6775,14912.0,2432.0,-1536.0
0.68,14912.0,2432.0,-1600.0
0.6825,14912.0,2432.0,-1536.0
0.685,14848.0,2368.0,-1536.0
0.6875,14848.0,2368.0,-1472.0
0.69,14912.0,2304.0,-1408.0
0.6925,14848.0,2368.0,-1472.0
0.695,14848.0,2368.0,-1408.0
0.6975,14848.0,2304.0,-1408.0
0.7,14784.0,2304.0,-1472.0
0.7025,14720.0,2304.0,-1472.0
0.705,14784.0,2304.0,-1536.0
0.7075,14784.0,2304.0,-1600.0
0.71,14784.0,2368.0,-1536.0
0.7125,14784.0,2368.0,-1472.0
0.715,14720.0,2304.0,-1536.0
0.7175,14720.0,2432.0,-1472.0
0.72,14720.0,2560.0,-1472.0
0.7225,14720.0,2560.0,-1472.0
0.725,14784.0,2560.0,-1536.0
0.7275,14784.0,2560.0,-1600.0
0.73,14720.0,2560.0,-1600.0
0.7325,14720.0,2624.0,-1664.0
0.735,14720.0,2624.0,-1664.0
0.7375,14720.0,2624.0,-1664.0
0.74,14656.0,2624.0,-1728.0
0.7425,14656.0,2560.0,-1728.0
0.745,14656.0,2624.0,-1728.0
0.7475,14656.0,2624.0,-1792.0
0.75,14656.0,2624.0,-1792.0
0.7525,14656.0,2624.0,-1792.0
0.755,14656.0,2624.0,-1792.0
0.7575,14656.0,2624.0,-1792.0
0.76,14720.0,2688.0,-1856.0
0.7625,14720.0,2688.0,-1856.0
0.765,14784.0,2752.0,-1856.0
0.7675,14784.0,2816.0,-1792.0
0.77,14784.0,2816.0,-1856.0
0.7725,14784.0,2816.0,-1856.0
0.775,14848.0,2816.0,-1856.0
0.7775,14784.0,2816.0,-1920.0
0.78,14848.0,2880.0,-1920.0
0.7825,14848.0,2944.0,-1984.0
0.785,14848.0,2880.0,-1984.0
0.7875,14848.0,2944.0,-1920.0
0.79,14912.0,2944.0,-1984.0
0.7925,14784.0,2880.0,-1984.0
0.795,14848.0,2944.0,-1984.0
0.7975,14912.0,2944.0,-1984.0
0.8,15040.0,3008.0,-2112.0
0.8025,15040.0,2944.0,-2112.0
0.805,15040.0,2944.0,-2112.0
0.8075,15040.0,3008.0,-2048.0
0.81,15104.0,3008.0,-2048.0
0.8125,15104.0,3008.0,-2048.0
0.815,15104.0,3008.0,-2048.0
0.8175,15168.0,3072.0,-2112.0
0.82,15168.0,3072.0,-2112.0
0.8225,15232.0,3072.0,-2112.0
0.825,15168.0,3072.0,-2176.0
0.8275,15232.0,3136.0,-2176.0
0.83,15232.0,3136.0,-2176.0
0.8325,15104.0,3136.0,-2176.0
0.835,15104.0,3136.0,-2112.0
0.8375,15104.0,3200.0,-2176.0
0.84,15104.0,3200.0,-2176.0
0.8425,15168.0,3200.0,-2176.0
0.845,15168.0,3200.0,-2176.0
0.8475,15232.0,3200.0,-2112.0
0.85,15168.0,3200.0,-2112.0
0.8525,15232.0,3200.0,-2176.0
0.855,15168.0,3264.0,-2176.0
0.8575,15168.0,3264.0,-2112.0
0.86,15232.0,3200.0,-2112.0
0.8625,15168.0,3200.0,-1984.0
0.865,15232.0,3264.0,-2048.0
0.8675,15168.0,3264.0,-2048.0
0.87,15168.0,3264.0,-1984.0
0.8725,15232.0,3328.0,-1984.0
0.875,15232.0,3328.0,-1984.0
0.8775,15296.0,3328.0,-2048.0
0.88,15232.0,3328.0,-2048.0
0.8825,15232.0,3392.0,-2048.0
0.885,15232.0,3392.0,-1984.0
0.8875,15232.0,3328.0,-1920.0
0.89,15168.0,3328.0,-1920.0
0.8925,15168.0,3392.0,-1984.0
0.895,15168.0,3392.0,-1984.0
0.8975,15168.0,3392.0,-1984.0
0.9,15168.0,3328.0,-2048.0
0.9025,15168.0,3392.0,-1984.0
0.905,15168.0,3392.0,-1984.0
0.9075,15168.0,3392.0,-1984.0
0.91,15168.0,3456.0,-1984.0
0.9125,15168.0,3456.0,-1920.0
0.915,15168.0,3456.0,-1920.0
0.9175,15168.0,3392.0,-1984.0
0.92,15104.0,3392.0,-1984.0
0.9225,15168.0,3456.0,-1984.0
0.925,15168.0,3456.0,-2048.0
0.9275,15168.0,3456.0,-2112.0
0.93,15168.0,3456.0,-2112.0
0.9325,15232.0,3392.0,-2048.0
0.935,15168.0,3392.0,-1920.0
0.9375,15232.0,3392.0,-1984.0
0.94,15232.0,3392.0,-1984.0
0.9425,15168.0,3392.0,-1984.0
0.945,15168.0,3456.0,-1920.0
0.9475,15232.0,3392.0,-1856.0
0.95,15232.0,3392.0,-1856.0
0.9525,15168.0,3456.0,-1920.0
0.955,15168.0,3392.0,-1856.0
0.9575,15168.0,3392.0,-1792.0
0.96,15168.0,3456.0,-1920.0
0.9625,15232.0,3520.0,-1920.0
0.965,15168.0,3520.0,-1984.0
0.9675,15168.0,3520.0,-1920.0
0.97,15168.0,3456.0,-1920.0
0.9725,15168.0,3520.0,-1984.0
0.975,15168.0,3456.0,-1984.0
0.9775,15168.0,3456.0,-1984.0
0.98,15168.0,3456.0,-1984.0
0.9825,15232.0,3456.0,-1984.0
0.985,15232.0,3392.0,-2048.0
0.9875,15296.0,3264.0,-2048.0
0.99,15296.0,3328.0,-2048.0
0.9925,15360.0,3328.0,-2048.0
0.995,15360.0,3328.0,-2048.0
0.9975,15360.0,3264.0,-2048.0
1.0,15424.0,3264.0,-1984.0
1.0025,15424.0,3328.0,-2048.0
1.005,15360.0,3328.0,-1984.0
1.0075,15360.0,3328.0,-1984.0
1.01,15360.0,3264.0,-2048.0
1.0125,15360.0,3264.0,-2048.0
1.015,15424.0,3264.0,-2048.0
1.0175,15296.0,3264.0,-1984.0
1.02,15424.0,3264.0,-1984.0
1.0225,15360.0,3200.0,-1984.0
1.025,15424.0,3200.0,-1920.0
1.0275,15360.0,3200.0,-1984.0
1.03,15296.0,3200.0,-1984.0
1.0325,15360.0,3264.0,-1920.0
1.035,15360.0,3200.0,-1984.0
1.0375,15296.0,3200.0,-1984.0
1.04,15168.0,3200.0,-1920.0
1.0425,15104.0,3200.0,-1984.0
1.045,15168.0,3136.0,-1920.0
1.0475,15168.0,3136.0,-1984.0
1.05,15232.0,3072.0,-1920.0
1.0525,15232.0,3136.0,-1984.0
1.055,15168.0,3072.0,-1984.0
1.0575,15168.0,3008.0,-1984.0
1.06,15232.0,3008.0,-2048.0
1.0625,15168.0,3008.0,-1984.0
1.065,15168.0,3008.0,-1920.0
1.0675,15232.0,3072.0,-1920.0
1.07,15168.0,3072.0,-1920.0
1.0725,15168.0,3072.0,-1984.0
1.075,15104.0,3072.0,-1920.0
1.0775,15168.0,3008.0,-1856.0
1.08,15104.0,2944.0,-1856.0
1.0825,15040.0,3008.0,-1792.0
1.085,15040.0,3008.0,-1792.0
1.0875,15040.0,3072.0,-1856.0
1.09,15104.0,3008.0,-1856.0
1.0925,15104.0,3008.0,-1856.0
1.095,15040.0,3008.0,-1856.0
1.0975,15104.0,3008.0,-1792.0
1.1,15040.0,3008.0,-1792.0
1.1025,15104.0,3008.0,-1728.0
1.105,15104.0,3072.0,-1728.0
1.1075,15040.0,3072.0,-1728.0
1.11,15104.0,3136.0,-1792.0
1.1125,15104.0,3072.0,-1856.0
1.115,15104.0,3008.0,-1792.0
1.1175,15104.0,3072.0,-1792.0
1.12,15104.0,3008.0,-1728.0
1.1225,15040.0,3008.0,-1728.0
1.125,15040.0,3008.0,-1664.0
1.1275,15040.0,3072.0,-1728.0
1.13,15104.0,3008.0,-1664.0
1.1325,15104.0,3008.0,-1664.0
1.135,15040.0,3008.0,-1728.0
1.1375,15104.0,3072.0,-1664.0
1.14,15040.0,3072.0,-1600.0
1.1425,15104.0,3136.0,-1536.0
1.145,15104.0,3136.0,-1600.0
1.1475,15168.0,3072.0,-1536.0
1.15,15168.0,3072.0,-1536.0
1.1525,15168.0,3136.0,-1536.0
1.155,15104.0,3136.0,-1472.0
1.1575,15168.0,3136.0,-1472.0
1.16,15104.0,3200.0,-1408.0
1.1625,15104.0,3200.0,-1408.0
1.165,15040.0,3136.0,-1408.0
1.1675,15040.0,3200.0,-1472.0
1.17,15040.0,3136.0,-1536.0
1.1725,15040.0,3136.0,-1344.0
1.175,15040.0,3072.0,-1472.0
1.1775,15040.0,3072.0,-1536.0
1.18,15040.0,3072.0,-1536.0
1.1825,15040.0,3136.0,-1536.0
1.185,15104.0,3136.0,-1408.0
1.1875,15104.0,3072.0,-1472.0
1.19,15040.0,3072.0,-1472.0
1.1925,15104.0,3072.0,-1472.0
1.195,15104.0,3072.0,-1472.0
1.1975,15104.0,3136.0,-1408.0
1.2,15104.0,3072.0,-1472.0
1.2025,15104.0,3072.0,-1408.0
1.205,15040.0,3136.0,-1344.0
1.2075,15040.0,3136.0,-1408.0
1.21,14976.0,3072.0,-1408.0
1.2125,15040.0,3136.0,-1344.0
1.215,15040.0,3072.0,-1344.0
1.2175,15040.0,3136.0,-1408.0
1.22,14976.0,3136.0,-1344.0
1.2225,14976.0,3136.0,-1280.0
1.225,15040.0,3136.0,-1344.0
1.2275,15040.0,3072.0,-1344.0
1.23,14976.0,3072.0,-1344.0
1.2325,14976.0,3072.0,-1408.0
1.235,14976.0,3136.0,-1408.0
1.2375,14976.0,3136.0,-1344.0
1.24,15040.0,3008.0,-1408.0
1.2425,14976.0,3072.0,-1344.0
1.245,14976.0,3072.0,-1344.0
1.2475,15040.0,3008.0,-1344.0
1.25,15040.0,3072.0,-1344.0
1.2525,14912.0,3072.0,-1408.0
1.255,14912.0,3008.0,-1408.0
1.2575,14976.0,3008.0,-1472.0
1.26,15040.0,3008.0,-1408.0
1.2625,14976.0,3008.0,-1408.0
1.265,14976.0,3008.0,-1408.0
1.2675,14912.0,3008.0,-1344.0
1.27,14976.0,3072.0,-1344.0
1.2725,14976.0,3072.0,-1344.0
1.275,14912.0,3072.0,-1280.0
1.2775,14912.0,3072.0,-1280.0
1.28,14912.0,3008.0,-1408.0
1.2825,14976.0,3008.0,-1408.0
1.285,14976.0,3072.0,-1408.0
1.2875,14976.0,3008.0,-1408.0
1.29,14976.0,3008.0,-1536.0
1.2925,14976.0,2944.0,-1472.0
1.295,14976.0,2944.0,-1472.0
1.2975,14976.0,2944.0,-1408.0
1.3,14912.0,3008.0,-1536.0
1.3025,14912.0,2944.0,-1536.0
1.305,14976.0,2880.0,-1536.0
1.3075,14976.0,2944.0,-1472.0
1.31,14976.0,2944.0,-1536.0
1.3125,14976.0,3008.0,-1472.0
1.315,14976.0,3072.0,-1472.0
1.3175,14976.0,3072.0,-1472.0
1.32,14976.0,3072.0,-1408.0
1.3225,14976.0,3008.0,-1472.0
1.325,15040.0,3008.0,-1472.0
1.3275,15040.0,3072.0,-1408.0
1.33,15040.0,3072.0,-1472.0
1.3325,14976.0,3072.0,-1408.0
1.335,15040.0,3008.0,-1472.0
1.3375,15040.0,3008.0,-1472.0
1.34,15104.0,3008.0,-1472.0
1.3425,15104.0,3008.0,-1472.0
1.345,15104.0,3008.0,-1472.0
1.3475,15040.0,2944.0,-1472.0
1.35,15040.0,3072.0,-1408.0
1.3525,15040.0,3008.0,-1344.0
1.355,15104.0,3008.0,-1408.0
1.3575,15104.0,3008.0,-1408.0
1.36,15104.0,3072.0,-1408.0
1.3625,15104.0,3072.0,-1408.0
1.365,15104.0,3072.0,-1408.0
1.3675,15040.0,3072.0,-1408.0
1.37,15104.0,3072.0,-1408.0
1.3725,15104.0,3072.0,-1472.0
1.375,15040.0,3072.0,-1472.0
1.3775,15040.0,3072.0,-1408.0
1.38,15040.0,3072.0,-1408.0
1.3825,15040.0,3072.0,-1408.0
1.385,14976.0,3072.0,-1472.0
1.3875,14976.0,3136.0,-1472.0
1.39,14976.0,3136.0,-1472.0
1.3925,15040.0,3072.0,-1472.0
1.395,15040.0,3072.0,-1472.0
1.3975,15040.0,3136.0,-1472.0
1.4,15040.0,3136.0,-1472.0
1.4025,15040.0,3136.0,-1408.0
1.405,15040.0,3136.0,-1344.0
1.4075,15040.0,3136.0,-1408.0
1.41,15040.0,3072.0,-1472.0
1.4125,15040.0,3136.0,-1472.0
1.415,15040.0,3072.0,-1472.0
1.4175,15040.0,3072.0,-1408.0
1.42,15040.0,3136.0,-1408.0
1.4225,15040.0,3136.0,-1408.0
1.425,15040.0,3072.0,-1408.0
1.4275,15040.0,3136.0,-1408.0
1.43,15040.0,3200.0,-1408.0
1.4325,15040.0,3136.0,-1408.0
1.435,15040.0,3200.0,-1408.0
1.4375,15040.0,3200.0,-1472.0
1.44,15104.0,3200.0,-1408.0
1.4425,15104.0,3200.0,-1408.0
1.445,15168.0,3200.0,-1408.0
1.4475,15168.0,3200.0,-1472.0
1.45,15168.0,3200.0,-1536.0
1.4525,15168.0,3200.0,-1536.0
1.455,15104.0,3136.0,-1600.0
1.4575,15168.0,3200.0,-1472.0
1.46,15168.0,3200.0,-1472.0
1.4625,15232.0,3200.0,-1472.0
1.465,15232.0,3200.0,-1472.0
1.4675,15232.0,3200.0,-1472.0
1.47,15232.0,3200.0,-1472.0
1.4725,15232.0,3200.0,-1472.0
1.475,15232.0,3264.0,-1472.0
1.4775,15232.0,3200.0,-1472.0
1.48,15232.0,3200.0,-1472.0
1.4825,15232.0,3200.0,-1472.0
1.485,15168.0,3200.0,-1536.0
1.4875,15232.0,3200.0,-1536.0
1.49,15232.0,3200.0,-1536.0
1.4925,15232.0,3200.0,-1536.0
1.495,15296.0,3200.0,-1600.0
1.4975,15296.0,3264.0,-1536.0
1.5,15296.0,3200.0,-1600.0
1.5025,15296.0,3200.0,-1600.0
1.505,15296.0,3136.0,-1600.0
1.5075,15360.0,3136.0,-1600.0
1.51,15360.0,3136.0,-1664.0
1.5125,15360.0,3200.0,-1600.0
1.515,15360.0,3200.0,-1664.0
1.5175,15424.0,3200.0,-1664.0
1.52,15424.0,3200.0,-1664.0
1.5225,15296.0,3200.0,-1664.0
1.525,15296.0,3200.0,-1600.0
1.5275,15296.0,3200.0,-1600.0
1.53,15360.0,3136.0,-1600.0
1.5325,15360.0,3136.0,-1600.0
1.535,15360.0,3200.0,-1600.0
1.5375,15360.0,3200.0,-1600.0
1.54,15296.0,3136.0,-1536.0
1.5425,15296.0,3200.0,-1536.0
1.545,15360.0,3200.0,-1600.0
1.5475,15360.0,3200.0,-1600.0
1.55,15296.0,3200.0,-1536.0
1.5525,15296.0,3136.0,-1600.0
1.555,15360.0,3136.0,-1600.0
1.5575,15296.0,3136.0,-1536.0
1.56,15360.0,3200.0,-1536.0
1.5625,15296.0,3136.0,-1536.0
1.565,15232.0,3136.0,-1536.0
1.5675,15232.0,3200.0,-1472.0
1.57,15232.0,3200.0,-1536.0
1.5725,15232.0,3136.0,-1536.0
1.575,15232.0,3072.0,-1600.0
1.5775,15232.0,3136.0,-1600.0
1.58,15104.0,3136.0,-1600.0
1.5825,15104.0,3200.0,-1536.0
1.585,15104.0,3136.0,-1472.0
1.5875,15104.0,3136.0,-1472.0
1.59,15040.0,3136.0,-1600.0
1.5925,15040.0,3072.0,-1536.0
1.595,15040.0,3072.0,-1536.0
1.5975,14976.0,3072.0,-1472.0
1.6,14976.0,3072.0,-1536.0
1.6025,14976.0,3072.0,-1536.0
1.605,15040.0,3008.0,-1472.0
1.6075,14976.0,3008.0,-1472.0
1.61,14976.0,3008.0,-1408.0
1.6125,14976.0,3008.0,-1472.0
1.615,14976.0,2944.0,-1408.0
1.6175,15040.0,2944.0,-1472.0
1.62,14976.0,2944.0,-1472.0
1.6225,15040.0,2816.0,-1408.0
1.625,15040.0,2944.0,-1344.0
1.6275,15040.0,2944.0,-1344.0
1.63,15040.0,2944.0,-1408.0
1.6325,15040.0,3008.0,-1408.0
1.635,15040.0,3008.0,-1408.0
1.6375,15040.0,3008.0,-1344.0
1.64,15040.0,3008.0,-1344.0
1.6425,15040.0,2944.0,-1344.0
1.645,15040.0,2944.0,-1344.0
1.6475,15104.0,2944.0,-1408.0
1.65,15104.0,2944.0,-1408.0
1.6525,15104.0,2880.0,-1408.0
1.655,15104.0,2944.0,-1472.0
1.6575,15104.0,2880.0,-1472.0
1.66,15168.0,2880.0,-1408.0
1.6625,15168.0,2880.0,-1472.0
1.665,15104.0,2880.0,-1472.0
1.6675,15104.0,2880.0,-1408.0
1.67,15168.0,2880.0,-1408.0
1.6725,15168.0,2816.0,-1344.0
1.675,15104.0,2880.0,-1280.0
1.6775,15104.0,2880.0,-1344.0
1.68,15104.0,2880.0,-1344.0
1.6825,15168.0,2880.0,-1280.0
1.685,15168.0,2880.0,-1280.0
1.6875,15168.0,2816.0,-1344.0
1.69,15104.0,2880.0,-1280.0
1.6925,15104.0,2944.0,-1280.0
1.695,15040.0,2944.0,-1280.0
1.6975,15040.0,2944.0,-1280.0
1.7,14976.0,2944.0,-1344.0
1.7025,15040.0,2944.0,-1280.0
1.705,14976.0,2944.0,-1280.0
1.7075,15040.0,2880.0,-1344.0
1.71,14976.0,2944.0,-1408.0
1.7125,14976.0,2880.0,-1472.0
1.715,14912.0,2880.0,-1408.0
1.7175,14976.0,2880.0,-1344.0
1.72,14912.0,2944.0,-1280.0
1.7225,14976.0,2880.0,-1280.0
1.725,14912.0,2816.0,-1344.0
1.7275,14912.0,2816.0,-1408.0
1.73,14912.0,2880.0,-1344.0
1.7325,14912.0,2880.0,-1344.0
1.735,14848.0,2880.0,-1344.0
1.7375,14848.0,2880.0,-1408.0
1.74,14912.0,2880.0,-1472.0
1.7425,14912.0,2880.0,-1408.0
1.745,14912.0,2880.0,-1408.0
1.7475,14976.0,2816.0,-1472.0
1.75,14976.0,2880.0,-1472.0
1.7525,14912.0,2816.0,-1408.0
1.755,14976.0,2816.0,-1408.0
1.7575,14912.0,2816.0,-1408.0
1.76,15040.0,2816.0,-1344.0
1.7625,15040.0,2816.0,-1408.0
1.765,15104.0,2752.0,-1408.0
1.7675,15040.0,2752.0,-1344.0
1.77,15104.0,2752.0,-1408.0
1.7725,15168.0,2688.0,-1344.0
1.775,15104.0,2816.0,-1280.0
1.7775,15104.0,2752.0,-1216.0
1.78,15104.0,2816.0,-1280.0
1.7825,15104.0,2880.0,-1344.0
1.785,15168.0,2880.0,-1280.0
1.7875,15168.0,2880.0,-1280.0
1.79,15168.0,2880.0,-1280.0
1.7925,15168.0,2944.0,-1280.0
1.795,15232.0,2944.0,-1280.0
1.7975,15104.0,2944.0,-1280.0
1.8,15104.0,2944.0,-1280.0
1.8025,15104.0,2944.0,-1280.0
1.805,15104.0,2944.0,-1280.0
1.8075,15104.0,2944.0,-1216.0
1.81,15168.0,2880.0,-1280.0
1.8125,15168.0,2880.0,-1280.0
1.815,15168.0,2880.0,-1280.0
1.8175,15168.0,2880.0,-1216.0
1.82,15104.0,2880.0,-1280.0
1.8225,15168.0,2944.0,-1216.0
1.825,15104.0,2880.0,-1152.0
1.8275,15168.0,2944.0,-1216.0
1.83,15104.0,2880.0,-1216.0
1.8325,15168.0,2880.0,-1216.0
1.835,15168.0,2880.0,-1216.0
1.8375,15104.0,2880.0,-1280.0
1.84,15104.0,2880.0,-1216.0
1.8425,15104.0,2880.0,-1280.0
1.845,15104.0,2880.0,-1280.0
1.8475,15104.0,2816.0,-1280.0
1.85,15104.0,2816.0,-1344.0
1.8525,15104.0,2816.0,-1344.0
1.855,15104.0,2816.0,-1280.0
1.8575,15168.0,2880.0,-1280.0
1.86,15168.0,2816.0,-1344.0
1.8625,15104.0,2880.0,-1280.0
1.865,15168.0,2816.0,-1280.0
1.8675,15168.0,2880.0,-1216.0
1.87,15104.0,2880.0,-1280.0
1.8725,15040.0,2944.0,-1280.0
1.875,15040.0,2944.0,-1216.0
1.8775,15040.0,2880.0,-1152.0
1.88,15040.0,2944.0,-1152.0
1.8825,15168.0,2944.0,-1216.0
1.885,15168.0,2944.0,-1152.0
1.8875,15232.0,2944.0,-1152.0
1.89,15168.0,2944.0,-1216.0
1.8925,15168.0,2944.0,-1216.0
1.895,15168.0,2944.0,-1216.0
1.8975,15104.0,2944.0,-1216.0
1.9,15104.0,2944.0,-1216.0
1.9025,15104.0,2944.0,-1152.0
1.905,15104.0,2944.0,-1216.0
1.9075,15104.0,3008.0,-1216.0
1.91,15104.0,3008.0,-1216.0
1.9125,15104.0,3008.0,-1216.0
1.915,15168.0,2944.0,-1216.0
1.9175,15168.0,2944.0,-1280.0
1.92,15104.0,2880.0,-1280.0
1.9225,15168.0,2944.0,-1216.0
1.925,15168.0,3008.0,-1216.0
1.9275,15168.0,2944.0,-1152.0
1.93,15104.0,3008.0,-1216.0
1.9325,15168.0,3072.0,-1216.0
1.935,15104.0,3008.0,-1216.0
1.9375,15104.0,2944.0,-1216.0
1.94,15040.0,2880.0,-1152.0
1.9425,15040.0,2880.0,-1344.0
1.945,15040.0,2880.0,-1280.0
1.9475,15040.0,2944.0,-1280.0
1.95,15104.0,2944.0,-1280.0
1.9525,15104.0,3008.0,-1280.0
1.955,15040.0,3008.0,-1216.0
1.9575,15040.0,3072.0,-1216.0
1.96,15040.0,3072.0,-1152.0
1.9625,15040.0,2944.0,-1216.0
1.965,14976.0,3008.0,-1280.0
1.9675,15040.0,3072.0,-1152.0
1.97,15040.0,3136.0,-1216.0
1.9725,15040.0,3136.0,-1216.0
1.975,15040.0,3136.0,-1280.0
1.9775,15040.0,3072.0,-1280.0
1.98,15040.0,3008.0,-1280.0
1.9825,15040.0,2944.0,-1280.0
1.985,15104.0,2944.0,-1216.0
1.9875,15040.0,3008.0,-1280.0
1.99,15040.0,2944.0,-1280.0
1.9925,15104.0,2944.0,-1216.0
1.995,15104.0,2880.0,-1216.0
1.9975,15040.0,2944.0,-1216.0
2.0,15040.0,2944.0,-1344.0
2.0025,15104.0,2880.0,-1344.0
2.005,15104.0,3008.0,-1344.0
2.0075,15104.0,3008.0,-1280.0
2.01,15104.0,3072.0,-1216.0
2.0125,15104.0,3072.0,-1280.0
2.015,15104.0,3072.0,-1344.0
2.0175,15040.0,3008.0,-1344.0
2.02,15040.0,3008.0,-1344.0
2.0225,15040.0,3008.0,-1408.0
2.025,15040.0,3072.0,-1472.0
2.0275,15040.0,3072.0,-1536.0
2.03,14976.0,3008.0,-1472.0
2.0325,14976.0,3008.0,-1600.0
2.035,14976.0,3008.0,-1600.0
2.0375,14976.0,3008.0,-1600.0
2.04,15040.0,2944.0,-1536.0
2.0425,14976.0,2944.0,-1472.0
2.045,15040.0,2944.0,-1472.0
2.0475,14976.0,2944.0,-1472.0
2.05,14976.0,2944.0,-1472.0
2.0525,14976.0,2944.0,-1472.0
2.055,14976.0,2880.0,-1536.0
2.0575,14976.0,2944.0,-1536.0
2.06,14976.0,3008.0,-1536.0
2.0625,14976.0,2944.0,-1536.0
2.065,15040.0,2944.0,-1536.0
2.0675,14912.0,2944.0,-1600.0
2.07,14912.0,2944.0,-1664.0
2.0725,14912.0,2944.0,-1600.0
2.075,14912.0,2944.0,-1600.0
2.0775,14848.0,2880.0,-1600.0
2.08,14912.0,2880.0,-1664.0
2.0825,14912.0,2880.0,-1792.0
2.085,14912.0,2880.0,-1792.0
2.0875,14976.0,2880.0,-1856.0
2.09,14912.0,2880.0,-1792.0
2.0925,14912.0,2944.0,-1728.0
2.095,14912.0,2880.0,-1728.0
2.0975,14976.0,2944.0,-1728.0
2.1,14976.0,2944.0,-1792.0
2.1025,14976.0,3008.0,-1728.0
2.105,15040.0,3008.0,-1728.0
2.1075,15040.0,3008.0,-1728.0
2.11,14976.0,3008.0,-1728.0
2.1125,14976.0,3008.0,-1728.0
2.115,14976.0,3008.0,-1728.0
2.1175,14976.0,3008.0,-1664.0
2.12,15040.0,3008.0,-1792.0
2.1225,15040.0,3008.0,-1792.0
2.125,15040.0,3008.0,-1728.0
2.1275,15040.0,3072.0,-1792.0
2.13,15040.0,3136.0,-1792.0
2.1325,15040.0,3072.0,-1792.0
2.135,15104.0,3072.0,-1792.0
2.1375,15104.0,3008.0,-1728.0
2.14,15040.0,3072.0,-1728.0
2.1425,15040.0,3072.0,-1792.0
2.145,15168.0,3072.0,-1792.0
2.1475,15168.0,3072.0,-1728.0
2.15,15104.0,3136.0,-1728.0
2.1525,15168.0,3136.0,-1728.0
2.155,15168.0,3072.0,-1792.0
2.1575,15168.0,3072.0,-1728.0
2.16,15168.0,3136.0,-1728.0
2.1625,15232.0,3200.0,-1664.0
2.165,15168.0,3136.0,-1728.0
2.1675,15168.0,3136.0,-1728.0
2.17,15168.0,3136.0,-1728.0
2.1725,15168.0,3200.0,-1664.0
2.175,15232.0,3200.0,-1728.0
2.1775,15296.0,3264.0,-1792.0
2.18,15232.0,3200.0,-1728.0
2.1825,15296.0,3264.0,-1664.0
2.185,15296.0,3264.0,-1792.0
2.1875,15232.0,3200.0,-1664.0
2.19,15232.0,3200.0,-1664.0
2.1925,15296.0,3200.0,-1728.0
2.195,15296.0,3200.0,-1728.0
2.1975,15296.0,3200.0,-1792.0
2.2,15296.0,3200.0,-1728.0
2.2025,15296.0,3264.0,-1728.0
2.205,15296.0,3200.0,-1728.0
2.2075,15296.0,3200.0,-1664.0
2.21,15296.0,3200.0,-1728.0
2.2125,15296.0,3200.0,-1728.0
2.215,15296.0,3200.0,-1728.0
2.2175,15360.0,3200.0,-1728.0
2.22,15360.0,3136.0,-1664.0
2.2225,15360.0,3200.0,-1664.0
2.225,15360.0,3200.0,-1728.0
2.2275,15360.0,3264.0,-1728.0
2.23,15360.0,3264.0,-1664.0
2.2325,15424.0,3264.0,-1600.0
2.235,15360.0,3264.0,-1536.0
2.2375,15424.0,3264.0,-1472.0
2.24,15424.0,3328.0,-1472.0
2.2425,15360.0,3392.0,-1536.0
2.245,15360.0,3392.0,-1536.0
2.2475,15360.0,3328.0,-1536.0
2.25,15360.0,3328.0,-1536.0
2.2525,15296.0,3328.0,-1536.0
2.255,15296.0,3328.0,-1472.0
2.2575,15296.0,3328.0,-1472.0
2.26,15232.0,3328.0,-1472.0
2.2625,15232.0,3264.0,-1472.0
2.265,15168.0,3328.0,-1472.0
2.2675,15168.0,3264.0,-1408.0
2.27,15168.0,3328.0,-1408.0
2.2725,15232.0,3200.0,-1408.0
2.275,15232.0,3136.0,-1344.0
2.2775,15168.0,3200.0,-1344.0
2.28,15168.0,3264.0,-1344.0
2.2825,15104.0,3200.0,-1344.0
2.285,15168.0,3200.0,-1344.0
2.2875,15168.0,3200.0,-1280.0
2.29,15104.0,3136.0,-1280.0
2.2925,15104.0,3136.0,-1344.0
2.295,15104.0,3200.0,-1344.0
2.2975,15104.0,3136.0,-1344.0
2.3,15104.0,3136.0,-1280.0
2.3025,15104.0,3136.0,-1280.0
2.305,15104.0,3200.0,-1344.0
2.3075,15040.0,3136.0,-1280.0
2.31,15040.0,3072.0,-1344.0
2.3125,15040.0,3072.0,-1280.0
2.315,15040.0,3072.0,-1280.0
2.3175,15040.0,3008.0,-1280.0
2.32,14976.0,3072.0,-1152.0
2.3225,15040.0,3072.0,-1216.0
2.325,14976.0,3072.0,-1152.0
2.3275,15040.0,3072.0,-1216.0
2.33,15040.0,3072.0,-1216.0
2.3325,15040.0,3008.0,-1280.0
2.335,14976.0,3008.0,-1216.0
2.3375,15040.0,3072.0,-1216.0
2.34,15040.0,3072.0,-1280.0
2.3425,15040.0,3072.0,-1216.0
2.345,15104.0,3072.0,-1216.0
2.3475,15040.0,3072.0,-1088.0
2.35,15104.0,3136.0,-1152.0
2.3525,15040.0,3200.0,-1152.0
2.355,15040.0,3200.0,-1088.0
2.3575,15040.0,3200.0,-1152.0
2.36,15104.0,3200.0,-1152.0
2.3625,15104.0,3264.0,-1024.0
2.365,15104.0,3200.0,-1024.0
2.3675,15168.0,3136.0,-1088.0
2.37,15232.0,3200.0,-1024.0
2.3725,15296.0,3264.0,-960.0
2.375,15296.0,3200.0,-1024.0
2.3775,15296.0,3200.0,-1024.0
2.38,15296.0,3200.0,-1088.0
2.3825,15296.0,3264.0,-1088.0
2.385,15296.0,3200.0,-1088.0
2.3875,15360.0,3264.0,-1088.0
2.39,15424.0,3328.0,-1152.0
2.3925,15360.0,3328.0,-1152.0
2.395,15360.0,3264.0,-1152.0
2.3975,15360.0,3264.0,-1216.0
2.4,15296.0,3264.0,-1216.0
2.4025,15424.0,3328.0,-1216.0
2.405,15424.0,3328.0,-1344.0
2.4075,15424.0,3328.0,-1216.0
2.41,15424.0,3328.0,-1216.0
2.4125,15424.0,3328.0,-1344.0
2.415,15424.0,3328.0,-1280.0
2.4175,15424.0,3264.0,-1216.0
2.42,15424.0,3264.0,-1280.0
2.4225,15360.0,3328.0,-1280.0
2.425,15424.0,3328.0,-1216.0
2.4275,15360.0,3264.0,-1216.0
2.43,15424.0,3200.0,-1216.0
2.4325,15360.0,3264.0,-1216.0
2.435,15360.0,3264.0,-1216.0
2.4375,15296.0,3200.0,-1152.0
2.44,15296.0,3264.0,-1152.0
2.4425,15296.0,3328.0,-1216.0
2.445,15360.0,3264.0,-1216.0
2.4475,15296.0,3264.0,-1280.0
2.45,15232.0,3200.0,-1280.0
2.4525,15360.0,3200.0,-1280.0
2.455,15296.0,3200.0,-1280.0
2.4575,15296.0,3200.0,-1216.0
2.46,15296.0,3264.0,-1280.0
2.4625,15360.0,3200.0,-1344.0
2.465,15296.0,3200.0,-1344.0
2.4675,15232.0,3200.0,-1280.0
2.47,15296.0,3200.0,-1280.0
2.4725,15232.0,3200.0,-1344.0
2.475,15232.0,3200.0,-1408.0
2.4775,15232.0,3200.0,-1408.0
2.48,15168.0,3136.0,-1280.0
2.4825,15232.0,3136.0,-1280.0
2.485,15168.0,3136.0,-1280.0
2.4875,15168.0,3136.0,-1280.0
2.49,15104.0,3072.0,-1408.0
2.4925,15104.0,3072.0,-1344.0
2.495,15040.0,3072.0,-1344.0
2.4975,15104.0,3136.0,-1344.0
2.5,15040.0,3072.0,-1408.0
2.5025,15104.0,3072.0,-1344.0
2.505,15040.0,3072.0,-1344.0
2.5075,15040.0,3072.0,-1344.0
2.51,15040.0,3008.0,-1408.0
2.5125,15040.0,3072.0,-1344.0
2.515,15040.0,3072.0,-1280.0
2.5175,14976.0,3072.0,-1216.0
2.52,15040.0,3072.0,-1280.0
2.5225,15104.0,3072.0,-1344.0
2.525,15104.0,3072.0,-1280.0
2.5275,15040.0,3008.0,-1280.0
2.53,15104.0,3072.0,-1280.0
2.5325,15040.0,3072.0,-1344.0
2.535,15040.0,3072.0,-1408.0
2.5375,15040.0,3072.0,-1408.0
2.54,15040.0,3072.0,-1344.0
2.5425,15040.0,3008.0,-1344.0
2.545,14976.0,3072.0,-1344.0
2.5475,15040.0,3072.0,-1344.0
2.55,15040.0,3072.0,-1344.0
2.5525,15168.0,3072.0,-1472.0
2.555,15040.0,3072.0,-1408.0
2.5575,15040.0,3136.0,-1344.0
2.56,15104.0,3072.0,-1472.0
2.5625,15104.0,3008.0,-1408.0
2.565,15104.0,3072.0,-1472.0
2.5675,15104.0,3072.0,-1472.0
2.57,15104.0,3072.0,-1472.0
2.5725,15104.0,3008.0,-1536.0
2.575,15104.0,3008.0,-1536.0
2.5775,15104.0,3008.0,-1536.0
2.58,15104.0,2944.0,-1536.0
2.5825,15168.0,3008.0,-1472.0
2.585,15104.0,3008.0,-1536.0
2.5875,15104.0,2944.0,-1472.0
2.59,15104.0,2944.0,-1536.0
2.5925,15104.0,2944.0,-1536.0
2.595,15104.0,3008.0,-1536.0
2.5975,15040.0,2944.0,-1600.0
2.6,15040.0,2944.0,-1600.0
2.6025,15040.0,3008.0,-1600.0
2.605,15040.0,3008.0,-1664.0
2.6075,15040.0,2944.0,-1600.0
2.61,14976.0,3008.0,-1600.0
2.6125,15040.0,2944.0,-1600.0
2.615,14976.0,3008.0,-1600.0
2.6175,14976.0,3008.0,-1536.0
2.62,14912.0,3008.0,-1600.0
2.6225,14912.0,2944.0,-1536.0
2.625,14912.0,2944.0,-1536.0
2.6275,14976.0,2944.0,-1536.0
2.63,14976.0,2944.0,-1472.0
2.6325,14912.0,2880.0,-1472.0
2.635,14912.0,2880.0,-1472.0
2.6375,14912.0,2944.0,-1536.0
2.64,14912.0,2944.0,-1536.0
2.6425,14848.0,3008.0,-1472.0
2.645,14848.0,3008.0,-1536.0
2.6475,14912.0,3072.0,-1536.0
2.65,14848.0,3136.0,-1536.0
2.6525,14848.0,3136.0,-1536.0
2.655,14848.0,3072.0,-1536.0
2.6575,14848.0,3008.0,-1536.0
2.66,14784.0,2944.0,-1600.0
2.6625,14784.0,2944.0,-1600.0
2.665,14784.0,2880.0,-1600.0
2.6675,14784.0,2944.0,-1664.0
2.67,14784.0,2944.0,-1664.0
2.6725,14848.0,3008.0,-1664.0
2.675,14848.0,3008.0,-1664.0
2.6775,14848.0,3072.0,-1664.0
2.68,14848.0,3072.0,-1664.0
2.6825,14848.0,3072.0,-1664.0
2.685,14848.0,3072.0,-1600.0
2.6875,14912.0,3072.0,-1664.0
2.69,14912.0,3072.0,-1664.0
2.6925,14976.0,3136.0,-1664.0
2.695,14976.0,3136.0,-1728.0
2.6975,14976.0,3136.0,-1792.0
2.7,14976.0,3136.0,-1792.0
2.7025,14976.0,3136.0,-1792.0
2.705,14976.0,3072.0,-1728.0
2.7075,14912.0,3072.0,-1728.0
2.71,14976.0,3072.0,-1792.0
2.7125,15040.0,3200.0,-1792.0
2.715,15040.0,3136.0,-1728.0
2.7175,15040.0,3136.0,-1792.0
2.72,15040.0,3136.0,-1792.0
2.7225,15040.0,3136.0,-1856.0
2.725,15040.0,3136.0,-1792.0
2.7275,15040.0,3072.0,-1856.0
2.73,15040.0,3136.0,-1792.0
2.7325,15040.0,3136.0,-1792.0
2.735,15040.0,3200.0,-1792.0
2.7375,15040.0,3136.0,-1792.0
2.74,15104.0,3136.0,-1728.0
2.7425,15104.0,3200.0,-1728.0
2.745,15040.0,3200.0,-1792.0
2.7475,15040.0,3136.0,-1728.0
2.75,15104.0,3200.0,-1664.0
2.7525,15104.0,3200.0,-1664.0
2.755,15040.0,3136.0,-1728.0
2.7575,15040.0,3200.0,-1664.0
2.76,15040.0,3264.0,-1664.0
2.7625,14976.0,3328.0,-1664.0
2.765,14976.0,3392.0,-1664.0
2.7675,14976.0,3392.0,-1600.0
2.77,14976.0,3392.0,-1664.0
2.7725,15104.0,3392.0,-1728.0
2.775,15040.0,3392.0,-1728.0
2.7775,14976.0,3328.0,-1728.0
2.78,14976.0,3328.0,-1728.0
2.7825,14976.0,3328.0,-1728.0
2.785,14976.0,3392.0,-1792.0
2.7875,14976.0,3328.0,-1792.0
2.79,14976.0,3328.0,-1728.0
2.7925,14976.0,3328.0,-1728.0
2.795,14976.0,3328.0,-1664.0
2.7975,15040.0,3392.0,-1664.0
2.8,15040.0,3392.0,-1600.0
2.8025,15040.0,3328.0,-1600.0
2.805,15040.0,3392.0,-1664.0
2.8075,15104.0,3392.0,-1664.0
2.81,15040.0,3328.0,-1600.0
2.8125,15104.0,3392.0,-1600.0
2.815,15104.0,3392.0,-1664.0
2.8175,15040.0,3392.0,-1600.0
2.82,15040.0,3392.0,-1664.0
2.8225,15104.0,3392.0,-1664.0
2.825,15104.0,3328.0,-1792.0
2.8275,15104.0,3328.0,-1728.0
2.83,15104.0,3392.0,-1728.0
2.8325,15040.0,3328.0,-1600.0
2.835,15104.0,3392.0,-1664.0
2.8375,15040.0,3328.0,-1600.0
2.84,15040.0,3328.0,-1600.0
2.8425,15040.0,3392.0,-1600.0
2.845,15104.0,3456.0,-1600.0
2.8475,15104.0,3456.0,-1600.0
2.85,15040.0,3392.0,-1664.0
2.8525,15104.0,3456.0,-1600.0
2.855,15040.0,3456.0,-1600.0
2.8575,15040.0,3456.0,-1600.0
2.86,15104.0,3392.0,-1600.0
2.8625,15104.0,3520.0,-1600.0
2.865,15104.0,3456.0,-1600.0
2.8675,15104.0,3456.0,-1600.0
2.87,15104.0,3456.0,-1600.0
2.8725,15104.0,3456.0,-1600.0
2.875,15104.0,3520.0,-1536.0
2.8775,15104.0,3456.0,-1536.0
2.88,15104.0,3392.0,-1536.0
2.8825,15168.0,3392.0,-1536.0
2.885,15168.0,3456.0,-1472.0
2.8875,15104.0,3456.0,-1600.0
2.89,15104.0,3392.0,-1600.0
2.8925,15168.0,3392.0,-1600.0
2.895,15168.0,3392.0,-1536.0
2.8975,15232.0,3392.0,-1600.0
2.9,15232.0,3328.0,-1664.0
2.9025,15232.0,3328.0,-1664.0
2.905,15232.0,3392.0,-1600.0
2.9075,15168.0,3392.0,-1600.0
2.91,15232.0,3392.0,-1600.0
2.9125,15232.0,3328.0,-1600.0
2.915,15168.0,3328.0,-1536.0
2.9175,15168.0,3392.0,-1536.0
2.92,15168.0,3392.0,-1536.0
2.9225,15168.0,3328.0,-1536.0
2.925,15168.0,3392.0,-1536.0
2.9275,15104.0,3456.0,-1472.0
2.93,15104.0,3328.0,-1472.0
2.9325,15104.0,3264.0,-1408.0
2.935,15168.0,3264.0,-1472.0
2.9375,15168.0,3264.0,-1472.0
2.94,15168.0,3264.0,-1472.0
2.9425,15104.0,3328.0,-1536.0
2.945,15104.0,3264.0,-1600.0
2.9475,15040.0,3264.0,-1472.0
2.95,15104.0,3200.0,-1536.0
2.9525,15104.0,3200.0,-1536.0
2.955,15104.0,3264.0,-1472.0
2.9575,15104.0,3264.0,-1536.0
2.96,15104.0,3200.0,-1536.0
2.9625,15040.0,3200.0,-1536.0
2.965,15040.0,3200.0,-1536.0
2.9675,15104.0,3200.0,-1536.0
2.97,15104.0,3136.0,-1472.0
2.9725,15040.0,3136.0,-1536.0
2.975,15040.0,3136.0,-1536.0
2.9775,15104.0,3136.0,-1472.0
2.98,15104.0,3200.0,-1472.0
2.9825,15040.0,3136.0,-1536.0
2.985,15040.0,3072.0,-1536.0
2.9875,15040.0,3136.0,-1536.0
2.99,15104.0,3200.0,-1536.0
2.9925,15104.0,3200.0,-1408.0
2.995,15104.0,3200.0,-1408.0
2.9975,15104.0,3200.0,-1408.0
3.0,15104.0,3200.0,-1408.0
3.0025,15104.0,3136.0,-1408.0
3.005,15040.0,3200.0,-1408.0
3.0075,14976.0,3200.0,-1408.0
3.01,15040.0,3200.0,-1408.0
3.0125,15040.0,3200.0,-1408.0
3.015,15040.0,3136.0,-1344.0
3.0175,15104.0,3200.0,-1408.0
3.02,15104.0,3200.0,-1344.0
3.0225,15040.0,3200.0,-1344.0
3.025,15104.0,3200.0,-1344.0
3.0275,15104.0,3200.0,-1280.0
3.03,15040.0,3136.0,-1280.0
3.0325,15040.0,3136.0,-1216.0
3.035,15104.0,3264.0,-1280.0
3.0375,15104.0,3200.0,-1216.0
3.04,15104.0,3200.0,-1280.0
3.0425,15104.0,3200.0,-1280.0
3.045,15168.0,3200.0,-1280.0
3.0475,15104.0,3200.0,-1344.0
3.05,15104.0,3200.0,-1280.0
3.0525,15040.0,3200.0,-1280.0
3.055,15104.0,3136.0,-1280.0
3.0575,15104.0,3136.0,-1344.0
3.06,15040.0,3072.0,-1344.0
3.0625,15104.0,3136.0,-1344.0
3.065,15104.0,3136.0,-1344.0
3.0675,15104.0,3136.0,-1344.0
3.07,15104.0,3136.0,-1408.0
3.0725,15168.0,3200.0,-1408.0
3.075,15104.0,3136.0,-1344.0
3.0775,15040.0,3200.0,-1216.0
3.08,15040.0,3136.0,-1280.0
3.0825,15040.0,3136.0,-1280.0
3.085,15040.0,3200.0,-1280.0
3.0875,15168.0,3136.0,-1280.0
3.09,15168.0,3136.0,-1280.0
3.0925,15104.0,3136.0,-1280.0
3.095,15168.0,3200.0,-1280.0
3.0975,15168.0,3200.0,-1344.0
3.1,15168.0,3200.0,-1408.0
3.1025,15168.0,3136.0,-1408.0
3.105,15104.0,3136.0,-1344.0
3.1075,15168.0,3136.0,-1344.0
3.11,15168.0,3136.0,-1344.0
3.1125,15168.0,3072.0,-1344.0
3.115,15168.0,3136.0,-1344.0
3.1175,15232.0,3072.0,-1280.0
3.12,15232.0,3136.0,-1408.0
3.1225,15168.0,3072.0,-1344.0
3.125,15168.0,3072.0,-1344.0
3.1275,15168.0,3136.0,-1408.0
3.13,15168.0,3136.0,-1408.0
3.1325,15168.0,3136.0,-1408.0
3.135,15168.0,3136.0,-1408.0
3.1375,15168.0,3072.0,-1472.0
3.14,15232.0,3072.0,-1408.0
3.1425,15232.0,3136.0,-1408.0
3.145,15168.0,3072.0,-1408.0
3.1475,15168.0,3072.0,-1408.0
3.15,15168.0,3072.0,-1408.0
3.1525,15232.0,3008.0,-1472.0
3.155,15296.0,3008.0,-1472.0
3.1575,15296.0,2944.0,-1408.0
3.16,15168.0,3008.0,-1472.0
3.1625,15168.0,2944.0,-1408.0
3.165,15232.0,2944.0,-1408.0
3.1675,15232.0,2944.0,-1408.0
3.17,15296.0,2944.0,-1408.0
3.1725,15232.0,2944.0,-1472.0
3.175,15232.0,3008.0,-1408.0
3.1775,15296.0,3008.0,-1472.0
3.18,15296.0,3008.0,-1408.0
3.1825,15296.0,3008.0,-1472.0
3.185,15296.0,3008.0,-1472.0
3.1875,15232.0,2944.0,-1408.0
3.19,15232.0,2944.0,-1344.0
3.1925,15296.0,3072.0,-1472.0
3.195,15360.0,3008.0,-1472.0
3.1975,15296.0,3008.0,-1408.0
3.2,15360.0,3072.0,-1408.0
3.2025,15296.0,3072.0,-1408.0
3.205,15232.0,3072.0,-1408.0
3.2075,15232.0,3008.0,-1344.0
3.21,15296.0,3008.0,-1216.0
3.2125,15232.0,3072.0,-1344.0
3.215,15232.0,3072.0,-1344.0
3.2175,15232.0,3072.0,-1344.0
3.22,15232.0,3008.0,-1344.0
3.2225,15168.0,2944.0,-1344.0
3.225,15104.0,3008.0,-1344.0
3.2275,15040.0,2944.0,-1344.0
3.23,15040.0,3008.0,-1408.0
3.2325,15040.0,3008.0,-1344.0
3.235,15040.0,3008.0,-1408.0
3.2375,14976.0,3008.0,-1408.0
3.24,14976.0,2880.0,-1472.0
3.2425,15040.0,2944.0,-1472.0
3.245,15104.0,2944.0,-1408.0
3.2475,15104.0,2880.0,-1344.0
3.25,15040.0,2944.0,-1408.0
3.2525,15040.0,2944.0,-1408.0
3.255,15040.0,2944.0,-1472.0
3.2575,14976.0,2944.0,-1408.0
3.26,14976.0,2944.0,-1472.0
3.2625,15040.0,2944.0,-1408.0
3.265,15040.0,3008.0,-1472.0
3.2675,14976.0,2880.0,-1472.0
3.27,14976.0,2816.0,-1408.0
3.2725,15040.0,2752.0,-1408.0
3.275,15040.0,2752.0,-1408.0
3.2775,14976.0,2816.0,-1408.0
3.28,15040.0,2880.0,-1472.0
3.2825,15104.0,2816.0,-1472.0
3.285,15104.0,2816.0,-1472.0
3.2875,15104.0,2816.0,-1536.0
3.29,15168.0,2880.0,-1472.0
3.2925,15168.0,2880.0,-1408.0
3.295,15168.0,2880.0,-1408.0
3.2975,15104.0,2944.0,-1472.0
3.3,15168.0,2880.0,-1472.0
3.3025,15168.0,2880.0,-1408.0
3.305,15232.0,2880.0,-1408.0
3.3075,15168.0,2880.0,-1344.0
3.31,15168.0,2944.0,-1344.0
3.3125,15168.0,2944.0,-1344.0
3.315,15232.0,2880.0,-1472.0
3.3175,15168.0,2880.0,-1536.0
3.32,15168.0,2880.0,-1472.0
3.3225,15232.0,2880.0,-1472.0
3.325,15232.0,2816.0,-1408.0
3.3275,15168.0,2816.0,-1472.0
3.33,15104.0,2816.0,-1472.0
3.3325,15168.0,2880.0,-1408.0
3.335,15168.0,2880.0,-1344.0
3.3375,15168.0,2880.0,-1408.0
3.34,15104.0,2880.0,-1344.0
3.3425,15104.0,2880.0,-1408.0
3.345,15104.0,2880.0,-1408.0
3.3475,15040.0,2880.0,-1408.0
3.35,15104.0,2880.0,-1344.0
3.3525,15040.0,2816.0,-1344.0
3.355,15040.0,2880.0,-1344.0
3.3575,15040.0,2880.0,-1344.0
3.36,15040.0,2880.0,-1408.0
3.3625,14976.0,2880.0,-1408.0
3.365,14976.0,2880.0,-1408.0
3.3675,14976.0,2880.0,-1408.0
3.37,14976.0,2880.0,-1472.0
3.3725,14976.0,2880.0,-1472.0
3.375,15040.0,2944.0,-1536.0
3.3775,14976.0,2880.0,-1472.0
3.38,15104.0,2944.0,-1472.0
3.3825,15104.0,2944.0,-1472.0
3.385,15104.0,2944.0,-1408.0
3.3875,14976.0,2944.0,-1344.0
3.39,14976.0,2944.0,-1408.0
3.3925,15040.0,2944.0,-1408.0
3.395,15040.0,2944.0,-1472.0
3.3975,15040.0,3008.0,-1536.0
3.4,14976.0,3008.0,-1408.0
3.4025,14976.0,3008.0,-1408.0
3.405,15040.0,3008.0,-1472.0
3.4075,15040.0,3008.0,-1472.0
3.41,14976.0,2944.0,-1472.0
3.4125,15040.0,2944.0,-1472.0
3.415,14976.0,2944.0,-1472.0
3.4175,14976.0,3008.0,-1472.0
3.42,15040.0,3008.0,-1536.0
3.4225,15040.0,2944.0,-1536.0
3.425,15040.0,2944.0,-1472.0
3.4275,14976.0,2944.0,-1536.0
3.43,14976.0,2944.0,-1472.0
3.4325,15040.0,2944.0,-1472.0
3.435,15040.0,3008.0,-1536.0
3.4375,15040.0,3008.0,-1472.0
3.44,15296.0,3008.0,-1536.0
3.4425,15104.0,3072.0,-1536.0
3.445,15104.0,3008.0,-1472.0
3.4475,15104.0,3008.0,-1408.0
3.45,15104.0,3072.0,-1472.0
3.4525,15168.0,3072.0,-1472.0
3.455,15168.0,3008.0,-1408.0
3.4575,15168.0,3136.0,-1408.0
3.46,15168.0,3072.0,-1408.0
3.4625,15232.0,3072.0,-1472.0
3.465,15232.0,3008.0,-1536.0
3.4675,15232.0,3008.0,-1536.0
3.47,15232.0,3008.0,-1536.0
3.4725,15232.0,3072.0,-1472.0
3.475,15296.0,3072.0,-1536.0
3.4775,15296.0,3072.0,-1536.0
3.48,15296.0,3072.0,-1536.0
3.4825,15296.0,3072.0,-1536.0
3.485,15296.0,3072.0,-1536.0
3.4875,15296.0,3136.0,-1472.0
3.49,15296.0,3072.0,-1472.0
3.4925,15232.0,3072.0,-1536.0
3.495,15296.0,3136.0,-1536.0
3.4975,15360.0,3136.0,-1536.0
3.5,15360.0,3136.0,-1536.0
3.5025,15360.0,3136.0,-1536.0
3.505,15360.0,3072.0,-1536.0
3.5075,15296.0,3136.0,-1536.0
3.51,15232.0,3136.0,-1536.0
3.5125,15296.0,3136.0,-1536.0
3.515,15232.0,3136.0,-1472.0
3.5175,15296.0,3136.0,-1536.0
3.52,15296.0,3200.0,-1536.0
3.5225,15168.0,3200.0,-1536.0
3.525,15232.0,3200.0,-1664.0
3.5275,15168.0,3136.0,-1536.0
3.53,15168.0,3072.0,-1536.0
3.5325,15168.0,3072.0,-1600.0
3.535,15168.0,3072.0,-1600.0
3.5375,15168.0,3072.0,-1472.0
3.54,15168.0,3136.0,-1536.0
3.5425,15168.0,3136.0,-1536.0
3.545,15040.0,3072.0,-1472.0
3.5475,15104.0,3072.0,-1536.0
3.55,15104.0,3072.0,-1472.0
3.5525,15040.0,3072.0,-1472.0
3.555,15104.0,3072.0,-1472.0
3.5575,15104.0,3072.0,-1472.0
3.56,15104.0,3072.0,-1472.0
3.5625,15040.0,3072.0,-1472.0
3.565,15104.0,3072.0,-1472.0
3.5675,15104.0,3136.0,-1472.0
3.57,15104.0,3136.0,-1472.0
3.5725,15104.0,3136.0,-1472.0
3.575,15104.0,3136.0,-1344.0
3.5775,15104.0,3136.0,-1408.0
3.58,15104.0,3136.0,-1408.0
3.5825,15040.0,3136.0,-1408.0
3.585,15104.0,3072.0,-1472.0
3.5875,15040.0,3072.0,-1472.0
3.59,15104.0,3136.0,-1472.0
3.5925,15040.0,3072.0,-1344.0
3.595,15040.0,3072.0,-1472.0
3.5975,15168.0,3072.0,-1472.0
3.6,15040.0,3072.0,-1408.0
3.6025,15104.0,3136.0,-1280.0
3.605,15104.0,3136.0,-1280.0
3.6075,15040.0,3136.0,-1344.0
3.61,15040.0,3200.0,-1408.0
3.6125,15104.0,3136.0,-1408.0
3.615,15104.0,3136.0,-1408.0
3.6175,15104.0,3136.0,-1344.0
3.62,15040.0,3136.0,-1344.0
3.6225,15040.0,3136.0,-1344.0
3.625,15040.0,3072.0,-1280.0
3.6275,15104.0,3072.0,-1280.0
3.63,15104.0,3136.0,-1216.0
3.6325,15104.0,3136.0,-1344.0
3.635,14848.0,3136.0,-1280.0
3.6375,15040.0,3136.0,-1280.0
3.64,15040.0,3136.0,-1280.0
3.6425,15104.0,3136.0,-1280.0
3.645,15104.0,3200.0,-1216.0
3.6475,15104.0,3200.0,-1216.0
3.65,15104.0,3136.0,-1216.0
3.6525,15040.0,3072.0,-1280.0
3.655,15104.0,3136.0,-1216.0
3.6575,15104.0,3136.0,-1280.0
3.66,15104.0,3136.0,-1280.0
3.6625,15168.0,3136.0,-1344.0
3.665,15104.0,3136.0,-1216.0
3.6675,15104.0,3136.0,-1280.0
3.67,15040.0,3136.0,-1280.0
3.6725,15040.0,3072.0,-1408.0
3.675,15040.0,3072.0,-1344.0
3.6775,15040.0,3072.0,-1344.0
3.68,15104.0,3136.0,-1344.0
3.6825,15104.0,3072.0,-1216.0
3.685,15168.0,3072.0,-1344.0
3.6875,15168.0,3072.0,-1344.0
3.69,15168.0,3008.0,-1280.0
3.6925,15168.0,3072.0,-1344.0
3.695,15104.0,3072.0,-1344.0
3.6975,15168.0,3072.0,-1280.0
3.7,15168.0,3072.0,-1280.0
3.7025,15168.0,3072.0,-1280.0
3.705,15232.0,3072.0,-1280.0
3.7075,15168.0,3072.0,-1216.0
3.71,15168.0,3136.0,-1216.0
3.7125,15168.0,3072.0,-1280.0
3.715,15168.0,3136.0,-1216.0
3.7175,15168.0,3072.0,-1280.0
3.72,15168.0,3136.0,-1280.0
3.7225,15104.0,3136.0,-1280.0
3.725,15168.0,3072.0,-1280.0
3.7275,15168.0,3008.0,-1344.0
3.73,15104.0,3008.0,-1280.0
3.7325,15104.0,3008.0,-1280.0
3.735,15104.0,3008.0,-1280.0
3.7375,15104.0,3072.0,-1280.0
3.74,15168.0,3008.0,-1280.0
3.7425,15104.0,3008.0,-1408.0
3.745,15168.0,2944.0,-1408.0
3.7475,15168.0,3008.0,-1344.0
3.75,15168.0,3008.0,-1280.0
3.7525,15104.0,3008.0,-1280.0
3.755,15168.0,3008.0,-1344.0
3.7575,15232.0,3072.0,-1408.0
3.76,15168.0,3008.0,-1408.0
3.7625,15232.0,3008.0,-1408.0
3.765,15232.0,3008.0,-1344.0
3.7675,15232.0,2944.0,-1344.0
3.77,15168.0,2944.0,-1344.0
3.7725,15168.0,2944.0,-1344.0
3.775,15104.0,2944.0,-1280.0
3.7775,15168.0,2944.0,-1344.0
3.78,15168.0,2944.0,-1408.0
3.7825,15104.0,2880.0,-1344.0
3.785,15104.0,2944.0,-1344.0
3.7875,15104.0,2944.0,-1280.0
3.79,15168.0,2880.0,-1344.0
3.7925,15168.0,2944.0,-1344.0
3.795,15104.0,2944.0,-1344.0
3.7975,15040.0,2944.0,-1344.0
3.8,15040.0,2880.0,-1344.0
3.8025,15104.0,2880.0,-1344.0
3.805,15168.0,2944.0,-1280.0
3.8075,15104.0,2944.0,-1344.0
3.81,15104.0,2944.0,-1344.0
3.8125,15168.0,2944.0,-1408.0
3.815,15104.0,2944.0,-1408.0
3.8175,15104.0,2944.0,-1408.0
3.82,15040.0,2944.0,-1408.0
3.8225,15040.0,3008.0,-1408.0
3.825,15104.0,3008.0,-1344.0
3.8275,15040.0,2944.0,-1344.0
3.83,15040.0,2880.0,-1280.0
3.8325,15040.0,2880.0,-1408.0
3.835,15040.0,2944.0,-1472.0
3.8375,15040.0,2880.0,-1472.0
3.84,15040.0,2880.0,-1472.0
3.8425,15040.0,2944.0,-1472.0
3.845,15040.0,2880.0,-1472.0
3.8475,14976.0,2880.0,-1472.0
3.85,15104.0,2816.0,-1408.0
3.8525,15040.0,2816.0,-1472.0
3.855,14976.0,2880.0,-1408.0
3.8575,14976.0,2816.0,-1408.0
3.86,15040.0,2816.0,-1408.0
3.8625,15040.0,2880.0,-1344.0
3.865,15040.0,2816.0,-1344.0
3.8675,15040.0,2816.0,-1408.0
3.87,15040.0,2880.0,-1344.0
3.8725,14976.0,2816.0,-1344.0
3.875,15040.0,2880.0,-1280.0
3.8775,15040.0,2816.0,-1280.0
3.88,15040.0,2816.0,-1280.0
3.8825,15040.0,2816.0,-1280.0
3.885,14976.0,2816.0,-1280.0
3.8875,15104.0,2816.0,-1344.0
3.89,15168.0,2816.0,-1408.0
3.8925,15168.0,2816.0,-1408.0
3.895,15168.0,2816.0,-1408.0
3.8975,15104.0,2816.0,-1408.0
3.9,15104.0,2752.0,-1408.0
3.9025,15104.0,2816.0,-1408.0
3.905,15168.0,2880.0,-1344.0
3.9075,15104.0,2880.0,-1408.0
3.91,15104.0,2944.0,-1408.0
3.9125,15104.0,2944.0,-1344.0
3.915,15104.0,2880.0,-1344.0
3.9175,15104.0,2816.0,-1344.0
3.92,15104.0,2816.0,-1408.0
3.9225,15104.0,2880.0,-1344.0
3.925,15104.0,2880.0,-1408.0
3.9275,15168.0,2816.0,-1472.0
3.93,15168.0,2752.0,-1472.0
3.9325,15104.0,2816.0,-1472.0
3.935,15168.0,2816.0,-1408.0
3.9375,15168.0,2816.0,-1408.0
3.94,15104.0,2752.0,-1344.0
3.9425,15104.0,2752.0,-1408.0
3.945,15104.0,2816.0,-1408.0
3.9475,15104.0,2816.0,-1344.0
3.95,15104.0,2816.0,-1408.0
3.9525,15168.0,2880.0,-1472.0
3.955,15104.0,2816.0,-1472.0
3.9575,15168.0,2816.0,-1472.0
3.96,15168.0,2816.0,-1472.0
3.9625,15168.0,2752.0,-1472.0
3.965,15104.0,2752.0,-1408.0
3.9675,15104.0,2752.0,-1472.0
3.97,15104.0,2752.0,-1408.0
3.9725,15104.0,2816.0,-1472.0
3.975,15168.0,2816.0,-1344.0
3.9775,15168.0,2816.0,-1408.0
3.98,15104.0,2816.0,-1408.0
3.9825,15168.0,2816.0,-1344.0
3.985,15168.0,2880.0,-1344.0
3.9875,15168.0,2752.0,-1344.0
3.99,15168.0,2816.0,-1344.0
3.9925,15168.0,2816.0,-1344.0
3.995,15104.0,2880.0,-1280.0
3.9975,15104.0,2880.0,-1280.0
4.0,15104.0,2816.0,-1280.0
4.0025,15104.0,2880.0,-1216.0
4.005,15104.0,2880.0,-1280.0
4.0075,15104.0,2816.0,-1344.0
4.01,15040.0,2816.0,-1280.0
4.0125,15040.0,2816.0,-1344.0
4.015,15040.0,2816.0,-1408.0
4.0175,15040.0,2752.0,-1408.0
4.02,14976.0,2752.0,-1344.0
4.0225,14976.0,2752.0,-1344.0
4.025,14976.0,2816.0,-1344.0
4.0275,14912.0,2816.0,-1344.0
4.03,14976.0,2816.0,-1344.0
4.0325,14976.0,2816.0,-1344.0
4.035,15040.0,2752.0,-1280.0
4.0375,15040.0,2752.0,-1280.0
4.04,15040.0,2752.0,-1280.0
4.0425,15040.0,2752.0,-1280.0
4.045,15040.0,2816.0,-1216.0
4.0475,15104.0,2752.0,-1216.0
4.05,15104.0,2752.0,-1280.0
4.0525,15104.0,2752.0,-1216.0
4.055,15040.0,2752.0,-1216.0
4.0575,15040.0,2816.0,-1280.0
4.06,15040.0,2816.0,-1280.0
4.0625,15040.0,2816.0,-1280.0
4.065,15040.0,2752.0,-1344.0
4.0675,14976.0,2752.0,-1344.0
4.07,15040.0,2816.0,-1280.0
4.0725,15040.0,2816.0,-1280.0
4.075,15040.0,2752.0,-1216.0
4.0775,15040.0,2752.0,-1216.0
4.08,15040.0,2816.0,-1216.0
4.0825,15040.0,2816.0,-1216.0
4.085,15040.0,2880.0,-1280.0
4.0875,15104.0,2880.0,-1216.0
4.09,15104.0,2816.0,-1280.0
4.0925,15104.0,2880.0,-1280.0
4.095,15104.0,2880.0,-1280.0
4.0975,15104.0,2880.0,-1280.0
4.1,15104.0,2880.0,-1344.0
4.1025,15104.0,2880.0,-1280.0
4.105,15104.0,2880.0,-1344.0
4.1075,15104.0,2880.0,-1472.0
4.11,15104.0,2880.0,-1472.0
4.1125,15168.0,2880.0,-1408.0
4.115,15104.0,2880.0,-1472.0
4.1175,15104.0,2816.0,-1472.0
4.12,15168.0,2880.0,-1472.0
4.1225,15168.0,2880.0,-1472.0
4.125,15168.0,2816.0,-1472.0
4.1275,15168.0,2880.0,-1472.0
4.13,15104.0,2816.0,-1408.0
4.1325,15040.0,2752.0,-1344.0
4.135,15104.0,2816.0,-1344.0
4.1375,15104.0,2880.0,-1344.0
4.14,15040.0,2880.0,-1408.0
4.1425,15104.0,2880.0,-1408.0
4.145,15104.0,2944.0,-1344.0
4.1475,15104.0,2880.0,-1344.0
4.15,15104.0,2944.0,-1344.0
4.1525,15104.0,2944.0,-1344.0
4.155,15168.0,2880.0,-1408.0
4.1575,15104.0,2880.0,-1408.0
4.16,15168.0,2944.0,-1408.0
4.1625,15104.0,2944.0,-1408.0
4.165,15104.0,2944.0,-1408.0
4.1675,15104.0,2944.0,-1408.0
4.17,15104.0,2944.0,-1408.0
4.1725,15168.0,3008.0,-1408.0
4.175,15232.0,3008.0,-1408.0
4.1775,15104.0,2880.0,-1344.0
4.18,15104.0,2944.0,-1408.0
4.1825,15104.0,2880.0,-1408.0
4.185,15104.0,2944.0,-1472.0
4.1875,15104.0,2944.0,-1472.0
4.19,15104.0,2880.0,-1408.0
4.1925,15168.0,2880.0,-1408.0
4.195,15168.0,2880.0,-1472.0
4.1975,15168.0,2944.0,-1472.0
4.2,15168.0,2880.0,-1408.0
4.2025,15168.0,2880.0,-1472.0
4.205,15104.0,2816.0,-1408.0
4.2075,15040.0,2880.0,-1408.0
4.21,15040.0,2944.0,-1472.0
4.2125,15040.0,2880.0,-1408.0
4.215,15040.0,2944.0,-1408.0
4.2175,15040.0,2944.0,-1344.0
4.22,15040.0,3008.0,-1408.0
4.2225,15104.0,3008.0,-1472.0
4.225,15104.0,2880.0,-1472.0
4.2275,15040.0,2880.0,-1408.0
4.23,14976.0,2880.0,-1536.0
4.2325,15040.0,2944.0,-1600.0
4.235,15104.0,2944.0,-1536.0
4.2375,15040.0,2944.0,-1536.0
4.24,15040.0,2880.0,-1536.0
4.2425,15040.0,2944.0,-1600.0
4.245,15040.0,2944.0,-1600.0
4.2475,15104.0,2944.0,-1664.0
4.25,15104.0,2944.0,-1600.0
4.2525,15104.0,2880.0,-1536.0
4.255,15168.0,2880.0,-1600.0
4.2575,15104.0,2944.0,-1600.0
4.26,15104.0,2944.0,-1600.0
4.2625,15168.0,2944.0,-1664.0
4.265,15168.0,3008.0,-1664.0
4.2675,15168.0,2944.0,-1664.0
4.27,15104.0,2944.0,-1664.0
4.2725,15168.0,2944.0,-1664.0
4.275,15168.0,2944.0,-1664.0
4.2775,15104.0,2880.0,-1728.0
4.28,15104.0,2944.0,-1728.0
4.2825,15104.0,2880.0,-1728.0
4.285,15168.0,3008.0,-1728.0
4.2875,15168.0,2944.0,-1728.0
4.29,15232.0,2944.0,-1664.0
4.2925,15232.0,3008.0,-1664.0
4.295,15232.0,2944.0,-1664.0
4.2975,15232.0,2944.0,-1664.0
4.3,15168.0,2944.0,-1728.0
4.3025,15232.0,2944.0,-1664.0
4.305,15232.0,2944.0,-1600.0
4.3075,15232.0,3008.0,-1600.0
4.31,15232.0,3008.0,-1600.0
4.3125,15232.0,3072.0,-1536.0
4.315,15232.0,3008.0,-1600.0
4.3175,15296.0,3072.0,-1600.0
4.32,15232.0,3072.0,-1600.0
4.3225,15168.0,2944.0,-1600.0
4.325,15168.0,2944.0,-1536.0
4.3275,15232.0,3008.0,-1536.0
4.33,15168.0,3008.0,-1600.0
4.3325,15168.0,3008.0,-1536.0
4.335,15168.0,3008.0,-1536.0
4.3375,15168.0,3008.0,-1536.0
4.34,15168.0,3008.0,-1536.0
4.3425,15232.0,3072.0,-1536.0
4.345,15232.0,3072.0,-1536.0
4.3475,15232.0,3072.0,-1536.0
4.35,15232.0,3072.0,-1600.0
4.3525,15232.0,3072.0,-1536.0
4.355,15168.0,3072.0,-1536.0
4.3575,15168.0,3072.0,-1472.0
4.36,15168.0,3008.0,-1536.0
4.3625,15168.0,3008.0,-1472.0
4.365,15168.0,3008.0,-1472.0
4.3675,15168.0,3008.0,-1536.0
4.37,15168.0,3072.0,-1536.0
4.3725,15168.0,3008.0,-1536.0
4.375,15168.0,3008.0,-1536.0
4.3775,15168.0,3072.0,-1536.0
4.38,15232.0,3072.0,-1472.0
4.3825,15168.0,3136.0,-1536.0
4.385,15168.0,3136.0,-1472.0
4.3875,15168.0,3072.0,-1472.0
4.39,15168.0,3072.0,-1536.0
4.3925,15168.0,3072.0,-1536.0
4.395,15168.0,3072.0,-1600.0
4.3975,15232.0,3072.0,-1536.0
4.4,15232.0,3072.0,-1536.0
4.4025,15232.0,3072.0,-1536.0
4.405,15168.0,3072.0,-1536.0
4.4075,15232.0,3072.0,-1472.0
4.41,15104.0,3008.0,-1536.0
4.4125,15168.0,3136.0,-1536.0
4.415,15104.0,3072.0,-1536.0
4.4175,15168.0,3072.0,-1536.0
4.42,15168.0,3136.0,-1536.0
4.4225,15104.0,3200.0,-1472.0
4.425,15104.0,3136.0,-1536.0
4.4275,15104.0,3072.0,-1536.0
4.43,15168.0,3136.0,-1472.0
4.4325,15232.0,3072.0,-1472.0
4.435,15232.0,3072.0,-1408.0
4.4375,15232.0,3072.0,-1408.0
4.44,15168.0,3072.0,-1472.0
4.4425,15232.0,3200.0,-1408.0
4.445,15232.0,3200.0,-1472.0
4.4475,15168.0,3200.0,-1472.0
4.45,15232.0,3136.0,-1472.0
4.4525,15232.0,3136.0,-1408.0
4.455,15232.0,3072.0,-1408.0
4.4575,15168.0,3072.0,-1344.0
4.46,15232.0,3136.0,-1408.0
4.4625,15296.0,3136.0,-1344.0
4.465,15296.0,3136.0,-1344.0
4.4675,15232.0,3264.0,-1280.0
4.47,15232.0,3200.0,-1344.0
4.4725,15232.0,3200.0,-1344.0
4.475,15232.0,3136.0,-1344.0
4.4775,15296.0,3136.0,-1408.0
4.48,15296.0,3072.0,-1344.0
4.4825,15296.0,3136.0,-1344.0
4.485,15296.0,3136.0,-1344.0
4.4875,15296.0,3136.0,-1280.0
4.49,15296.0,3200.0,-1280.0
4.4925,15296.0,3200.0,-1280.0
4.495,15296.0,3200.0,-1280.0
4.4975,15232.0,3200.0,-1280.0
4.5,15296.0,3264.0,-1280.0
4.5025,15296.0,3200.0,-1280.0
4.505,15296.0,3136.0,-1280.0
4.5075,15296.0,3200.0,-1280.0
4.51,15296.0,3136.0,-1280.0
4.5125,15360.0,3136.0,-1344.0
4.515,15296.0,3136.0,-1280.0
4.5175,15296.0,3136.0,-1280.0
4.52,15296.0,3136.0,-1280.0
4.5225,15296.0,3136.0,-1216.0
4.525,15296.0,3136.0,-1216.0
4.5275,15360.0,3136.0,-1216.0
4.53,15232.0,3200.0,-1216.0
4.5325,15232.0,3136.0,-1216.0
4.535,15232.0,3136.0,-1216.0
4.5375,15232.0,3200.0,-1280.0
4.54,15232.0,3136.0,-1216.0
4.5425,15232.0,3072.0,-1216.0
4.545,15232.0,3072.0,-1280.0
4.5475,15232.0,3072.0,-1216.0
4.55,15232.0,3136.0,-1152.0
4.5525,15232.0,3072.0,-1152.0
4.555,15296.0,3072.0,-1152.0
4.5575,15296.0,3072.0,-1152.0
4.56,15168.0,3136.0,-1216.0
4.5625,15232.0,3072.0,-1152.0
4.565,15232.0,3072.0,-1088.0
4.5675,15232.0,3072.0,-1152.0
4.57,15168.0,3136.0,-1152.0
4.5725,15168.0,3072.0,-1216.0
4.575,15168.0,3136.0,-1216.0
4.5775,15168.0,3072.0,-1216.0
4.58,15232.0,3008.0,-1280.0
4.5825,15232.0,3008.0,-1216.0
4.585,15168.0,2944.0,-1216.0
4.5875,15232.0,2944.0,-1152.0
4.59,15168.0,2944.0,-1216.0
4.5925,15168.0,2944.0,-1152.0
4.595,15168.0,2944.0,-1152.0
4.5975,15168.0,2880.0,-1152.0
4.6,15168.0,2944.0,-1152.0
4.6025,15104.0,2944.0,-1216.0
4.605,15168.0,2944.0,-1280.0
4.6075,15104.0,2880.0,-1216.0
4.61,15168.0,2816.0,-1216.0
4.6125,15168.0,2816.0,-1152.0
4.615,15104.0,2880.0,-1152.0
4.6175,15104.0,2880.0,-1216.0
4.62,15104.0,2880.0,-1216.0
4.6225,15104.0,2880.0,-1280.0
4.625,14976.0,2816.0,-1216.0
4.6275,14976.0,2816.0,-1152.0
4.63,14976.0,2816.0,-1280.0
4.6325,14976.0,2752.0,-1280.0
4.635,14976.0,2752.0,-1280.0
4.6375,14976.0,2816.0,-1216.0
4.64,14976.0,2816.0,-1344.0
4.6425,14976.0,2816.0,-1344.0
4.645,14976.0,2816.0,-1280.0
4.6475,14976.0,2816.0,-1280.0
4.65,14976.0,2752.0,-1280.0
4.6525,14912.0,2752.0,-1280.0
4.655,14912.0,2752.0,-1280.0
4.6575,14912.0,2752.0,-1280.0
4.66,14976.0,2752.0,-1216.0
4.6625,14912.0,2752.0,-1280.0
4.665,14912.0,2752.0,-1280.0
4.6675,14848.0,2688.0,-1216.0
4.67,14912.0,2816.0,-1280.0
4.6725,14912.0,2816.0,-1344.0
4.675,14912.0,2816.0,-1344.0
4.6775,14912.0,2816.0,-1344.0
4.68,14912.0,2816.0,-1344.0
4.6825,14912.0,2752.0,-1344.0
4.685,14912.0,2816.0,-1344.0
4.6875,14912.0,2816.0,-1344.0
4.69,14912.0,2816.0,-1408.0
4.6925,14976.0,2816.0,-1408.0
4.695,14976.0,2816.0,-1408.0
4.6975,14976.0,2880.0,-1536.0
4.7,15040.0,2880.0,-1536.0
4.7025,14976.0,2880.0,-1536.0
4.705,15040.0,2880.0,-1536.0
4.7075,15040.0,2944.0,-1536.0
4.71,14976.0,2944.0,-1472.0
4.7125,15040.0,2944.0,-1536.0
4.715,15040.0,2944.0,-1536.0
4.7175,15104.0,2944.0,-1472.0
4.72,15104.0,2944.0,-1472.0
4.7225,15168.0,3008.0,-1600.0
4.725,15168.0,3008.0,-1536.0
4.7275,15168.0,2944.0,-1600.0
4.73,15168.0,2944.0,-1600.0
4.7325,15168.0,3008.0,-1664.0
4.735,15168.0,2944.0,-1664.0
4.7375,15232.0,3008.0,-1664.0
4.74,15232.0,3008.0,-1664.0
4.7425,15232.0,3008.0,-1664.0
4.745,15232.0,3008.0,-1728.0
4.7475,15232.0,3008.0,-1728.0
4.75,15232.0,3072.0,-1728.0
4.7525,15232.0,3072.0,-1728.0
4.755,15232.0,3072.0,-1728.0
4.7575,15232.0,3072.0,-1792.0
4.76,15296.0,3008.0,-1728.0
4.7625,15232.0,3008.0,-1728.0
4.765,15232.0,3008.0,-1728.0
4.7675,15296.0,3008.0,-1792.0
4.77,15232.0,3072.0,-1792.0
4.7725,15296.0,3008.0,-1728.0
4.775,15360.0,3072.0,-1664.0
4.7775,15296.0,3072.0,-1728.0
4.78,15360.0,3008.0,-1728.0
4.7825,15296.0,2944.0,-1792.0
4.785,15296.0,3008.0,-1792.0
4.7875,15296.0,2944.0,-1792.0
4.79,15296.0,3008.0,-1792.0
4.7925,15296.0,3008.0,-1792.0
4.795,15296.0,3072.0,-1728.0
4.7975,15296.0,3072.0,-1792.0
4.8,15232.0,2944.0,-1728.0
4.8025,15232.0,2944.0,-1728.0
4.805,15232.0,3008.0,-1728.0
4.8075,15232.0,3008.0,-1728.0
4.81,15168.0,3008.0,-1664.0
4.8125,15232.0,3008.0,-1728.0
4.815,15168.0,3008.0,-1792.0
4.8175,15168.0,3008.0,-1728.0
4.82,15168.0,2880.0,-1728.0
4.8225,15168.0,2880.0,-1728.0
4.825,15168.0,2880.0,-1792.0
4.8275,15168.0,2944.0,-1792.0
4.83,15168.0,3008.0,-1728.0
4.8325,15168.0,3008.0,-1728.0
4.835,15168.0,2944.0,-1728.0
4.8375,15104.0,3008.0,-1728.0
4.84,15168.0,2944.0,-1728.0
4.8425,15104.0,2880.0,-1728.0
4.845,15168.0,2880.0,-1728.0
4.8475,15104.0,2944.0,-1664.0
4.85,15104.0,2944.0,-1664.0
4.8525,15104.0,3008.0,-1728.0
4.855,15168.0,3008.0,-1728.0
4.8575,15104.0,2944.0,-1664.0
4.86,15104.0,2944.0,-1664.0
4.8625,15104.0,2944.0,-1728.0
4.865,15104.0,2880.0,-1728.0
4.8675,15040.0,2880.0,-1728.0
4.87,15040.0,2880.0,-1728.0
4.8725,15040.0,2880.0,-1728.0
4.875,15040.0,2880.0,-1664.0
4.8775,15040.0,2880.0,-1600.0
4.88,15040.0,2816.0,-1664.0
4.8825,15104.0,2816.0,-1664.0
4.885,15104.0,2880.0,-1600.0
4.8875,15104.0,2880.0,-1600.0
4.89,15104.0,2880.0,-1664.0
4.8925,15104.0,2944.0,-1664.0
4.895,15104.0,2944.0,-1664.0
4.8975,15040.0,2880.0,-1728.0
4.9,15040.0,2944.0,-1728.0
4.9025,15104.0,2944.0,-1664.0
4.905,15104.0,2944.0,-1728.0
4.9075,15104.0,2944.0,-1728.0
4.91,15104.0,2816.0,-1728.0
4.9125,15104.0,2880.0,-1728.0
4.915,15104.0,2880.0,-1792.0
4.9175,15104.0,2880.0,-1792.0
4.92,15104.0,2880.0,-1728.0
4.9225,15104.0,2880.0,-1728.0
4.925,15104.0,2816.0,-1728.0
4.9275,15040.0,2880.0,-1728.0
4.93,15104.0,2880.0,-1792.0
4.9325,15104.0,2816.0,-1728.0
4.935,15104.0,2816.0,-1728.0
4.9375,15040.0,2816.0,-1728.0
4.94,15104.0,2880.0,-1728.0
4.9425,15104.0,2816.0,-1728.0
4.945,15104.0,2816.0,-1664.0
4.9475,15040.0,2816.0,-1664.0
4.95,15040.0,2880.0,-1664.0
4.9525,15040.0,2816.0,-1664.0
4.955,15104.0,2816.0,-1664.0
4.9575,15104.0,2880.0,-1600.0
4.96,15104.0,2880.0,-1664.0
4.9625,15104.0,2880.0,-1600.0
4.965,15104.0,2880.0,-1664.0
4.9675,15104.0,2880.0,-1664.0
4.97,15168.0,2816.0,-1664.0
4.9725,15168.0,2752.0,-1600.0
4.975,15104.0,2816.0,-1600.0
4.9775,15040.0,2816.0,-1664.0
4.98,15104.0,2816.0,-1664.0
4.9825,15040.0,2816.0,-1728.0
4.985,15104.0,2816.0,-1664.0
4.9875,15040.0,2816.0,-1664.0
4.99,15040.0,2816.0,-1600.0
4.9925,15104.0,2816.0,-1600.0
4.995,15104.0,2816.0,-1600.0
4.9975,15040.0,2816.0,-1600.0
5.0,15040.0,2816.0,-1600.0
5.0025,15040.0,2880.0,-1600.0
5.005,15104.0,2880.0,-1536.0
5.0075,15040.0,2816.0,-1536.0
5.01,15040.0,2880.0,-1536.0
5.0125,14976.0,2880.0,-1536.0
5.015,15040.0,2880.0,-1536.0
5.0175,14976.0,2880.0,-1536.0
5.02,14976.0,2816.0,-1536.0
5.0225,15040.0,2880.0,-1600.0
5.025,15040.0,2880.0,-1536.0
5.0275,15104.0,2880.0,-1536.0
5.03,15104.0,2944.0,-1600.0
5.0325,15040.0,2944.0,-1600.0
5.035,15040.0,2880.0,-1600.0
5.0375,15104.0,2880.0,-1664.0
5.04,15040.0,2880.0,-1600.0
5.0425,15040.0,2880.0,-1600.0
5.045,15040.0,2880.0,-1600.0
5.0475,15040.0,2944.0,-1536.0
5.05,14976.0,2944.0,-1536.0
5.0525,14976.0,2944.0,-1536.0
5.055,15040.0,2944.0,-1536.0
5.0575,15104.0,2944.0,-1536.0
5.06,15104.0,2944.0,-1472.0
5.0625,15104.0,3008.0,-1536.0
5.065,15104.0,3008.0,-1600.0
5.0675,15104.0,3008.0,-1600.0
5.07,15104.0,3072.0,-1600.0
5.0725,15040.0,3072.0,-1600.0
5.075,15104.0,3008.0,-1664.0
5.0775,15040.0,3008.0,-1600.0
5.08,15168.0,2944.0,-1664.0
5.0825,15104.0,2944.0,-1664.0
5.085,15104.0,2944.0,-1792.0
5.0875,15104.0,2880.0,-1728.0
5.09,15168.0,2880.0,-1728.0
5.0925,15168.0,2880.0,-1728.0
5.095,15168.0,2944.0,-1728.0
5.0975,15168.0,2880.0,-1664.0
5.1,15168.0,2880.0,-1728.0
5.1025,15168.0,2944.0,-1664.0
5.105,15232.0,2944.0,-1664.0
5.1075,15232.0,3008.0,-1600.0
5.11,15232.0,3072.0,-1600.0
5.1125,15296.0,3008.0,-1600.0
5.115,15232.0,3072.0,-1600.0
5.1175,15168.0,3136.0,-1536.0
5.12,15232.0,3072.0,-1536.0
5.1225,15232.0,3072.0,-1472.0
5.125,15232.0,3072.0,-1536.0
5.1275,15168.0,3072.0,-1600.0
5.13,15168.0,3008.0,-1600.0
5.1325,15232.0,3008.0,-1536.0
5.135,15168.0,3008.0,-1536.0
5.1375,15168.0,3008.0,-1472.0
5.14,15168.0,2944.0,-1472.0
5.1425,15232.0,3008.0,-1472.0
5.145,15168.0,3008.0,-1472.0
5.1475,15232.0,3072.0,-1536.0
5.15,15232.0,3072.0,-1536.0
5.1525,15232.0,3072.0,-1536.0
5.155,15232.0,3072.0,-1536.0
5.1575,15168.0,3072.0,-1536.0
5.16,15168.0,3072.0,-1536.0
5.1625,15168.0,3072.0,-1536.0
5.165,15168.0,3072.0,-1536.0
5.1675,15104.0,3072.0,-1536.0
5.17,15104.0,3072.0,-1536.0
5.1725,15104.0,3008.0,-1472.0
5.175,15104.0,2944.0,-1536.0
5.1775,15104.0,2944.0,-1536.0
5.18,15104.0,2944.0,-1536.0
5.1825,15104.0,2944.0,-1472.0
5.185,15040.0,3008.0,-1472.0
5.1875,15104.0,2944.0,-1472.0
5.19,15104.0,2944.0,-1472.0
5.1925,15168.0,2880.0,-1472.0
5.195,15104.0,2880.0,-1536.0
5.1975,15104.0,2816.0,-1536.0
5.2,15040.0,2880.0,-1472.0
5.2025,15104.0,2880.0,-1408.0
5.205,15168.0,2880.0,-1408.0
5.2075,15104.0,2880.0,-1408.0
5.21,15168.0,3008.0,-1408.0
5.2125,15104.0,3072.0,-1472.0
5.215,15104.0,3008.0,-1408.0
5.2175,15168.0,3072.0,-1472.0
5.22,15168.0,3072.0,-1408.0
5.2225,15232.0,3008.0,-1344.0
5.225,15232.0,3072.0,-1408.0
5.2275,15168.0,3008.0,-1408.0
5.23,15168.0,3072.0,-1344.0
5.2325,15168.0,3008.0,-1344.0
5.235,15168.0,3008.0,-1280.0
5.2375,15168.0,3072.0,-1280.0
5.24,15168.0,3008.0,-1280.0
5.2425,15232.0,3072.0,-1280.0
5.245,15232.0,3072.0,-1280.0
5.2475,15104.0,3008.0,-1344.0
5.25,15168.0,3008.0,-1344.0
5.2525,15168.0,2944.0,-1280.0
5.255,15168.0,3008.0,-1344.0
5.2575,15168.0,3008.0,-1344.0
5.26,15232.0,3008.0,-1344.0
5.2625,15232.0,3008.0,-1408.0
5.265,15168.0,3008.0,-1344.0
5.2675,15168.0,3072.0,-1344.0
5.27,15168.0,3072.0,-1408.0
5.2725,15168.0,3072.0,-1408.0
5.275,15168.0,3072.0,-1408.0
5.2775,15168.0,3072.0,-1408.0
5.28,15168.0,2944.0,-1344.0
5.2825,15104.0,2944.0,-1472.0
5.285,15104.0,2944.0,-1472.0
5.2875,15104.0,2880.0,-1408.0
5.29,15104.0,3008.0,-1408.0
5.2925,15104.0,2944.0,-1408.0
5.295,15168.0,2944.0,-1408.0
5.2975,15104.0,2944.0,-1408.0
5.3,15168.0,2880.0,-1472.0
5.3025,15168.0,2880.0,-1408.0
5.305,15168.0,2944.0,-1472.0
5.3075,15168.0,2880.0,-1472.0
5.31,15104.0,2880.0,-1536.0
5.3125,15168.0,2880.0,-1472.0
5.315,15168.0,2944.0,-1472.0
5.3175,15168.0,2944.0,-1536.0
5.32,15104.0,2880.0,-1536.0
5.3225,15104.0,2880.0,-1472.0
5.325,15104.0,2816.0,-1536.0
5.3275,15104.0,2880.0,-1536.0
5.33,15104.0,2880.0,-1472.0
5.3325,15104.0,2944.0,-1472.0
5.335,15104.0,2944.0,-1472.0
5.3375,15104.0,2944.0,-1408.0
5.34,15104.0,2944.0,-1408.0
5.3425,15104.0,2944.0,-1408.0
5.345,15168.0,3008.0,-1472.0
5.3475,15168.0,2880.0,-1408.0
5.35,15168.0,2880.0,-1408.0
5.3525,15168.0,2944.0,-1472.0
5.355,15168.0,2944.0,-1536.0
5.3575,15104.0,3008.0,-1536.0
5.36,15104.0,2944.0,-1536.0
5.3625,15104.0,3008.0,-1536.0
5.365,15104.0,2944.0,-1536.0
5.3675,15104.0,2880.0,-1536.0
5.37,15104.0,2944.0,-1536.0
5.3725,15104.0,2944.0,-1600.0
5.375,15040.0,2944.0,-1536.0
5.3775,15104.0,2880.0,-1536.0
5.38,15104.0,2880.0,-1600.0
5.3825,15104.0,2880.0,-1600.0
5.385,15104.0,2944.0,-1536.0
5.3875,15104.0,2944.0,-1472.0
5.39,15168.0,2944.0,-1472.0
5.3925,15168.0,2944.0,-1472.0
5.395,15104.0,3008.0,-1472.0
5.3975,15040.0,3008.0,-1536.0
5.4,15040.0,3008.0,-1536.0
5.4025,15040.0,3072.0,-1536.0
5.405,15040.0,3008.0,-1536.0
5.4075,15040.0,3008.0,-1536.0
5.41,15168.0,3008.0,-1664.0
5.4125,15104.0,3008.0,-1600.0
5.415,15104.0,3008.0,-1664.0
5.4175,15104.0,2944.0,-1728.0
5.42,15104.0,2880.0,-1728.0
5.4225,15104.0,2944.0,-1664.0
5.425,15104.0,2944.0,-1600.0
5.4275,15168.0,2944.0,-1600.0
5.43,15104.0,3008.0,-1600.0
5.4325,15104.0,2944.0,-1600.0
5.435,15168.0,2944.0,-1600.0
5.4375,15232.0,3008.0,-1600.0
5.44,15168.0,3008.0,-1664.0
5.4425,15168.0,3008.0,-1728.0
5.445,15104.0,3008.0,-1728.0
5.4475,15104.0,3008.0,-1600.0
5.45,15168.0,3008.0,-1664.0
5.4525,15232.0,2944.0,-1664.0
5.455,15168.0,2944.0,-1728.0
5.4575,15168.0,3008.0,-1728.0
5.46,15168.0,2944.0,-1728.0
5.4625,15104.0,3008.0,-1664.0
5.465,15168.0,3008.0,-1664.0
5.4675,15104.0,2944.0,-1664.0
5.47,15104.0,2944.0,-1664.0
5.4725,15104.0,2944.0,-1664.0
5.475,15168.0,2944.0,-1664.0
5.4775,15168.0,2816.0,-1664.0
5.48,15168.0,2880.0,-1600.0
5.4825,15168.0,2880.0,-1600.0
5.485,15168.0,2880.0,-1600.0
5.4875,15104.0,2944.0,-1728.0
5.49,15168.0,2944.0,-1728.0
5.4925,15168.0,2880.0,-1664.0
5.495,15040.0,2944.0,-1600.0
5.4975,15168.0,2944.0,-1728.0
5.5,15168.0,2944.0,-1664.0
5.5025,15168.0,2944.0,-1664.0
5.505,15168.0,2944.0,-1664.0
5.5075,15168.0,3008.0,-1600.0
5.51,15168.0,3008.0,-1600.0
5.5125,15232.0,3008.0,-1664.0
5.515,15168.0,3008.0,-1600.0
5.5175,15232.0,2944.0,-1664.0
5.52,15232.0,2880.0,-1664.0
5.5225,15168.0,2880.0,-1664.0
5.525,15168.0,2816.0,-1600.0
5.5275,15104.0,2816.0,-1664.0
5.53,15168.0,2816.0,-1600.0
5.5325,15232.0,2816.0,-1600.0
5.535,15232.0,2688.0,-1664.0
5.5375,15232.0,2752.0,-1664.0
5.54,15168.0,2816.0,-1664.0
5.5425,15168.0,2752.0,-1728.0
5.545,15168.0,2816.0,-1664.0
5.5475,15168.0,2880.0,-1600.0
5.55,15168.0,2880.0,-1600.0
5.5525,15168.0,2880.0,-1600.0
5.555,15104.0,2880.0,-1600.0
5.5575,15168.0,2880.0,-1600.0
5.56,15232.0,2880.0,-1600.0
5.5625,15168.0,2880.0,-1664.0
5.565,15168.0,2880.0,-1600.0
5.5675,15104.0,2880.0,-1664.0
5.57,15104.0,2880.0,-1664.0
5.5725,15104.0,2880.0,-1664.0
5.575,15040.0,2880.0,-1664.0
5.5775,15104.0,2816.0,-1600.0
5.58,15040.0,2880.0,-1600.0
5.5825,15040.0,2880.0,-1600.0
5.585,14976.0,2752.0,-1728.0
5.5875,14976.0,2752.0,-1600.0
5.59,15040.0,2752.0,-1600.0
5.5925,15040.0,2816.0,-1600.0
5.595,15040.0,2752.0,-1664.0
5.5975,15040.0,2752.0,-1600.0
5.6,15040.0,2816.0,-1664.0
5.6025,15104.0,2816.0,-1664.0
5.605,15040.0,2816.0,-1600.0
5.6075,15104.0,2752.0,-1600.0
5.61,15040.0,2816.0,-1664.0
5.6125,15104.0,2752.0,-1664.0
5.615,15104.0,2816.0,-1664.0
5.6175,15104.0,2752.0,-1600.0
5.62,15168.0,2688.0,-1600.0
5.6225,15104.0,2752.0,-1600.0
5.625,15104.0,2688.0,-1600.0
5.6275,15104.0,2688.0,-1600.0
5.63,15040.0,2688.0,-1664.0
5.6325,15104.0,2688.0,-1600.0
5.635,15104.0,2752.0,-1600.0
5.6375,15104.0,2752.0,-1600.0
5.64,15104.0,2624.0,-1536.0
5.6425,15104.0,2688.0,-1600.0
5.645,15168.0,2688.0,-1536.0
5.6475,15104.0,2688.0,-1600.0
5.65,15168.0,2752.0,-1536.0
5.6525,15168.0,2688.0,-1600.0
5.655,15168.0,2624.0,-1600.0
5.6575,15168.0,2624.0,-1600.0
5.66,15168.0,2688.0,-1600.0
5.6625,15296.0,2688.0,-1664.0
5.665,15232.0,2752.0,-1536.0
5.6675,15232.0,2688.0,-1536.0
5.67,15296.0,2688.0,-1600.0
5.6725,15296.0,2688.0,-1536.0
5.675,15232.0,2752.0,-1536.0
5.6775,15232.0,2752.0,-1536.0
5.68,15168.0,2688.0,-1536.0
5.6825,15168.0,2752.0,-1600.0
5.685,15168.0,2688.0,-1536.0
5.6875,15168.0,2816.0,-1536.0
5.69,15104.0,2752.0,-1536.0
5.6925,15040.0,2688.0,-1536.0
5.695,15104.0,2688.0,-1536.0
5.6975,15104.0,2688.0,-1472.0
5.7,15104.0,2624.0,-1472.0
5.7025,15168.0,2688.0,-1408.0
5.705,15104.0,2688.0,-1472.0
5.7075,15104.0,2752.0,-1472.0
5.71,15104.0,2816.0,-1472.0
5.7125,14976.0,2752.0,-1472.0
5.715,15040.0,2816.0,-1472.0
5.7175,15040.0,2816.0,-1472.0
5.72,15104.0,2752.0,-1408.0
5.7225,15040.0,2752.0,-1472.0
5.725,15040.0,2688.0,-1408.0
5.7275,15040.0,2688.0,-1408.0
5.73,15104.0,2688.0,-1408.0
5.7325,15104.0,2752.0,-1408.0
5.735,15104.0,2688.0,-1472.0
5.7375,15168.0,2752.0,-1472.0
5.74,15104.0,2688.0,-1472.0
5.7425,15104.0,2688.0,-1472.0
5.745,15104.0,2688.0,-1408.0
5.7475,15168.0,2688.0,-1472.0
5.75,15168.0,2752.0,-1472.0
5.7525,15104.0,2688.0,-1472.0
5.755,15104.0,2688.0,-1472.0
5.7575,15104.0,2752.0,-1408.0
5.76,15104.0,2688.0,-1408.0
5.7625,15168.0,2624.0,-1408.0
5.765,15168.0,2688.0,-1408.0
5.7675,15104.0,2752.0,-1344.0
5.77,15168.0,2688.0,-1408.0
5.7725,15168.0,2752.0,-1408.0
5.775,15168.0,2688.0,-1344.0
5.7775,15168.0,2688.0,-1344.0
5.78,15232.0,2752.0,-1344.0
5.7825,15232.0,2752.0,-1280.0
5.785,15232.0,2752.0,-1280.0
5.7875,15168.0,2752.0,-1344.0
5.79,15168.0,2752.0,-1344.0
5.7925,15168.0,2816.0,-1344.0
5.795,15232.0,2816.0,-1280.0
5.7975,15232.0,2816.0,-1280.0
5.8,15232.0,2816.0,-1280.0
5.8025,15168.0,2752.0,-1280.0
5.805,15104.0,2752.0,-1344.0
5.8075,15104.0,2752.0,-1344.0
5.81,15104.0,2752.0,-1344.0
5.8125,15168.0,2752.0,-1344.0
5.815,15232.0,2752.0,-1408.0
5.8175,15168.0,2752.0,-1408.0
5.82,15104.0,2816.0,-1408.0
5.8225,15168.0,2752.0,-1408.0
5.825,15168.0,2752.0,-1408.0
5.8275,15168.0,2688.0,-1472.0
5.83,15168.0,2688.0,-1472.0
5.8325,15168.0,2624.0,-1408.0
5.835,15168.0,2688.0,-1536.0
5.8375,15168.0,2688.0,-1536.0
5.84,15232.0,2752.0,-1472.0
5.8425,15232.0,2688.0,-1536.0
5.845,15168.0,2688.0,-1472.0
5.8475,15232.0,2688.0,-1472.0
5.85,15168.0,2752.0,-1472.0
5.8525,15232.0,2752.0,-1472.0
5.855,15168.0,2752.0,-1472.0
5.8575,15168.0,2752.0,-1408.0
5.86,15168.0,2816.0,-1408.0
5.8625,15232.0,2752.0,-1408.0
5.865,15296.0,2752.0,-1408.0
5.8675,15296.0,2752.0,-1472.0
5.87,15232.0,2688.0,-1536.0
5.8725,15168.0,2688.0,-1536.0
5.875,15232.0,2752.0,-1536.0
5.8775,15232.0,2752.0,-1472.0
5.88,15296.0,2752.0,-1536.0
5.8825,15232.0,2752.0,-1536.0
5.885,15232.0,2688.0,-1536.0
5.8875,15232.0,2752.0,-1536.0
5.89,15232.0,2816.0,-1536.0
5.8925,15232.0,2816.0,-1600.0
5.895,15296.0,2816.0,-1536.0
5.8975,15232.0,2816.0,-1536.0
5.9,15232.0,2752.0,-1408.0
5.9025,15232.0,2816.0,-1472.0
5.905,15232.0,2816.0,-1536.0
5.9075,15232.0,2816.0,-1536.0
5.91,15232.0,2816.0,-1600.0
5.9125,15232.0,2816.0,-1472.0
5.915,15168.0,2880.0,-1472.0
5.9175,15232.0,2816.0,-1536.0
5.92,15232.0,2816.0,-1536.0
5.9225,15232.0,2816.0,-1536.0
5.925,15296.0,2752.0,-1536.0
5.9275,15232.0,2816.0,-1600.0
5.93,15168.0,2752.0,-1536.0
5.9325,15168.0,2752.0,-1536.0
5.935,15168.0,2816.0,-1536.0
5.9375,15168.0,2752.0,-1536.0
5.94,15232.0,2752.0,-1536.0
5.9425,15232.0,2816.0,-1536.0
5.945,15168.0,2816.0,-1536.0
5.9475,15232.0,2816.0,-1472.0
5.95,15232.0,2880.0,-1536.0
5.9525,15232.0,2816.0,-1472.0
5.955,15168.0,2880.0,-1536.0
5.9575,15232.0,2880.0,-1536.0
5.96,15232.0,2880.0,-1536.0
5.9625,15296.0,2880.0,-1536.0
5.965,15168.0,2816.0,-1536.0
5.9675,15168.0,2880.0,-1472.0
5.97,15168.0,2880.0,-1536.0
5.9725,15168.0,2880.0,-1536.0
5.975,15168.0,2816.0,-1600.0
5.9775,15104.0,2816.0,-1536.0
5.98,15104.0,2816.0,-1600.0
5.9825,15104.0,2880.0,-1536.0
5.985,15040.0,2752.0,-1536.0
5.9875,15104.0,2752.0,-1600.0
5.99,15104.0,2752.0,-1600.0
5.9925,15104.0,2816.0,-1536.0
5.995,15104.0,2880.0,-1536.0
5.9975,15104.0,2816.0,-1536.0
6.0,15104.0,2816.0,-1600.0
6.0025,15168.0,2816.0,-1600.0
6.005,15168.0,2880.0,-1600.0
6.0075,15168.0,2880.0,-1600.0
6.01,15232.0,2880.0,-1536.0
6.0125,15232.0,2880.0,-1536.0
6.015,15168.0,2880.0,-1536.0
6.0175,15168.0,2880.0,-1600.0
6.02,15168.0,2944.0,-1664.0
6.0225,15168.0,2880.0,-1600.0
6.025,15168.0,2880.0,-1600.0
6.0275,15168.0,2880.0,-1600.0
6.03,15168.0,2880.0,-1600.0
6.0325,15168.0,2880.0,-1664.0
6.035,15168.0,2816.0,-1600.0
6.0375,15168.0,2816.0,-1600.0
6.04,15168.0,2816.0,-1536.0
6.0425,15168.0,2816.0,-1600.0
6.045,15168.0,2816.0,-1600.0
6.0475,15232.0,2880.0,-1600.0
6.05,15232.0,2816.0,-1600.0
6.0525,15232.0,2816.0,-1600.0
6.055,15232.0,2880.0,-1600.0
6.0575,15232.0,2816.0,-1600.0
6.06,15232.0,2880.0,-1536.0
6.0625,15232.0,2880.0,-1536.0
6.065,15104.0,2880.0,-1536.0
6.0675,15168.0,2816.0,-1536.0
6.07,15168.0,2816.0,-1600.0
6.0725,15168.0,2816.0,-1600.0
6.075,15168.0,2816.0,-1664.0
6.0775,15168.0,2816.0,-1600.0
6.08,15168.0,2816.0,-1664.0
6.0825,15104.0,2816.0,-1664.0
6.085,15104.0,2816.0,-1600.0
6.0875,15104.0,2752.0,-1664.0
6.09,15104.0,2816.0,-1664.0
6.0925,15168.0,2816.0,-1664.0
6.095,15104.0,2752.0,-1664.0
6.0975,15104.0,2752.0,-1664.0
6.1,15168.0,2752.0,-1600.0
6.1025,15168.0,2752.0,-1600.0
6.105,15168.0,2752.0,-1600.0
6.1075,15168.0,2688.0,-1600.0
6.11,15168.0,2752.0,-1664.0
6.1125,15168.0,2752.0,-1664.0
6.115,15168.0,2752.0,-1600.0
6.1175,15168.0,2752.0,-1536.0
6.12,15104.0,2752.0,-1600.0
6.1225,15168.0,2752.0,-1600.0
6.125,15168.0,2752.0,-1600.0
6.1275,15168.0,2752.0,-1600.0
6.13,15168.0,2752.0,-1600.0
6.1325,15104.0,2752.0,-1664.0
6.135,15104.0,2752.0,-1664.0
6.1375,15104.0,2688.0,-1664.0
6.14,15040.0,2688.0,-1664.0
6.1425,14976.0,2688.0,-1664.0
6.145,15104.0,2624.0,-1728.0
6.1475,15168.0,2688.0,-1664.0
6.15,15168.0,2688.0,-1728.0
6.1525,15168.0,2688.0,-1728.0
6.155,15104.0,2752.0,-1728.0
6.1575,15104.0,2688.0,-1728.0
6.16,15104.0,2688.0,-1664.0
6.1625,15040.0,2752.0,-1600.0
6.165,15040.0,2752.0,-1600.0
6.1675,15104.0,2752.0,-1600.0
6.17,15040.0,2752.0,-1600.0
6.1725,15040.0,2816.0,-1600.0
6.175,15040.0,2816.0,-1600.0
6.1775,15040.0,2816.0,-1664.0
6.18,15040.0,2816.0,-1600.0
6.1825,15040.0,2816.0,-1600.0
6.185,15104.0,2816.0,-1600.0
6.1875,15040.0,2816.0,-1600.0
6.19,15104.0,2816.0,-1536.0
6.1925,15040.0,2688.0,-1536.0
6.195,15040.0,2752.0,-1600.0
6.1975,14976.0,2752.0,-1600.0
6.2,15040.0,2752.0,-1600.0
6.2025,15104.0,2752.0,-1600.0
6.205,15104.0,2752.0,-1600.0
6.2075,15104.0,2752.0,-1600.0
6.21,15168.0,2752.0,-1600.0
6.2125,15168.0,2752.0,-1600.0
6.215,15168.0,2752.0,-1664.0
6.2175,15168.0,2752.0,-1600.0
6.22,15232.0,2752.0,-1536.0
6.2225,15168.0,2752.0,-1600.0
6.225,15232.0,2816.0,-1728.0
6.2275,15232.0,2688.0,-1728.0
6.23,15232.0,2688.0,-1664.0
6.2325,15232.0,2688.0,-1792.0
6.235,15296.0,2688.0,-1664.0
6.2375,15296.0,2752.0,-1664.0
6.24,15296.0,2752.0,-1536.0
6.2425,15296.0,2816.0,-1600.0
6.245,15296.0,2816.0,-1600.0
6.2475,15296.0,2816.0,-1600.0
6.25,15296.0,2752.0,-1536.0
6.2525,15232.0,2752.0,-1472.0
6.255,15232.0,2816.0,-1408.0
6.2575,15232.0,2816.0,-1408.0
6.26,15296.0,2752.0,-1344.0
6.2625,15232.0,2752.0,-1344.0
6.265,15296.0,2752.0,-1408.0
6.2675,15296.0,2752.0,-1408.0
6.27,15232.0,2816.0,-1408.0
6.2725,15232.0,2816.0,-1408.0
6.275,15232.0,2816.0,-1408.0
6.2775,15232.0,2752.0,-1280.0
6.28,15232.0,2752.0,-1408.0
6.2825,15296.0,2816.0,-1344.0
6.285,15296.0,2880.0,-1280.0
6.2875,15296.0,2752.0,-1280.0
6.29,15232.0,2816.0,-1344.0
6.2925,15232.0,2816.0,-1408.0
6.295,15296.0,2816.0,-1408.0
6.2975,15296.0,2752.0,-1344.0
6.3,15232.0,2752.0,-1344.0
6.3025,15296.0,2816.0,-1280.0
6.305,15232.0,2816.0,-1408.0
6.3075,15296.0,2752.0,-1408.0
6.31,15296.0,2816.0,-1344.0
6.3125,15296.0,2816.0,-1408.0
6.315,15296.0,2752.0,-1408.0
6.3175,15296.0,2816.0,-1408.0
6.32,15296.0,2752.0,-1344.0
6.3225,15296.0,2752.0,-1408.0
6.325,15296.0,2752.0,-1408.0
6.3275,15296.0,2752.0,-1408.0
6.33,15296.0,2752.0,-1408.0
6.3325,15296.0,2752.0,-1280.0
6.335,15296.0,2816.0,-1280.0
6.3375,15296.0,2752.0,-1280.0
6.34,15296.0,2752.0,-1280.0
6.3425,15296.0,2816.0,-1280.0
6.345,15232.0,2752.0,-1344.0
6.3475,15232.0,2752.0,-1216.0
6.35,15232.0,2752.0,-1216.0
6.3525,15232.0,2752.0,-1216.0
6.355,15232.0,2752.0,-1216.0
6.3575,15168.0,2752.0,-1216.0
6.36,15232.0,2752.0,-1216.0
6.3625,15232.0,2752.0,-1216.0
6.365,15168.0,2752.0,-1280.0
6.3675,15168.0,2752.0,-1280.0
6.37,15168.0,2752.0,-1216.0
6.3725,15232.0,2688.0,-1344.0
6.375,15232.0,2816.0,-1280.0
6.3775,15168.0,2752.0,-1280.0
6.38,15232.0,2752.0,-1280.0
6.3825,15232.0,2688.0,-1280.0
6.385,15232.0,2688.0,-1280.0
6.3875,15232.0,2688.0,-1280.0
6.39,15168.0,2816.0,-1280.0
6.3925,15168.0,2752.0,-1280.0
6.395,15168.0,2752.0,-1344.0
6.3975,15168.0,2688.0,-1344.0
6.4,15168.0,2752.0,-1408.0
6.4025,15168.0,2688.0,-1344.0
6.405,15168.0,2688.0,-1344.0
6.4075,15168.0,2752.0,-1344.0
6.41,15168.0,2688.0,-1280.0
6.4125,15168.0,2688.0,-1280.0
6.415,15168.0,2688.0,-1344.0
6.4175,15232.0,2624.0,-1280.0
6.42,15168.0,2688.0,-1280.0
6.4225,15168.0,2624.0,-1344.0
6.425,15168.0,2624.0,-1280.0
6.4275,15168.0,2688.0,-1216.0
6.43,15168.0,2688.0,-1280.0
6.4325,15104.0,2624.0,-1216.0
6.435,15168.0,2688.0,-1280.0
6.4375,15168.0,2688.0,-1216.0
6.44,15232.0,2688.0,-1280.0
6.4425,15232.0,2688.0,-1280.0
6.445,15104.0,2752.0,-1280.0
6.4475,15168.0,2752.0,-1280.0
6.45,15168.0,2752.0,-1280.0
6.4525,15104.0,2816.0,-1344.0
6.455,15168.0,2816.0,-1344.0
6.4575,15168.0,2880.0,-1408.0
6.46,15168.0,2816.0,-1344.0
6.4625,15104.0,2816.0,-1344.0
6.465,15104.0,2816.0,-1216.0
6.4675,15104.0,2816.0,-1280.0
6.47,15104.0,2688.0,-1216.0
6.4725,15168.0,2752.0,-1280.0
6.475,15168.0,2688.0,-1216.0
6.4775,15168.0,2752.0,-1280.0
6.48,15104.0,2752.0,-1344.0
6.4825,15104.0,2752.0,-1408.0
6.485,15168.0,2752.0,-1408.0
6.4875,15168.0,2752.0,-1408.0
6.49,15168.0,2752.0,-1408.0
6.4925,15168.0,2688.0,-1408.0
6.495,15168.0,2624.0,-1408.0
6.4975,15168.0,2624.0,-1408.0
6.5,15104.0,2688.0,-1408.0
6.5025,15168.0,2688.0,-1536.0
6.505,15104.0,2752.0,-1536.0
6.5075,15104.0,2688.0,-1536.0
6.51,15104.0,2752.0,-1472.0
6.5125,15104.0,2816.0,-1472.0
6.515,15104.0,2752.0,-1536.0
6.5175,15104.0,2752.0,-1600.0
6.52,15104.0,2752.0,-1536.0
6.5225,15168.0,2752.0,-1536.0
6.525,15168.0,2688.0,-1472.0
6.5275,15168.0,2752.0,-1536.0
6.53,15168.0,2688.0,-1472.0
6.5325,15168.0,2688.0,-1536.0
6.535,15168.0,2752.0,-1600.0
6.5375,15232.0,2816.0,-1536.0
6.54,15232.0,2752.0,-1536.0
6.5425,15168.0,2752.0,-1536.0
6.545,15232.0,2752.0,-1472.0
6.5475,15232.0,2688.0,-1536.0
6.55,15168.0,2752.0,-1600.0
6.5525,15232.0,2688.0,-1600.0
6.555,15168.0,2752.0,-1600.0
6.5575,15104.0,2752.0,-1600.0
6.56,15168.0,2816.0,-1536.0
6.5625,15168.0,2752.0,-1536.0
6.565,15168.0,2688.0,-1536.0
6.5675,15168.0,2624.0,-1600.0
6.57,15168.0,2688.0,-1600.0
6.5725,15168.0,2624.0,-1600.0
6.575,15168.0,2624.0,-1536.0
6.5775,15232.0,2688.0,-1536.0
6.58,15168.0,2688.0,-1536.0
6.5825,15168.0,2624.0,-1536.0
6.585,15232.0,2624.0,-1600.0
6.5875,15168.0,2624.0,-1600.0
6.59,15168.0,2624.0,-1600.0
6.5925,15168.0,2560.0,-1472.0
6.595,15168.0,2624.0,-1536.0
6.5975,15168.0,2560.0,-1600.0
6.6,15104.0,2560.0,-1600.0
6.6025,15040.0,2624.0,-1600.0
6.605,15104.0,2624.0,-1536.0
6.6075,15104.0,2624.0,-1600.0
6.61,15104.0,2624.0,-1600.0
6.6125,15104.0,2688.0,-1472.0
6.615,15040.0,2688.0,-1536.0
6.6175,15040.0,2688.0,-1536.0
6.62,15040.0,2688.0,-1536.0
6.6225,15104.0,2752.0,-1600.0
6.625,15040.0,2688.0,-1600.0
6.6275,15040.0,2688.0,-1600.0
6.63,15040.0,2688.0,-1664.0
6.6325,15040.0,2624.0,-1600.0
6.635,15040.0,2624.0,-1600.0
6.6375,15040.0,2560.0,-1600.0
6.64,15040.0,2560.0,-1664.0
6.6425,15104.0,2624.0,-1600.0
6.645,15040.0,2624.0,-1600.0
6.6475,15104.0,2624.0,-1600.0
6.65,15104.0,2688.0,-1600.0
6.6525,15040.0,2688.0,-1664.0
6.655,15040.0,2688.0,-1536.0
6.6575,15104.0,2688.0,-1536.0
6.66,15104.0,2688.0,-1600.0
6.6625,15168.0,2624.0,-1600.0
6.665,15168.0,2624.0,-1600.0
6.6675,15232.0,2624.0,-1600.0
6.67,15232.0,2624.0,-1600.0
6.6725,15232.0,2624.0,-1600.0
6.675,15168.0,2624.0,-1600.0
6.6775,15232.0,2688.0,-1664.0
6.68,15168.0,2624.0,-1600.0
6.6825,15168.0,2688.0,-1600.0
6.685,15168.0,2624.0,-1536.0
6.6875,15104.0,2624.0,-1536.0
6.69,15168.0,2624.0,-1600.0
6.6925,15232.0,2688.0,-1600.0
6.695,15232.0,2688.0,-1600.0
6.6975,15296.0,2688.0,-1536.0
6.7,15232.0,2688.0,-1536.0
6.7025,15232.0,2752.0,-1472.0
6.705,15232.0,2752.0,-1472.0
6.7075,15296.0,2816.0,-1536.0
6.71,15296.0,2752.0,-1472.0
6.7125,15296.0,2816.0,-1472.0
6.715,15232.0,2752.0,-1472.0
6.7175,15296.0,2816.0,-1536.0
6.72,15296.0,2752.0,-1536.0
6.7225,15296.0,2752.0,-1536.0
6.725,15296.0,2816.0,-1472.0
6.7275,15360.0,2880.0,-1536.0
6.73,15232.0,2880.0,-1536.0
6.7325,15296.0,2880.0,-1536.0
6.735,15296.0,2880.0,-1600.0
6.7375,15296.0,2880.0,-1472.0
6.74,15296.0,2880.0,-1536.0
6.7425,15232.0,2816.0,-1472.0
6.745,15232.0,2816.0,-1536.0
6.7475,15232.0,2880.0,-1472.0
6.75,15232.0,2880.0,-1472.0
6.7525,15232.0,2880.0,-1472.0
6.755,15232.0,2880.0,-1472.0
6.7575,15232.0,2816.0,-1472.0
6.76,15232.0,2816.0,-1408.0
6.7625,15232.0,2816.0,-1472.0
6.765,15232.0,2880.0,-1408.0
6.7675,15232.0,2880.0,-1408.0
6.77,15168.0,2880.0,-1408.0
6.7725,15168.0,2816.0,-1408.0
6.775,15168.0,2816.0,-1408.0
6.7775,15232.0,2816.0,-1344.0
6.78,15168.0,2752.0,-1408.0
6.7825,15232.0,2816.0,-1344.0
6.785,15168.0,2816.0,-1408.0
6.7875,15104.0,2816.0,-1344.0
6.79,15168.0,2880.0,-1408.0
6.7925,15168.0,2880.0,-1280.0
6.795,15232.0,2880.0,-1344.0
6.7975,15232.0,2880.0,-1344.0
6.8,15168.0,2944.0,-1344.0
6.8025,15104.0,3008.0,-1280.0
6.805,15168.0,2944.0,-1344.0
6.8075,15232.0,2944.0,-1344.0
6.81,15232.0,3008.0,-1344.0
6.8125,15232.0,3008.0,-1280.0
6.815,15232.0,3008.0,-1280.0
6.8175,15232.0,3008.0,-1280.0
6.82,15296.0,3008.0,-1280.0
6.8225,15296.0,3008.0,-1344.0
6.825,15296.0,3008.0,-1280.0
6.8275,15232.0,3008.0,-1344.0
6.83,15296.0,3008.0,-1280.0
6.8325,15296.0,3008.0,-1280.0
6.835,15296.0,3008.0,-1280.0
6.8375,15296.0,3008.0,-1216.0
6.84,15360.0,3008.0,-1216.0
6.8425,15360.0,3008.0,-1216.0
6.845,15360.0,2944.0,-1280.0
6.8475,15360.0,3008.0,-1280.0
6.85,15360.0,3008.0,-1216.0
6.8525,15360.0,3008.0,-1280.0
6.855,15296.0,3008.0,-1216.0
6.8575,15296.0,3008.0,-1216.0
6.86,15296.0,3008.0,-1216.0
6.8625,15296.0,3072.0,-1216.0
6.865,15232.0,3072.0,-1216.0
6.8675,15296.0,3072.0,-1216.0
6.87,15296.0,3072.0,-1216.0
6.8725,15296.0,3008.0,-1216.0
6.875,15296.0,3072.0,-1216.0
6.8775,15360.0,3136.0,-1216.0
6.88,15360.0,3136.0,-1216.0
6.8825,15360.0,3072.0,-1280.0
6.885,15424.0,3072.0,-1280.0
6.8875,15424.0,3072.0,-1280.0
6.89,15360.0,3072.0,-1344.0
6.8925,15360.0,3072.0,-1344.0
6.895,15360.0,3072.0,-1408.0
6.8975,15360.0,3072.0,-1344.0
6.9,15424.0,3072.0,-1344.0
6.9025,15360.0,3008.0,-1280.0
6.905,15424.0,3072.0,-1344.0
6.9075,15360.0,3008.0,-1280.0
6.91,15360.0,3008.0,-1344.0
6.9125,15360.0,3008.0,-1408.0
6.915,15360.0,3072.0,-1344.0
6.9175,15360.0,3072.0,-1408.0
6.92,15296.0,3008.0,-1408.0
6.9225,15296.0,3008.0,-1344.0
6.925,15296.0,3008.0,-1344.0
6.9275,15296.0,3072.0,-1344.0
6.93,15296.0,3008.0,-1344.0
6.9325,15168.0,3008.0,-1344.0
6.935,15232.0,3008.0,-1280.0
6.9375,15232.0,3008.0,-1344.0
6.94,15232.0,3008.0,-1344.0
6.9425,15296.0,2944.0,-1344.0
6.945,15232.0,2944.0,-1344.0
6.9475,15232.0,2944.0,-1344.0
6.95,15168.0,2944.0,-1344.0
6.9525,15232.0,2944.0,-1344.0
6.955,15232.0,3008.0,-1344.0
6.9575,15232.0,2944.0,-1280.0
6.96,15232.0,3008.0,-1280.0
6.9625,15296.0,3008.0,-1344.0
6.965,15360.0,3008.0,-1280.0
6.9675,15296.0,2944.0,-1344.0
6.97,15360.0,3008.0,-1344.0
6.9725,15360.0,3008.0,-1344.0
6.975,15296.0,3008.0,-1344.0
6.9775,15296.0,2944.0,-1344.0
6.98,15296.0,3008.0,-1344.0
6.9825,15232.0,2944.0,-1408.0
6.985,15296.0,2944.0,-1344.0
6.9875,15296.0,2944.0,-1408.0
6.99,15296.0,3008.0,-1472.0
6.9925,15296.0,2944.0,-1472.0
6.995,15296.0,2944.0,-1344.0
6.9975,15296.0,2944.0,-1408.0
7.0,15296.0,2880.0,-1344.0
7.0025,15296.0,2944.0,-1344.0
7.005,15296.0,2944.0,-1408.0
7.0075,15232.0,2880.0,-1472.0
7.01,15296.0,2880.0,-1472.0
7.0125,15296.0,2944.0,-1472.0
7.015,15232.0,2944.0,-1408.0
7.0175,15168.0,2880.0,-1472.0
7.02,15232.0,2880.0,-1472.0
7.0225,15232.0,2944.0,-1408.0
7.025,15168.0,2880.0,-1472.0
7.0275,15168.0,2944.0,-1472.0
7.03,15168.0,2880.0,-1472.0
7.0325,15232.0,2880.0,-1536.0
7.035,15296.0,2816.0,-1472.0
7.0375,15232.0,2880.0,-1536.0
7.04,15232.0,2880.0,-1472.0
7.0425,15232.0,2816.0,-1408.0
7.045,15168.0,2880.0,-1408.0
7.0475,15168.0,2752.0,-1472.0
7.05,15168.0,2880.0,-1472.0
7.0525,15168.0,2816.0,-1536.0
7.055,15168.0,2880.0,-1408.0
7.0575,15168.0,2880.0,-1408.0
7.06,15232.0,2880.0,-1472.0
7.0625,15168.0,2880.0,-1408.0
7.065,15168.0,2880.0,-1472.0
7.0675,15232.0,2752.0,-1536.0
7.07,15232.0,2816.0,-1536.0
7.0725,15168.0,2816.0,-1536.0
7.075,15232.0,2816.0,-1536.0
7.0775,15232.0,2816.0,-1408.0
7.08,15168.0,2816.0,-1408.0
7.0825,15168.0,2880.0,-1344.0
7.085,15232.0,2880.0,-1408.0
7.0875,15168.0,2816.0,-1408.0
7.09,15232.0,2944.0,-1408.0
7.0925,15232.0,2880.0,-1408.0
7.095,15104.0,2816.0,-1472.0
7.0975,15104.0,2816.0,-1472.0
7.1,15104.0,2880.0,-1408.0
7.1025,15168.0,2816.0,-1408.0
7.105,15104.0,2816.0,-1472.0
7.1075,15168.0,2880.0,-1472.0
7.11,15104.0,2816.0,-1536.0
7.1125,15104.0,2816.0,-1472.0
7.115,15168.0,2816.0,-1472.0
7.1175,15168.0,2752.0,-1408.0
7.12,15168.0,2816.0,-1408.0
7.1225,15168.0,2816.0,-1472.0
7.125,15232.0,2752.0,-1472.0
7.1275,15232.0,2752.0,-1536.0
7.13,15168.0,2752.0,-1536.0
7.1325,15104.0,2752.0,-1536.0
7.135,15168.0,2816.0,-1600.0
7.1375,15104.0,2816.0,-1600.0
7.14,15168.0,2752.0,-1536.0
7.1425,15168.0,2752.0,-1600.0
7.145,15104.0,2752.0,-1600.0
7.1475,15168.0,2816.0,-1600.0
7.15,15104.0,2816.0,-1472.0
7.1525,15168.0,2816.0,-1472.0
7.155,15232.0,2752.0,-1472.0
7.1575,15168.0,2752.0,-1536.0
7.16,15168.0,2752.0,-1536.0
7.1625,15232.0,2688.0,-1600.0
7.165,15232.0,2688.0,-1600.0
7.1675,15232.0,2688.0,-1664.0
7.17,15168.0,2624.0,-1600.0
7.1725,15232.0,2688.0,-1664.0
7.175,15168.0,2624.0,-1600.0
7.1775,15232.0,2688.0,-1664.0
7.18,15168.0,2688.0,-1600.0
7.1825,15168.0,2624.0,-1600.0
7.185,15168.0,2624.0,-1664.0
7.1875,15168.0,2624.0,-1664.0
7.19,15104.0,2688.0,-1600.0
7.1925,15168.0,2688.0,-1600.0
7.195,15104.0,2624.0,-1600.0
7.1975,15168.0,2560.0,-1600.0
7.2,15168.0,2624.0,-1600.0
7.2025,15168.0,2688.0,-1600.0
7.205,15232.0,2752.0,-1600.0
7.2075,15168.0,2688.0,-1600.0
7.21,15232.0,2752.0,-1600.0
7.2125,15168.0,2816.0,-1536.0
7.215,15104.0,2752.0,-1536.0
7.2175,15168.0,2752.0,-1536.0
7.22,15168.0,2752.0,-1536.0
7.2225,15168.0,2752.0,-1536.0
7.225,15232.0,2752.0,-1536.0
7.2275,15232.0,2752.0,-1664.0
7.23,15232.0,2752.0,-1664.0
7.2325,15168.0,2688.0,-1664.0
7.235,15104.0,2752.0,-1536.0
7.2375,15168.0,2752.0,-1600.0
7.24,15232.0,2816.0,-1664.0
7.2425,15168.0,2816.0,-1600.0
7.245,15232.0,2816.0,-1600.0
7.2475,15232.0,2752.0,-1600.0
7.25,15232.0,2752.0,-1600.0
7.2525,15168.0,2752.0,-1600.0
7.255,15168.0,2752.0,-1600.0
7.2575,15168.0,2752.0,-1600.0
7.26,15168.0,2752.0,-1536.0
7.2625,15168.0,2752.0,-1536.0
7.265,15168.0,2752.0,-1536.0
7.2675,15104.0,2688.0,-1536.0
7.27,15104.0,2752.0,-1472.0
7.2725,15104.0,2752.0,-1536.0
7.275,15168.0,2752.0,-1536.0
7.2775,15104.0,2752.0,-1600.0
7.28,15168.0,2688.0,-1600.0
7.2825,15168.0,2752.0,-1600.0
7.285,15168.0,2752.0,-1664.0
7.2875,15104.0,2816.0,-1664.0
7.29,15104.0,2816.0,-1600.0
7.2925,15104.0,2816.0,-1600.0
7.295,15104.0,2880.0,-1536.0
7.2975,15104.0,2816.0,-1664.0
7.3,15104.0,2816.0,-1664.0
7.3025,15104.0,2816.0,-1600.0
7.305,15168.0,2752.0,-1664.0
7.3075,15104.0,2816.0,-1664.0
7.31,15168.0,2752.0,-1600.0
7.3125,15104.0,2752.0,-1600.0
7.315,15104.0,2688.0,-1600.0
7.3175,15104.0,2688.0,-1664.0
7.32,15168.0,2752.0,-1728.0
7.3225,15232.0,2816.0,-1664.0
7.325,15168.0,2816.0,-1664.0
7.3275,15168.0,2752.0,-1600.0
7.33,15168.0,2816.0,-1600.0
7.3325,15168.0,2688.0,-1664.0
7.335,15168.0,2752.0,-1664.0
7.3375,15232.0,2752.0,-1600.0
7.34,15168.0,2688.0,-1600.0
7.3425,15168.0,2752.0,-1536.0
7.345,15168.0,2688.0,-1600.0
7.3475,15168.0,2752.0,-1536.0
7.35,15104.0,2816.0,-1600.0
7.3525,15104.0,2816.0,-1600.0
7.355,15168.0,2816.0,-1536.0
7.3575,15168.0,2816.0,-1536.0
7.36,15104.0,2816.0,-1472.0
7.3625,15168.0,2816.0,-1600.0
7.365,15168.0,2816.0,-1600.0
7.3675,15232.0,2816.0,-1600.0
7.37,15168.0,2816.0,-1600.0
7.3725,15168.0,2752.0,-1536.0
7.375,15232.0,2816.0,-1600.0
7.3775,15232.0,2816.0,-1600.0
7.38,15296.0,2816.0,-1600.0
7.3825,15232.0,2752.0,-1600.0
7.385,15296.0,2816.0,-1536.0
7.3875,15296.0,2752.0,-1536.0
7.39,15232.0,2752.0,-1600.0
7.3925,15232.0,2752.0,-1664.0
7.395,15296.0,2816.0,-1664.0
7.3975,15296.0,2752.0,-1600.0
7.4,15360.0,2752.0,-1536.0
7.4025,15296.0,2816.0,-1472.0
7.405,15232.0,2880.0,-1536.0
7.4075,15296.0,2816.0,-1536.0
7.41,15296.0,2752.0,-1536.0
7.4125,15232.0,2816.0,-1536.0
7.415,15232.0,2816.0,-1600.0
7.4175,15232.0,2880.0,-1600.0
7.42,15296.0,2816.0,-1536.0
7.4225,15232.0,2816.0,-1600.0
7.425,15232.0,2816.0,-1536.0
7.4275,15232.0,2880.0,-1600.0
7.43,15168.0,2816.0,-1600.0
7.4325,15168.0,2816.0,-1664.0
7.435,15296.0,2816.0,-1664.0
7.4375,15232.0,2752.0,-1664.0
7.44,15168.0,2752.0,-1664.0
7.4425,15168.0,2816.0,-1600.0
7.445,15168.0,2816.0,-1600.0
7.4475,15168.0,2752.0,-1600.0
7.45,15232.0,2752.0,-1600.0
7.4525,15296.0,2816.0,-1664.0
7.455,15232.0,2816.0,-1600.0
7.4575,15296.0,2752.0,-1664.0
7.46,15296.0,2752.0,-1664.0
7.4625,15296.0,2816.0,-1664.0
7.465,15168.0,2816.0,-1728.0
7.4675,15232.0,2752.0,-1728.0
7.47,15232.0,2816.0,-1664.0
7.4725,15296.0,2880.0,-1664.0
7.475,15296.0,2880.0,-1664.0
7.4775,15296.0,2816.0,-1664.0
7.48,15232.0,2880.0,-1664.0
7.4825,15296.0,2816.0,-1664.0
7.485,15296.0,2880.0,-1536.0
7.4875,15232.0,2880.0,-1600.0
7.49,15296.0,2880.0,-1664.0
7.4925,15296.0,2944.0,-1600.0
7.495,15296.0,2944.0,-1600.0
7.4975,15296.0,2880.0,-1664.0
7.5,15296.0,2880.0,-1600.0
7.5025,15232.0,2880.0,-1600.0
7.505,15296.0,2880.0,-1536.0
7.5075,15360.0,2880.0,-1472.0
7.51,15296.0,2880.0,-1472.0
7.5125,15232.0,2880.0,-1408.0
7.515,15232.0,2880.0,-1472.0
7.5175,15232.0,2944.0,-1408.0
7.52,15232.0,3008.0,-1472.0
7.5225,15296.0,2944.0,-1472.0
7.525,15296.0,2944.0,-1408.0
7.5275,15296.0,2944.0,-1472.0
7.53,15296.0,2944.0,-1472.0
7.5325,15360.0,2944.0,-1472.0
7.535,15296.0,2944.0,-1472.0
7.5375,15296.0,2944.0,-1472.0
7.54,15296.0,2944.0,-1408.0
7.5425,15296.0,2944.0,-1408.0
7.545,15296.0,2880.0,-1472.0
7.5475,15232.0,2880.0,-1472.0
7.55,15232.0,2880.0,-1344.0
7.5525,15296.0,2944.0,-1344.0
7.555,15232.0,2880.0,-1344.0
7.5575,15296.0,2880.0,-1344.0
7.56,15296.0,2880.0,-1344.0
7.5625,15296.0,2880.0,-1408.0
7.565,15232.0,2944.0,-1408.0
7.5675,15232.0,2944.0,-1344.0
7.57,15296.0,2880.0,-1344.0
7.5725,15232.0,2880.0,-1408.0
7.575,15232.0,2880.0,-1408.0
7.5775,15232.0,2816.0,-1472.0
7.58,15232.0,2880.0,-1472.0
7.5825,15296.0,2880.0,-1472.0
7.585,15296.0,2880.0,-1408.0
7.5875,15232.0,2880.0,-1408.0
7.59,15232.0,2880.0,-1408.0
7.5925,15168.0,2816.0,-1408.0
7.595,15168.0,2816.0,-1344.0
7.5975,15104.0,2880.0,-1344.0
7.6,15168.0,2816.0,-1344.0
7.6025,15168.0,2880.0,-1344.0
7.605,15168.0,2880.0,-1344.0
7.6075,15040.0,2880.0,-1408.0
7.61,15104.0,2816.0,-1408.0
7.6125,15168.0,2880.0,-1472.0
7.615,15168.0,2816.0,-1408.0
7.6175,15168.0,2816.0,-1408.0
7.62,15168.0,2816.0,-1472.0
7.6225,15232.0,2880.0,-1536.0
7.625,15232.0,2816.0,-1536.0
7.6275,15232.0,2880.0,-1472.0
7.63,15232.0,2880.0,-1472.0
7.6325,15296.0,2880.0,-1472.0
7.635,15232.0,2816.0,-1472.0
7.6375,15168.0,2816.0,-1344.0
7.64,15168.0,2880.0,-1344.0
7.6425,15168.0,2944.0,-1408.0
7.645,15232.0,2880.0,-1408.0
7.6475,15232.0,2880.0,-1408.0
7.65,15168.0,2880.0,-1344.0
7.6525,15168.0,2880.0,-1408.0
7.655,15232.0,2816.0,-1344.0
7.6575,15232.0,2880.0,-1344.0
7.66,15232.0,2880.0,-1408.0
7.6625,15104.0,2816.0,-1408.0
7.665,15104.0,2880.0,-1408.0
7.6675,15168.0,2816.0,-1408.0
7.67,15168.0,2816.0,-1408.0
7.6725,15168.0,2880.0,-1408.0
7.675,15232.0,2880.0,-1408.0
7.6775,15232.0,2944.0,-1472.0
7.68,15232.0,2944.0,-1408.0
7.6825,15232.0,2944.0,-1408.0
7.685,15168.0,2880.0,-1344.0
7.6875,15168.0,2944.0,-1408.0
7.69,15168.0,2880.0,-1536.0
7.6925,15168.0,2880.0,-1472.0
7.695,15168.0,2880.0,-1472.0
7.6975,15168.0,2944.0,-1472.0
7.7,15168.0,2880.0,-1472.0
7.7025,15168.0,2880.0,-1408.0
7.705,15104.0,2880.0,-1472.0
7.7075,15104.0,2816.0,-1472.0
7.71,15168.0,2816.0,-1472.0
7.7125,15168.0,2816.0,-1408.0
7.715,15168.0,2816.0,-1408.0
7.7175,15232.0,2944.0,-1472.0
7.72,15232.0,2944.0,-1408.0
7.7225,15296.0,2944.0,-1408.0
7.725,15296.0,2944.0,-1408.0
7.7275,15232.0,2944.0,-1472.0
7.73,15232.0,2944.0,-1472.0
7.7325,15296.0,2880.0,-1536.0
7.735,15296.0,2880.0,-1536.0
7.7375,15296.0,2880.0,-1536.0
7.74,15296.0,2944.0,-1472.0
7.7425,15168.0,2880.0,-1536.0
7.745,15232.0,2816.0,-1600.0
7.7475,15168.0,2880.0,-1600.0
7.75,15168.0,2880.0,-1536.0
7.7525,15232.0,2880.0,-1536.0
7.755,15232.0,2944.0,-1536.0
7.7575,15168.0,2880.0,-1536.0
7.76,15168.0,2880.0,-1536.0
7.7625,15168.0,2880.0,-1536.0
7.765,15168.0,2944.0,-1472.0
7.7675,15104.0,2944.0,-1472.0
7.77,15104.0,2816.0,-1472.0
7.7725,15104.0,2880.0,-1408.0
7.775,15104.0,2880.0,-1408.0
7.7775,15168.0,2944.0,-1408.0
7.78,15168.0,2880.0,-1536.0
7.7825,15168.0,2880.0,-1536.0
7.785,15168.0,2880.0,-1536.0
7.7875,15168.0,2944.0,-1536.0
7.79,15168.0,2944.0,-1600.0
7.7925,15104.0,2880.0,-1536.0
7.795,15168.0,2880.0,-1536.0
7.7975,15168.0,2880.0,-1472.0
7.8,15168.0,2880.0,-1472.0
7.8025,15104.0,2880.0,-1600.0
7.805,15104.0,2880.0,-1536.0
7.8075,15104.0,2880.0,-1536.0
7.81,15168.0,2880.0,-1536.0
7.8125,15104.0,2880.0,-1536.0
7.815,15104.0,2880.0,-1536.0
7.8175,15040.0,2816.0,-1536.0
7.82,15168.0,2752.0,-1472.0
7.8225,15232.0,2752.0,-1472.0
7.825,15168.0,2816.0,-1536.0
7.8275,15168.0,2816.0,-1600.0
7.83,15232.0,2816.0,-1600.0
7.8325,15168.0,2880.0,-1536.0
7.835,15232.0,2880.0,-1536.0
7.8375,15232.0,2880.0,-1472.0
7.84,15296.0,2880.0,-1472.0
7.8425,15232.0,2944.0,-1472.0
7.845,15168.0,2944.0,-1536.0
7.8475,15168.0,2944.0,-1536.0
7.85,15168.0,2880.0,-1536.0
7.8525,15232.0,2944.0,-1600.0
7.855,15168.0,2944.0,-1472.0
7.8575,15232.0,2944.0,-1472.0
7.86,15168.0,2944.0,-1536.0
7.8625,15232.0,2944.0,-1600.0
7.865,15232.0,3008.0,-1600.0
7.8675,15232.0,2944.0,-1600.0
7.87,15232.0,3008.0,-1600.0
7.8725,15232.0,3008.0,-1600.0
7.875,15232.0,2944.0,-1600.0
7.8775,15232.0,3008.0,-1600.0
7.88,15232.0,2944.0,-1664.0
7.8825,15232.0,2880.0,-1664.0
7.885,15232.0,2944.0,-1664.0
7.8875,15232.0,2880.0,-1664.0
7.89,15360.0,2880.0,-1728.0
7.8925,15360.0,2880.0,-1664.0
7.895,15296.0,2944.0,-1664.0
7.8975,15232.0,2944.0,-1664.0
7.9,15232.0,2944.0,-1664.0
7.9025,15232.0,2944.0,-1664.0
7.905,15296.0,2880.0,-1664.0
7.9075,15232.0,2880.0,-1600.0
7.91,15232.0,2880.0,-1664.0
7.9125,15232.0,2816.0,-1664.0
7.915,15232.0,2880.0,-1664.0
7.9175,15232.0,2880.0,-1664.0
7.92,15168.0,2816.0,-1664.0
7.9225,15296.0,2816.0,-1728.0
7.925,15232.0,2816.0,-1664.0
7.9275,15232.0,2880.0,-1664.0
7.93,15296.0,2880.0,-1600.0
7.9325,15232.0,2880.0,-1600.0
7.935,15232.0,2880.0,-1536.0
7.9375,15168.0,2880.0,-1664.0
7.94,15168.0,2880.0,-1600.0
7.9425,15232.0,2944.0,-1600.0
7.945,15232.0,2944.0,-1536.0
7.9475,15232.0,2944.0,-1600.0
7.95,15232.0,2880.0,-1600.0
7.9525,15296.0,2880.0,-1664.0
7.955,15232.0,2880.0,-1536.0
7.9575,15168.0,2944.0,-1600.0
7.96,15168.0,2880.0,-1600.0
7.9625,15168.0,2880.0,-1536.0
7.965,15168.0,2880.0,-1472.0
7.9675,15168.0,2816.0,-1472.0
7.97,15232.0,2816.0,-1472.0
7.9725,15168.0,2880.0,-1472.0
7.975,15104.0,2816.0,-1472.0
7.9775,15104.0,2880.0,-1472.0
7.98,15104.0,2880.0,-1472.0
7.9825,15168.0,2880.0,-1472.0
7.985,15168.0,2816.0,-1344.0
7.9875,15168.0,2944.0,-1344.0
7.99,15232.0,2880.0,-1344.0
7.9925,15168.0,2880.0,-1408.0
7.995,15232.0,2816.0,-1344.0
7.9975,15232.0,2880.0,-1408.0
8.0,15168.0,2880.0,-1408.0
8.0025,15104.0,2880.0,-1408.0
8.005,15232.0,2880.0,-1344.0
8.0075,15168.0,2944.0,-1344.0
8.01,15168.0,2944.0,-1344.0
8.0125,15168.0,2880.0,-1344.0
8.015,15168.0,2944.0,-1344.0
8.0175,15168.0,2880.0,-1408.0
8.02,15168.0,2880.0,-1344.0
8.0225,15168.0,2944.0,-1344.0
8.025,15168.0,2944.0,-1344.0
8.0275,15168.0,2880.0,-1344.0
8.03,15168.0,2880.0,-1344.0
8.0325,15104.0,2880.0,-1280.0
8.035,15104.0,2880.0,-1280.0
8.0375,15168.0,2816.0,-1280.0
8.04,15168.0,2880.0,-1216.0
8.0425,15232.0,2816.0,-1280.0
8.045,15168.0,2816.0,-1280.0
8.0475,15232.0,2944.0,-1216.0
8.05,15168.0,2880.0,-1280.0
8.0525,15232.0,2944.0,-1344.0
8.055,15232.0,2944.0,-1344.0
8.0575,15232.0,2944.0,-1344.0
8.06,15232.0,2944.0,-1280.0
8.0625,15232.0,2880.0,-1216.0
8.065,15232.0,2880.0,-1216.0
8.0675,15232.0,2880.0,-1280.0
8.07,15232.0,2944.0,-1280.0
8.0725,15168.0,2944.0,-1344.0
8.075,15168.0,2944.0,-1344.0
8.0775,15232.0,3008.0,-1344.0
8.08,15232.0,2944.0,-1280.0
8.0825,15168.0,2944.0,-1344.0
8.085,15232.0,2944.0,-1280.0
8.0875,15232.0,2944.0,-1280.0
8.09,15168.0,2944.0,-1216.0
8.0925,15168.0,2944.0,-1216.0
8.095,15168.0,2880.0,-1280.0
8.0975,15232.0,2880.0,-1344.0
8.1,15168.0,2944.0,-1344.0
8.1025,15168.0,2880.0,-1408.0
8.105,15232.0,2816.0,-1280.0
8.1075,15168.0,2880.0,-1280.0
8.11,15168.0,2880.0,-1280.0
8.1125,15168.0,2944.0,-1280.0
8.115,15104.0,2944.0,-1344.0
8.1175,15104.0,2944.0,-1408.0
8.12,15168.0,2944.0,-1344.0
8.1225,15168.0,2944.0,-1280.0
8.125,15232.0,2880.0,-1344.0
8.1275,15168.0,2880.0,-1280.0
8.13,15232.0,2880.0,-1280.0
8.1325,15232.0,2880.0,-1280.0
8.135,15232.0,2880.0,-1344.0
8.1375,15168.0,2880.0,-1280.0
8.14,15168.0,2816.0,-1280.0
8.1425,15232.0,2816.0,-1152.0
8.145,15232.0,2816.0,-1216.0
8.1475,15232.0,2816.0,-1216.0
8.15,15232.0,2752.0,-1216.0
8.1525,15232.0,2816.0,-1280.0
8.155,15232.0,2816.0,-1280.0
8.1575,15232.0,2816.0,-1216.0
8.16,15296.0,2816.0,-1216.0
8.1625,15232.0,2816.0,-1280.0
8.165,15232.0,2880.0,-1280.0
8.1675,15232.0,2880.0,-1280.0
8.17,15232.0,2880.0,-1280.0
8.1725,15232.0,2880.0,-1280.0
8.175,15296.0,2880.0,-1216.0
8.1775,15232.0,2880.0,-1216.0
8.18,15296.0,2880.0,-1280.0
8.1825,15296.0,2944.0,-1344.0
8.185,15296.0,2880.0,-1344.0
8.1875,15296.0,2944.0,-1280.0
8.19,15232.0,2880.0,-1280.0
8.1925,15168.0,2880.0,-1344.0
8.195,15232.0,2880.0,-1408.0
8.1975,15232.0,2816.0,-1408.0
8.2,15296.0,2880.0,-1408.0
8.2025,15296.0,2880.0,-1408.0
8.205,15360.0,2880.0,-1408.0
8.2075,15360.0,2880.0,-1408.0
8.21,15360.0,2816.0,-1408.0
8.2125,15360.0,2816.0,-1408.0
8.215,15360.0,2880.0,-1408.0
8.2175,15296.0,2880.0,-1408.0
8.22,15360.0,2816.0,-1408.0
8.2225,15360.0,2816.0,-1408.0
8.225,15360.0,2880.0,-1344.0
8.2275,15360.0,2816.0,-1472.0
8.23,15296.0,2816.0,-1408.0
8.2325,15296.0,2816.0,-1408.0
8.235,15296.0,2816.0,-1408.0
8.2375,15296.0,2816.0,-1344.0
8.24,15296.0,2816.0,-1344.0
8.2425,15296.0,2816.0,-1408.0
8.245,15232.0,2816.0,-1280.0
8.2475,15296.0,2752.0,-1408.0
8.25,15232.0,2816.0,-1344.0
8.2525,15232.0,2752.0,-1280.0
8.255,15232.0,2752.0,-1344.0
8.2575,15168.0,2688.0,-1280.0
8.26,15168.0,2752.0,-1280.0
8.2625,15168.0,2816.0,-1280.0
8.265,15168.0,2816.0,-1344.0
8.2675,15168.0,2816.0,-1280.0
8.27,15104.0,2880.0,-1280.0
8.2725,15168.0,2880.0,-1280.0
8.275,15168.0,2880.0,-1280.0
8.2775,15168.0,2880.0,-1280.0
8.28,15232.0,2816.0,-1344.0
8.2825,15168.0,2816.0,-1344.0
8.285,15168.0,2816.0,-1216.0
8.2875,15168.0,2752.0,-1216.0
8.29,15232.0,2752.0,-1344.0
8.2925,15168.0,2816.0,-1280.0
8.295,15232.0,2752.0,-1280.0
8.2975,15232.0,2752.0,-1216.0
8.3,15232.0,2752.0,-1216.0
8.3025,15232.0,2752.0,-1344.0
8.305,15232.0,2752.0,-1280.0
8.3075,15232.0,2688.0,-1216.0
8.31,15232.0,2624.0,-1280.0
8.3125,15232.0,2624.0,-1344.0
8.315,15168.0,2624.0,-1280.0
8.3175,15232.0,2624.0,-1344.0
8.32,15168.0,2688.0,-1344.0
8.3225,15232.0,2688.0,-1344.0
8.325,15232.0,2688.0,-1344.0
8.3275,15296.0,2752.0,-1280.0
8.33,15296.0,2752.0,-1280.0
8.3325,15168.0,2816.0,-1344.0
8.335,15232.0,2752.0,-1280.0
8.3375,15232.0,2752.0,-1344.0
8.34,15168.0,2752.0,-1408.0
8.3425,15232.0,2752.0,-1344.0
8.345,15168.0,2752.0,-1280.0
8.3475,15168.0,2752.0,-1344.0
8.35,15104.0,2816.0,-1344.0
8.3525,15232.0,2752.0,-1344.0
8.355,15232.0,2816.0,-1344.0
8.3575,15232.0,2752.0,-1280.0
8.36,15232.0,2688.0,-1344.0
8.3625,15168.0,2752.0,-1280.0
8.365,15168.0,2752.0,-1280.0
8.3675,15232.0,2688.0,-1280.0
8.37,15296.0,2752.0,-1344.0
8.3725,15296.0,2752.0,-1344.0
8.375,15296.0,2752.0,-1280.0
8.3775,15232.0,2752.0,-1344.0
8.38,15232.0,2752.0,-1344.0
8.3825,15232.0,2816.0,-1408.0
8.385,15232.0,2816.0,-1408.0
8.3875,15232.0,2752.0,-1344.0
8.39,15232.0,2752.0,-1408.0
8.3925,15296.0,2752.0,-1344.0
8.395,15232.0,2752.0,-1280.0
8.3975,15232.0,2752.0,-1280.0
8.4,15232.0,2752.0,-1280.0
8.4025,15232.0,2688.0,-1344.0
8.405,15232.0,2688.0,-1408.0
8.4075,15168.0,2752.0,-1344.0
8.41,15168.0,2752.0,-1344.0
8.4125,15168.0,2688.0,-1408.0
8.415,15168.0,2752.0,-1344.0
8.4175,15168.0,2752.0,-1408.0
8.42,15168.0,2752.0,-1472.0
8.4225,15168.0,2752.0,-1344.0
8.425,15168.0,2752.0,-1344.0
8.4275,15104.0,2880.0,-1408.0
8.43,15168.0,2816.0,-1408.0
8.4325,15232.0,2816.0,-1344.0
8.435,15168.0,2880.0,-1408.0
8.4375,15168.0,2816.0,-1344.0
8.44,15232.0,2816.0,-1344.0
8.4425,15232.0,2752.0,-1408.0
8.445,15296.0,2752.0,-1408.0
8.4475,15232.0,2752.0,-1344.0
8.45,15232.0,2688.0,-1408.0
8.4525,15296.0,2624.0,-1344.0
8.455,15296.0,2688.0,-1408.0
8.4575,15296.0,2752.0,-1408.0
8.46,15296.0,2816.0,-1344.0
8.4625,15232.0,2752.0,-1344.0
8.465,15232.0,2816.0,-1344.0
8.4675,15232.0,2816.0,-1344.0
8.47,15232.0,2880.0,-1280.0
8.4725,15168.0,2880.0,-1280.0
8.475,15168.0,2816.0,-1280.0
8.4775,15168.0,2816.0,-1280.0
8.48,15168.0,2816.0,-1280.0
8.4825,15296.0,2816.0,-1280.0
8.485,15232.0,2880.0,-1280.0
8.4875,15232.0,2944.0,-1216.0
8.49,15168.0,2944.0,-1216.0
8.4925,15104.0,2880.0,-1280.0
8.495,15168.0,2816.0,-1216.0
8.4975,15104.0,2816.0,-1280.0
8.5,15104.0,2880.0,-1216.0
8.5025,15104.0,2880.0,-1280.0
8.505,15104.0,2880.0,-1216.0
8.5075,15104.0,2880.0,-1216.0
8.51,15104.0,2880.0,-1280.0
8.5125,15168.0,2816.0,-1344.0
8.515,15168.0,2816.0,-1280.0
8.5175,15168.0,2880.0,-1216.0
8.52,15168.0,2816.0,-1152.0
8.5225,15168.0,2816.0,-1216.0
8.525,15232.0,2880.0,-1280.0
8.5275,15104.0,2880.0,-1344.0
8.53,15168.0,2880.0,-1280.0
8.5325,15104.0,2880.0,-1280.0
8.535,15168.0,2880.0,-1280.0
8.5375,15232.0,2880.0,-1344.0
8.54,15168.0,2880.0,-1280.0
8.5425,15168.0,2880.0,-1280.0
8.545,15168.0,2880.0,-1280.0
8.5475,15168.0,2880.0,-1216.0
8.55,15104.0,2816.0,-1216.0
8.5525,15168.0,2816.0,-1344.0
8.555,15168.0,2816.0,-1344.0
8.5575,15104.0,2816.0,-1280.0
8.56,15168.0,2880.0,-1344.0
8.5625,15104.0,2880.0,-1280.0
8.565,15104.0,2880.0,-1280.0
8.5675,15168.0,2880.0,-1280.0
8.57,15168.0,2880.0,-1344.0
8.5725,15168.0,2880.0,-1280.0
8.575,15168.0,2880.0,-1216.0
8.5775,15168.0,2816.0,-1280.0
8.58,15168.0,2816.0,-1280.0
8.5825,15168.0,2816.0,-1280.0
8.585,15168.0,2816.0,-1280.0
8.5875,15232.0,2816.0,-1408.0
8.59,15232.0,2816.0,-1344.0
8.5925,15232.0,2816.0,-1408.0
8.595,15168.0,2816.0,-1344.0
8.5975,15232.0,2816.0,-1344.0
8.6,15232.0,2816.0,-1216.0
8.6025,15232.0,2816.0,-1280.0
8.605,15168.0,2816.0,-1280.0
8.6075,15168.0,2816.0,-1216.0
8.61,15168.0,2816.0,-1152.0
8.6125,15168.0,2816.0,-1280.0
8.615,15232.0,2816.0,-1216.0
8.6175,15168.0,2816.0,-1216.0
8.62,15168.0,2816.0,-1280.0
8.6225,15168.0,2816.0,-1216.0
8.625,15232.0,2816.0,-1344.0
8.6275,15232.0,2880.0,-1280.0
8.63,15232.0,2816.0,-1344.0
8.6325,15232.0,2752.0,-1344.0
8.635,15232.0,2816.0,-1344.0
8.6375,15232.0,2816.0,-1344.0
8.64,15232.0,2752.0,-1408.0
8.6425,15168.0,2816.0,-1408.0
8.645,15232.0,2816.0,-1408.0
8.6475,15232.0,2816.0,-1408.0
8.65,15168.0,2816.0,-1408.0
8.6525,15232.0,2816.0,-1408.0
8.655,15168.0,2816.0,-1408.0
8.6575,15232.0,2752.0,-1408.0
8.66,15168.0,2816.0,-1408.0
8.6625,15168.0,2816.0,-1344.0
8.665,15168.0,2816.0,-1344.0
8.6675,15168.0,2880.0,-1344.0
8.67,15168.0,2816.0,-1344.0
8.6725,15232.0,2816.0,-1344.0
8.675,15168.0,2752.0,-1344.0
8.6775,15232.0,2816.0,-1344.0
8.68,15232.0,2816.0,-1280.0
8.6825,15232.0,2816.0,-1344.0
8.685,15296.0,2880.0,-1280.0
8.6875,15232.0,2880.0,-1344.0
8.69,15296.0,2816.0,-1344.0
8.6925,15296.0,2880.0,-1472.0
8.695,15232.0,2880.0,-1408.0
8.6975,15168.0,2880.0,-1344.0
8.7,15232.0,2880.0,-1344.0
8.7025,15296.0,2880.0,-1344.0
8.705,15296.0,2880.0,-1408.0
8.7075,15296.0,2816.0,-1344.0
8.71,15232.0,2816.0,-1344.0
8.7125,15232.0,2880.0,-1344.0
8.715,15296.0,2816.0,-1344.0
8.7175,15232.0,2816.0,-1408.0
8.72,15232.0,2816.0,-1344.0
8.7225,15232.0,2880.0,-1344.0
8.725,15296.0,2816.0,-1344.0
8.7275,15232.0,2752.0,-1344.0
8.73,15232.0,2816.0,-1280.0
8.7325,15232.0,2752.0,-1344.0
8.735,15232.0,2752.0,-1344.0
8.7375,15232.0,2816.0,-1344.0
8.74,15232.0,2752.0,-1344.0
8.7425,15232.0,2880.0,-1280.0
8.745,15296.0,2816.0,-1280.0
8.7475,15168.0,2816.0,-1280.0
8.75,15168.0,2752.0,-1344.0
8.7525,15232.0,2816.0,-1280.0
8.755,15232.0,2880.0,-1216.0
8.7575,15168.0,2752.0,-1152.0
8.76,15232.0,2816.0,-1216.0
8.7625,15168.0,2880.0,-1216.0
8.765,15168.0,2880.0,-1152.0
8.7675,15104.0,2816.0,-1216.0
8.77,15168.0,2816.0,-1216.0
8.7725,15104.0,2816.0,-1216.0
8.775,15168.0,2752.0,-1216.0
8.7775,15104.0,2816.0,-1152.0
8.78,15168.0,2752.0,-1152.0
8.7825,15168.0,2816.0,-1152.0
8.785,15168.0,2816.0,-1152.0
8.7875,15168.0,2752.0,-1216.0
8.79,15168.0,2752.0,-1216.0
8.7925,15104.0,2880.0,-1216.0
8.795,15168.0,2816.0,-1216.0
8.7975,15232.0,2880.0,-1216.0
8.8,15168.0,2880.0,-1216.0
8.8025,15168.0,2816.0,-1088.0
8.805,15232.0,2816.0,-1088.0
8.8075,15296.0,2816.0,-1152.0
8.81,15232.0,2816.0,-1088.0
8.8125,15232.0,2880.0,-1152.0
8.815,15232.0,2816.0,-1216.0
8.8175,15296.0,2880.0,-1152.0
8.82,15296.0,2816.0,-1152.0
8.8225,15360.0,2880.0,-1152.0
8.825,15296.0,2880.0,-1152.0
8.8275,15296.0,2880.0,-1216.0
8.83,15296.0,2880.0,-1216.0
8.8325,15296.0,2880.0,-1216.0
8.835,15296.0,2880.0,-1216.0
8.8375,15296.0,2880.0,-1216.0
8.84,15296.0,2944.0,-1216.0
8.8425,15232.0,2944.0,-1216.0
8.845,15296.0,2944.0,-1344.0
8.8475,15296.0,2880.0,-1280.0
8.85,15360.0,2816.0,-1216.0
8.8525,15360.0,2816.0,-1152.0
8.855,15360.0,2880.0,-1152.0
8.8575,15424.0,2816.0,-1216.0
8.86,15424.0,2880.0,-1216.0
8.8625,15360.0,2880.0,-1216.0
8.865,15360.0,2816.0,-1344.0
8.8675,15360.0,2816.0,-1280.0
8.87,15360.0,2816.0,-1216.0
8.8725,15296.0,2816.0,-1216.0
8.875,15296.0,2816.0,-1216.0
8.8775,15360.0,2816.0,-1216.0
8.88,15360.0,2816.0,-1216.0
8.8825,15360.0,2816.0,-1152.0
8.885,15360.0,2880.0,-1152.0
8.8875,15296.0,2816.0,-1216.0
8.89,15424.0,2816.0,-1152.0
8.8925,15360.0,2816.0,-1152.0
8.895,15360.0,2816.0,-1088.0
8.8975,15360.0,2752.0,-1216.0
8.9,15296.0,2752.0,-1216.0
8.9025,15296.0,2752.0,-1152.0
8.905,15296.0,2752.0,-1216.0
8.9075,15296.0,2688.0,-1216.0
8.91,15296.0,2688.0,-1088.0
8.9125,15232.0,2688.0,-1024.0
8.915,15232.0,2688.0,-1088.0
8.9175,15232.0,2688.0,-1088.0
8.92,15168.0,2752.0,-1152.0
8.9225,15296.0,2816.0,-1152.0
8.925,15232.0,2752.0,-1152.0
8.9275,15168.0,2752.0,-1152.0
8.93,15168.0,2752.0,-1152.0
8.9325,15168.0,2752.0,-1152.0
8.935,15168.0,2752.0,-1088.0
8.9375,15232.0,2688.0,-1152.0
8.94,15168.0,2752.0,-1088.0
8.9425,15168.0,2752.0,-1088.0
8.945,15232.0,2688.0,-1152.0
8.9475,15168.0,2752.0,-1088.0
8.95,15168.0,2688.0,-1088.0
8.9525,15168.0,2688.0,-1088.0
8.955,15168.0,2624.0,-1088.0
8.9575,15168.0,2688.0,-1088.0
8.96,15168.0,2752.0,-1088.0
8.9625,15168.0,2752.0,-1088.0
8.965,15168.0,2752.0,-1152.0
8.9675,15168.0,2752.0,-1152.0
8.97,15168.0,2816.0,-1088.0
8.9725,15168.0,2752.0,-1088.0
8.975,15168.0,2752.0,-1088.0
8.9775,15104.0,2816.0,-1216.0
8.98,15104.0,2816.0,-1152.0
8.9825,15168.0,2816.0,-1152.0
8.985,15232.0,2816.0,-1152.0
8.9875,15232.0,2752.0,-1152.0
8.99,15168.0,2816.0,-1152.0
8.9925,15168.0,2752.0,-1152.0
8.995,15232.0,2816.0,-1216.0
8.9975,15232.0,2752.0,-1216.0
9.0,15232.0,2752.0,-1216.0
9.0025,15232.0,2688.0,-1280.0
9.005,15168.0,2688.0,-1216.0
9.0075,15168.0,2688.0,-1344.0
9.01,15168.0,2688.0,-1216.0
9.0125,15232.0,2688.0,-1216.0
9.015,15296.0,2688.0,-1280.0
9.0175,15232.0,2688.0,-1216.0
9.02,15296.0,2688.0,-1280.0
9.0225,15232.0,2688.0,-1280.0
9.025,15168.0,2688.0,-1216.0
9.0275,15232.0,2688.0,-1216.0
9.03,15168.0,2752.0,-1216.0
9.0325,15232.0,2688.0,-1216.0
9.035,15168.0,2752.0,-1216.0
9.0375,15168.0,2752.0,-1216.0
9.04,15168.0,2752.0,-1216.0
9.0425,15168.0,2752.0,-1216.0
9.045,15104.0,2752.0,-1280.0
9.0475,15104.0,2688.0,-1280.0
9.05,15040.0,2752.0,-1216.0
9.0525,15040.0,2688.0,-1216.0
9.055,15040.0,2752.0,-1280.0
9.0575,15104.0,2688.0,-1344.0
9.06,15040.0,2688.0,-1408.0
9.0625,15040.0,2688.0,-1344.0
9.065,15040.0,2688.0,-1344.0
9.0675,14976.0,2688.0,-1344.0
9.07,14976.0,2688.0,-1408.0
9.0725,14976.0,2688.0,-1408.0
9.075,15040.0,2624.0,-1408.0
9.0775,14976.0,2624.0,-1344.0
9.08,14976.0,2624.0,-1344.0
9.0825,15040.0,2624.0,-1408.0
9.085,15040.0,2624.0,-1344.0
9.0875,15104.0,2624.0,-1344.0
9.09,15040.0,2560.0,-1344.0
9.0925,15040.0,2624.0,-1280.0
9.095,15040.0,2560.0,-1408.0
9.0975,15104.0,2560.0,-1408.0
9.1,15040.0,2624.0,-1344.0
9.1025,15104.0,2624.0,-1408.0
9.105,15104.0,2624.0,-1472.0
9.1075,15104.0,2688.0,-1472.0
9.11,15104.0,2624.0,-1472.0
9.1125,15104.0,2624.0,-1536.0
9.115,15104.0,2688.0,-1472.0
9.1175,15104.0,2624.0,-1472.0
9.12,15104.0,2624.0,-1536.0
9.1225,15168.0,2688.0,-1472.0
9.125,15232.0,2688.0,-1408.0
9.1275,15168.0,2688.0,-1472.0
9.13,15168.0,2688.0,-1472.0
9.1325,15168.0,2688.0,-1408.0
9.135,15104.0,2688.0,-1344.0
9.1375,15168.0,2688.0,-1408.0
9.14,15104.0,2688.0,-1408.0
9.1425,15168.0,2688.0,-1408.0
9.145,15168.0,2688.0,-1408.0
9.1475,15232.0,2688.0,-1408.0
9.15,15168.0,2688.0,-1408.0
9.1525,15232.0,2688.0,-1408.0
9.155,15168.0,2752.0,-1408.0
9.1575,15104.0,2752.0,-1408.0
9.16,15232.0,2688.0,-1408.0
9.1625,15232.0,2752.0,-1408.0
9.165,15232.0,2688.0,-1472.0
9.1675,15232.0,2688.0,-1408.0
9.17,15232.0,2752.0,-1408.0
9.1725,15168.0,2816.0,-1408.0
9.175,15168.0,2816.0,-1472.0
9.1775,15168.0,2752.0,-1472.0
9.18,15168.0,2816.0,-1472.0
9.1825,15232.0,2752.0,-1472.0
9.185,15296.0,2816.0,-1536.0
9.1875,15232.0,2688.0,-1472.0
9.19,15232.0,2688.0,-1472.0
9.1925,15232.0,2752.0,-1408.0
9.195,15232.0,2816.0,-1408.0
9.1975,15232.0,2752.0,-1344.0
9.2,15232.0,2816.0,-1408.0
9.2025,15232.0,2752.0,-1344.0
9.205,15168.0,2816.0,-1408.0
9.2075,15232.0,2816.0,-1408.0
9.21,15168.0,2816.0,-1344.0
9.2125,15168.0,2752.0,-1344.0
9.215,15168.0,2752.0,-1344.0
9.2175,15168.0,2752.0,-1408.0
9.22,15104.0,2752.0,-1344.0
9.2225,15104.0,2816.0,-1408.0
9.225,15104.0,2816.0,-1344.0
9.2275,15104.0,2816.0,-1344.0
9.23,15104.0,2816.0,-1344.0
9.2325,15168.0,2880.0,-1344.0
9.235,15104.0,2880.0,-1344.0
9.2375,15040.0,2944.0,-1344.0
9.24,15104.0,2880.0,-1344.0
9.2425,15104.0,2816.0,-1344.0
9.245,15168.0,2816.0,-1280.0
9.2475,15168.0,2816.0,-1344.0
9.25,15168.0,2816.0,-1344.0
9.2525,15104.0,2816.0,-1280.0
9.255,15104.0,2816.0,-1344.0
9.2575,15168.0,2816.0,-1280.0
9.26,15168.0,2880.0,-1344.0
9.2625,15168.0,2752.0,-1344.0
9.265,15168.0,2880.0,-1344.0
9.2675,15168.0,2816.0,-1344.0
9.27,15168.0,2880.0,-1280.0
9.2725,15232.0,2816.0,-1216.0
9.275,15232.0,2880.0,-1216.0
9.2775,15232.0,2880.0,-1280.0
9.28,15296.0,2880.0,-1280.0
9.2825,15232.0,2880.0,-1280.0
9.285,15232.0,2880.0,-1280.0
9.2875,15232.0,2880.0,-1280.0
9.29,15232.0,2880.0,-1344.0
9.2925,15232.0,2880.0,-1280.0
9.295,15232.0,3008.0,-1216.0
9.2975,15296.0,3008.0,-1216.0
9.3,15360.0,3072.0,-1216.0
9.3025,15296.0,3072.0,-1344.0
9.305,15296.0,3008.0,-1344.0
9.3075,15296.0,3008.0,-1280.0
9.31,15360.0,3008.0,-1216.0
9.3125,15360.0,3072.0,-1216.0
9.315,15360.0,3072.0,-1280.0
9.3175,15360.0,3008.0,-1216.0
9.32,15360.0,3008.0,-1216.0
9.3225,15360.0,3008.0,-1216.0
9.325,15360.0,3008.0,-1216.0
9.3275,15360.0,3008.0,-1216.0
9.33,15360.0,3008.0,-1280.0
9.3325,15360.0,3008.0,-1216.0
9.335,15360.0,3008.0,-1408.0
9.3375,15360.0,3008.0,-1344.0
9.34,15424.0,3008.0,-1408.0
9.3425,15424.0,3008.0,-1408.0
9.345,15424.0,3008.0,-1408.0
9.3475,15424.0,3008.0,-1408.0
9.35,15360.0,3008.0,-1344.0
9.3525,15296.0,3008.0,-1344.0
9.355,15360.0,3072.0,-1344.0
9.3575,15360.0,3008.0,-1344.0
9.36,15360.0,3008.0,-1280.0
9.3625,15360.0,3008.0,-1280.0
9.365,15360.0,3072.0,-1216.0
9.3675,15296.0,3072.0,-1216.0
9.37,15296.0,3072.0,-1216.0
9.3725,15296.0,3072.0,-1216.0
9.375,15232.0,3008.0,-1344.0
9.3775,15296.0,3008.0,-1280.0
9.38,15296.0,3072.0,-1216.0
9.3825,15360.0,3072.0,-1280.0
9.385,15360.0,3008.0,-1280.0
9.3875,15360.0,3008.0,-1344.0
9.39,15296.0,3008.0,-1344.0
9.3925,15360.0,3008.0,-1408.0
9.395,15360.0,2944.0,-1280.0
9.3975,15296.0,3008.0,-1280.0
9.4,15360.0,3008.0,-1344.0
9.4025,15360.0,2944.0,-1344.0
9.405,15360.0,2944.0,-1280.0
9.4075,15360.0,3008.0,-1280.0
9.41,15296.0,3008.0,-1280.0
9.4125,15296.0,2944.0,-1216.0
9.415,15232.0,2944.0,-1280.0
9.4175,15232.0,3008.0,-1216.0
9.42,15232.0,3008.0,-1216.0
9.4225,15296.0,3008.0,-1152.0
9.425,15296.0,3008.0,-1280.0
9.4275,15360.0,3008.0,-1280.0
9.43,15296.0,3072.0,-1216.0
9.4325,15296.0,3008.0,-1280.0
9.435,15360.0,3008.0,-1280.0
9.4375,15296.0,2944.0,-1280.0
9.44,15296.0,3008.0,-1216.0
9.4425,15296.0,3008.0,-1216.0
9.445,15360.0,3072.0,-1344.0
9.4475,15360.0,3008.0,-1344.0
9.45,15360.0,3008.0,-1280.0
9.4525,15296.0,3008.0,-1344.0
9.455,15360.0,3008.0,-1344.0
9.4575,15360.0,3072.0,-1344.0
9.46,15296.0,3072.0,-1344.0
9.4625,15296.0,3072.0,-1408.0
9.465,15296.0,3072.0,-1408.0
9.4675,15232.0,3072.0,-1408.0
9.47,15296.0,3072.0,-1344.0
9.4725,15296.0,3072.0,-1344.0
9.475,15296.0,3008.0,-1344.0
9.4775,15296.0,3008.0,-1344.0
9.48,15296.0,3008.0,-1344.0
9.4825,15360.0,3008.0,-1344.0
9.485,15360.0,2944.0,-1280.0
9.4875,15360.0,3008.0,-1280.0
9.49,15424.0,2944.0,-1344.0
9.4925,15296.0,2944.0,-1408.0
9.495,15296.0,2944.0,-1280.0
9.4975,15296.0,2880.0,-1344.0
9.5,15360.0,2816.0,-1408.0
9.5025,15360.0,2880.0,-1344.0
9.505,15296.0,2816.0,-1344.0
9.5075,15296.0,2880.0,-1344.0
9.51,15296.0,2880.0,-1408.0
9.5125,15360.0,2880.0,-1408.0
9.515,15296.0,2880.0,-1344.0
9.5175,15296.0,2880.0,-1344.0
9.52,15296.0,2944.0,-1280.0
9.5225,15296.0,2880.0,-1280.0
9.525,15296.0,2816.0,-1280.0
9.5275,15232.0,2752.0,-1280.0
9.53,15232.0,2816.0,-1280.0
9.5325,15232.0,2752.0,-1280.0
9.535,15296.0,2752.0,-1344.0
9.5375,15296.0,2752.0,-1344.0
9.54,15232.0,2688.0,-1344.0
9.5425,15232.0,2688.0,-1344.0
9.545,15232.0,2624.0,-1408.0
9.5475,15232.0,2688.0,-1408.0
9.55,15232.0,2752.0,-1472.0
9.5525,15296.0,2752.0,-1536.0
9.555,15296.0,2752.0,-1472.0
9.5575,15232.0,2752.0,-1408.0
9.56,15296.0,2752.0,-1472.0
9.5625,15296.0,2752.0,-1536.0
9.565,15296.0,2688.0,-1472.0
9.5675,15296.0,2752.0,-1408.0
9.57,15296.0,2752.0,-1408.0
9.5725,15296.0,2752.0,-1408.0
9.575,15360.0,2688.0,-1408.0
9.5775,15296.0,2688.0,-1408.0
9.58,15360.0,2752.0,-1472.0
9.5825,15360.0,2688.0,-1472.0
9.585,15296.0,2624.0,-1472.0
9.5875,15360.0,2624.0,-1536.0
9.59,15360.0,2560.0,-1536.0
9.5925,15360.0,2624.0,-1536.0
9.595,15360.0,2624.0,-1536.0
9.5975,15360.0,2688.0,-1472.0
9.6,15424.0,2624.0,-1600.0
9.6025,15360.0,2624.0,-1600.0
9.605,15360.0,2688.0,-1536.0
9.6075,15360.0,2752.0,-1536.0
9.61,15360.0,2688.0,-1600.0
9.6125,15296.0,2752.0,-1600.0
9.615,15360.0,2688.0,-1600.0
9.6175,15360.0,2688.0,-1664.0
9.62,15424.0,2688.0,-1600.0
9.6225,15360.0,2688.0,-1664.0
9.625,15360.0,2688.0,-1600.0
9.6275,15360.0,2816.0,-1664.0
9.63,15360.0,2752.0,-1664.0
9.6325,15360.0,2688.0,-1600.0
9.635,15360.0,2752.0,-1664.0
9.6375,15424.0,2752.0,-1536.0
9.64,15360.0,2752.0,-1600.0
9.6425,15360.0,2688.0,-1536.0
9.645,15360.0,2688.0,-1472.0
9.6475,15424.0,2752.0,-1536.0
9.65,15424.0,2752.0,-1472.0
9.6525,15360.0,2752.0,-1536.0
9.655,15360.0,2688.0,-1472.0
9.6575,15360.0,2688.0,-1472.0
9.66,15296.0,2688.0,-1472.0
9.6625,15296.0,2688.0,-1472.0
9.665,15360.0,2752.0,-1472.0
9.6675,15360.0,2816.0,-1536.0
9.67,15360.0,2752.0,-1600.0
9.6725,15360.0,2816.0,-1536.0
9.675,15296.0,2816.0,-1536.0
9.6775,15296.0,2880.0,-1472.0
9.68,15360.0,2880.0,-1472.0
9.6825,15296.0,2880.0,-1536.0
9.685,15296.0,2816.0,-1472.0
9.6875,15296.0,2880.0,-1408.0
9.69,15360.0,2816.0,-1408.0
9.6925,15296.0,2880.0,-1408.0
9.695,15296.0,2816.0,-1472.0
9.6975,15296.0,2752.0,-1472.0
9.7,15296.0,2688.0,-1408.0
9.7025,15232.0,2752.0,-1408.0
9.705,15232.0,2752.0,-1408.0
9.7075,15232.0,2816.0,-1408.0
9.71,15232.0,2752.0,-1472.0
9.7125,15232.0,2688.0,-1472.0
9.715,15232.0,2752.0,-1408.0
9.7175,15232.0,2688.0,-1472.0
9.72,15168.0,2688.0,-1472.0
9.7225,15232.0,2688.0,-1472.0
9.725,15168.0,2752.0,-1344.0
9.7275,15232.0,2688.0,-1408.0
9.73,15232.0,2688.0,-1408.0
9.7325,15232.0,2688.0,-1344.0
9.735,15232.0,2688.0,-1344.0
9.7375,15232.0,2688.0,-1344.0
9.74,15232.0,2688.0,-1344.0
9.7425,15296.0,2688.0,-1344.0
9.745,15232.0,2752.0,-1344.0
9.7475,15296.0,2752.0,-1280.0
9.75,15296.0,2816.0,-1280.0
9.7525,15296.0,2752.0,-1216.0
9.755,15296.0,2752.0,-1280.0
9.7575,15296.0,2752.0,-1280.0
9.76,15296.0,2752.0,-1216.0
9.7625,15232.0,2752.0,-1280.0
9.765,15360.0,2752.0,-1216.0
9.7675,15360.0,2688.0,-1280.0
9.77,15360.0,2752.0,-1280.0
9.7725,15296.0,2688.0,-1280.0
9.775,15296.0,2752.0,-1216.0
9.7775,15360.0,2688.0,-1216.0
9.78,15296.0,2688.0,-1152.0
9.7825,15360.0,2752.0,-1152.0
9.785,15296.0,2752.0,-1152.0
9.7875,15232.0,2752.0,-1216.0
9.79,15232.0,2752.0,-1216.0
9.7925,15232.0,2752.0,-1216.0
9.795,15232.0,2688.0,-1216.0
9.7975,15232.0,2688.0,-1280.0
9.8,15168.0,2688.0,-1216.0
9.8025,15232.0,2752.0,-1216.0
9.805,15232.0,2688.0,-1216.0
9.8075,15168.0,2752.0,-1280.0
9.81,15168.0,2752.0,-1280.0
9.8125,15232.0,2688.0,-1280.0
9.815,15232.0,2688.0,-1280.0
9.8175,15168.0,2688.0,-1216.0
9.82,15168.0,2624.0,-1152.0
9.8225,15168.0,2688.0,-1152.0
9.825,15168.0,2624.0,-1280.0
9.8275,15168.0,2624.0,-1216.0
9.83,15168.0,2688.0,-1152.0
9.8325,15168.0,2688.0,-1152.0
9.835,15168.0,2688.0,-1152.0
9.8375,15168.0,2688.0,-1152.0
9.84,15168.0,2688.0,-1152.0
9.8425,15168.0,2624.0,-1088.0
9.845,15168.0,2688.0,-1088.0
9.8475,15168.0,2752.0,-1152.0
9.85,15168.0,2752.0,-1152.0
9.8525,15168.0,2688.0,-1216.0
9.855,15168.0,2688.0,-1152.0
9.8575,15168.0,2752.0,-1088.0
9.86,15168.0,2752.0,-1088.0
9.8625,15232.0,2752.0,-1088.0
9.865,15168.0,2752.0,-1088.0
9.8675,15104.0,2752.0,-1152.0
9.87,15168.0,2816.0,-1216.0
9.8725,15168.0,2752.0,-1152.0
9.875,15104.0,2816.0,-1152.0
9.8775,15168.0,2816.0,-1216.0
9.88,15168.0,2752.0,-1216.0
9.8825,15168.0,2752.0,-1216.0
9.885,15232.0,2752.0,-1216.0
9.8875,15168.0,2752.0,-1152.0
9.89,15232.0,2752.0,-1152.0
9.8925,15168.0,2752.0,-1152.0
9.895,15168.0,2816.0,-1152.0
9.8975,15168.0,2880.0,-1152.0
9.9,15168.0,2816.0,-1152.0
9.9025,15104.0,2880.0,-1152.0
9.905,15104.0,2880.0,-1152.0
9.9075,15040.0,2816.0,-1152.0
9.91,15168.0,2752.0,-1216.0
9.9125,15104.0,2816.0,-1280.0
9.915,15104.0,2816.0,-1216.0
9.9175,15104.0,2816.0,-1216.0
9.92,15168.0,2752.0,-1216.0
9.9225,15104.0,2816.0,-1280.0
9.925,15104.0,2752.0,-1280.0
9.9275,15040.0,2816.0,-1344.0
9.93,15040.0,2880.0,-1344.0
9.9325,15104.0,2880.0,-1280.0
9.935,15040.0,2880.0,-1280.0
9.9375,15040.0,2880.0,-1280.0
9.94,14976.0,2944.0,-1280.0
9.9425,15104.0,2944.0,-1280.0
9.945,15104.0,2880.0,-1280.0
9.9475,15104.0,2880.0,-1216.0
9.95,15040.0,2880.0,-1280.0
9.9525,14976.0,2816.0,-1280.0
9.955,15104.0,2880.0,-1280.0
9.9575,15040.0,2880.0,-1280.0
9.96,14976.0,2880.0,-1344.0
9.9625,14976.0,2816.0,-1344.0
9.965,15040.0,2880.0,-1344.0
9.9675,15040.0,2816.0,-1344.0
9.97,15040.0,2880.0,-1344.0
9.9725,15104.0,2816.0,-1344.0
9.975,15104.0,2880.0,-1472.0
9.9775,15104.0,2880.0,-1472.0
9.98,15168.0,2880.0,-1472.0
9.9825,15104.0,2880.0,-1472.0
9.985,15168.0,2880.0,-1536.0
9.9875,15104.0,2880.0,-1472.0
9.99,15104.0,2944.0,-1472.0
9.9925,15168.0,2944.0,-1408.0
9.995,15168.0,2880.0,-1472.0
9.9975,15168.0,2880.0,-1472.0
10.0,15168.0,2816.0,-1472.0
10.0025,15104.0,2880.0,-1472.0
10.005,15168.0,2880.0,-1408.0
10.0075,15168.0,2880.0,-1472.0
10.01,15104.0,2880.0,-1536.0
10.0125,15104.0,2816.0,-1536.0
10.015,15104.0,2880.0,-1600.0
10.0175,15104.0,2816.0,-1536.0
10.02,15104.0,2880.0,-1536.0
10.0225,15104.0,2880.0,-1472.0
10.025,15104.0,2944.0,-1472.0
10.0275,15168.0,2880.0,-1536.0
10.03,15168.0,2944.0,-1664.0
10.0325,15232.0,2880.0,-1600.0
10.035,15104.0,2944.0,-1600.0
10.0375,15168.0,2944.0,-1600.0
10.04,15168.0,2944.0,-1600.0
10.0425,15104.0,2880.0,-1664.0
10.045,15104.0,2880.0,-1664.0
10.0475,15168.0,2944.0,-1664.0
10.05,15168.0,2944.0,-1664.0
10.0525,15168.0,2944.0,-1664.0
10.055,15104.0,2944.0,-1664.0
10.0575,15040.0,2880.0,-1664.0
10.06,15040.0,2880.0,-1664.0
10.0625,15104.0,2880.0,-1728.0
10.065,15104.0,2816.0,-1728.0
10.0675,15104.0,2816.0,-1728.0
10.07,15104.0,2880.0,-1728.0
10.0725,15104.0,2880.0,-1728.0
10.075,15104.0,2880.0,-1664.0
10.0775,15168.0,2944.0,-1728.0
10.08,15168.0,2944.0,-1792.0
10.0825,15168.0,2944.0,-1792.0
10.085,15104.0,2880.0,-1728.0
10.0875,15104.0,2880.0,-1728.0
10.09,15104.0,2880.0,-1728.0
10.0925,15104.0,2944.0,-1728.0
10.095,15104.0,3008.0,-1664.0
10.0975,15168.0,3008.0,-1600.0
10.1,15104.0,2944.0,-1664.0
10.1025,15104.0,2880.0,-1728.0
10.105,15104.0,3008.0,-1728.0
10.1075,15104.0,2944.0,-1728.0
10.11,15104.0,2944.0,-1728.0
10.1125,15104.0,2880.0,-1664.0
10.115,15104.0,2880.0,-1664.0
10.1175,15168.0,2944.0,-1728.0
10.12,15232.0,2880.0,-1728.0
10.1225,15168.0,2880.0,-1664.0
10.125,15168.0,2880.0,-1664.0
10.1275,15168.0,2880.0,-1664.0
10.13,15104.0,2880.0,-1664.0
10.1325,15168.0,2880.0,-1664.0
10.135,15168.0,2944.0,-1664.0
10.1375,15168.0,2944.0,-1664.0
10.14,15232.0,2880.0,-1664.0
10.1425,15104.0,2880.0,-1600.0
10.145,15168.0,2944.0,-1664.0
10.1475,15232.0,2880.0,-1664.0
10.15,15232.0,2944.0,-1664.0
10.1525,15232.0,3008.0,-1728.0
10.155,15232.0,3008.0,-1728.0
10.1575,15232.0,3008.0,-1664.0
10.16,15296.0,2944.0,-1664.0
10.1625,15232.0,2944.0,-1728.0
10.165,15168.0,3008.0,-1664.0
10.1675,15168.0,3008.0,-1600.0
10.17,15232.0,2944.0,-1664.0
10.1725,15168.0,2944.0,-1664.0
10.175,15168.0,3008.0,-1600.0
10.1775,15104.0,3008.0,-1600.0
10.18,15040.0,2944.0,-1664.0
10.1825,15040.0,2880.0,-1600.0
10.185,15040.0,2880.0,-1600.0
10.1875,15104.0,2880.0,-1600.0
10.19,15104.0,2880.0,-1600.0
10.1925,15104.0,2944.0,-1600.0
10.195,15104.0,2880.0,-1472.0
10.1975,15104.0,2880.0,-1472.0
10.2,15104.0,2880.0,-1536.0
10.2025,15040.0,2880.0,-1600.0
10.205,15040.0,2880.0,-1600.0
10.2075,15040.0,2944.0,-1600.0
10.21,15104.0,2944.0,-1600.0
10.2125,15168.0,2944.0,-1600.0
10.215,15168.0,2944.0,-1536.0
10.2175,15168.0,2944.0,-1472.0
10.22,15104.0,2944.0,-1472.0
10.2225,15168.0,2880.0,-1472.0
10.225,15104.0,2816.0,-1472.0
10.2275,15104.0,2816.0,-1536.0
10.23,15168.0,2816.0,-1472.0
10.2325,15168.0,2880.0,-1536.0
10.235,15232.0,2816.0,-1536.0
10.2375,15232.0,2816.0,-1472.0
10.24,15232.0,2816.0,-1472.0
10.2425,15232.0,2816.0,-1472.0
10.245,15232.0,2816.0,-1408.0
10.2475,15232.0,2816.0,-1408.0
10.25,15232.0,2880.0,-1408.0
