time_stamp,acc_x,acc_y,acc_z
0.0,-16128.0,-5504.0,0.0
0.0025,-16000.0,-5696.0,-128.0
0.005,-15936.0,-5696.0,-192.0
0.0075,-15936.0,-5760.0,-320.0
0.01,-15808.0,-5888.0,-384.0
0.0125,-15744.0,-5888.0,-384.0
0.015,-15680.0,-5824.0,-448.0
0.0175,-15616.0,-5696.0,-384.0
0.02,-15616.0,-5568.0,-384.0
0.0225,-15488.0,-5376.0,-320.0
0.025,-15488.0,-5184.0,-192.0
0.0275,-15488.0,-5056.0,-192.0
0.03,-15424.0,-4864.0,-128.0
0.0325,-15360.0,-4736.0,-128.0
0.035,-15296.0,-4672.0,-64.0
0.0375,-15232.0,-4544.0,-64.0
0.04,-15168.0,-4544.0,0.0
0.0425,-15168.0,-4608.0,0.0
0.045,-15040.0,-4672.0,-64.0
0.0475,-15040.0,-4800.0,-64.0
0.05,-14912.0,-4864.0,-192.0
0.0525,-14912.0,-4992.0,-192.0
0.055,-14848.0,-4992.0,-192.0
0.0575,-14912.0,-4992.0,-256.0
0.06,-14848.0,-4992.0,-256.0
0.0625,-14848.0,-5056.0,-256.0
0.065,-14848.0,-5120.0,-128.0
0.0675,-15104.0,-5184.0,-128.0
0.07,-14912.0,-5312.0,-256.0
0.0725,-14912.0,-5376.0,-256.0
0.075,-14976.0,-5504.0,-256.0
0.0775,-14976.0,-5760.0,-256.0
0.08,-15040.0,-6080.0,-320.0
0.0825,-15104.0,-6208.0,-512.0
0.085,-15104.0,-6208.0,-640.0
0.0875,-15168.0,-6208.0,-768.0
0.09,-15232.0,-6144.0,-960.0
0.0925,-15168.0,-6080.0,-960.0
0.095,-15168.0,-6080.0,-896.0
0.0975,-15040.0,-6144.0,-960.0
0.1,-15040.0,-6144.0,-1024.0
0.1025,-14976.0,-6208.0,-832.0
0.105,-15040.0,-6272.0,-704.0
0.1075,-15040.0,-6400.0,-576.0
0.11,-15104.0,-6464.0,-448.0
0.1125,-15168.0,-6464.0,-320.0
0.115,-15296.0,-6464.0,-192.0
0.1175,-15360.0,-6464.0,-64.0
0.12,-15424.0,-6464.0,-64.0
0.1225,-15424.0,-6400.0,64.0
0.125,-15424.0,-6400.0,64.0
0.1275,-15488.0,-6464.0,0.0
0.13,-15552.0,-6464.0,0.0
0.1325,-15616.0,-6400.0,0.0
0.135,-15616.0,-6400.0,-64.0
0.1375,-15616.0,-6272.0,0.0
0.14,-15616.0,-6208.0,-192.0
0.1425,-15616.0,-6208.0,-128.0
0.145,-15680.0,-5952.0,-192.0
0.1475,-15616.0,-5888.0,-192.0
0.15,-15616.0,-5952.0,-128.0
0.1525,-15616.0,-5952.0,-192.0
0.155,-15616.0,-5888.0,-256.0
0.1575,-15616.0,-5824.0,-256.0
0.16,-15616.0,-5888.0,-256.0
0.1625,-15680.0,-5888.0,-192.0
0.165,-15744.0,-5824.0,-128.0
0.1675,-15808.0,-5824.0,-128.0
0.17,-15872.0,-5696.0,-128.0
0.1725,-15872.0,-5696.0,-64.0
0.175,-15936.0,-5632.0,-128.0
0.1775,-15872.0,-5760.0,-64.0
0.18,-16000.0,-5760.0,0.0
0.1825,-15936.0,-5952.0,64.0
0.185,-16000.0,-5952.0,64.0
0.1875,-16128.0,-5888.0,128.0
0.19,-16320.0,-5568.0,256.0
0.1925,-16320.0,-5440.0,448.0
0.195,-16256.0,-5312.0,704.0
0.1975,-16256.0,-5184.0,832.0
0.2,-16192.0,-5120.0,896.0
0.2025,-16128.0,-5184.0,960.0
0.205,-16064.0,-5248.0,896.0
0.2075,-15936.0,-5312.0,832.0
0.21,-15936.0,-5248.0,768.0
0.2125,-15872.0,-5248.0,640.0
0.215,-15744.0,-5248.0,576.0
0.2175,-15680.0,-5184.0,448.0
0.22,-15552.0,-4992.0,512.0
0.2225,-15424.0,-4992.0,448.0
0.225,-15296.0,-4992.0,640.0
0.2275,-15232.0,-4864.0,640.0
0.23,-15104.0,-4800.0,704.0
0.2325,-15040.0,-4800.0,704.0
0.235,-14976.0,-4736.0,704.0
0.2375,-14912.0,-4864.0,768.0
0.24,-14784.0,-4736.0,960.0
0.2425,-14784.0,-4800.0,1152.0
0.245,-14592.0,-4864.0,1216.0
0.2475,-14464.0,-4864.0,1216.0
0.25,-14400.0,-4928.0,1216.0
0.2525,-14400.0,-5056.0,1344.0
0.255,-14336.0,-5120.0,1280.0
0.2575,-14336.0,-5248.0,1216.0
0.26,-14272.0,-5376.0,1088.0
0.2625,-14272.0,-5376.0,1088.0
0.265,-14208.0,-5504.0,960.0
0.2675,-14208.0,-5504.0,896.0
0.27,-14208.0,-5504.0,832.0
0.2725,-14336.0,-5504.0,768.0
0.275,-14272.0,-5504.0,768.0
0.2775,-14208.0,-5504.0,640.0
0.28,-14144.0,-5568.0,512.0
0.2825,-14144.0,-5440.0,448.0
0.285,-14080.0,-5440.0,448.0
0.2875,-14144.0,-5376.0,384.0
0.29,-14208.0,-5312.0,384.0
0.2925,-14144.0,-5376.0,256.0
0.295,-14144.0,-5440.0,64.0
0.2975,-14208.0,-5376.0,64.0
0.3,-14272.0,-5440.0,64.0
0.3025,-14336.0,-5376.0,128.0
0.305,-14400.0,-5248.0,128.0
0.3075,-14464.0,-5184.0,64.0
0.31,-14528.0,-5312.0,0.0
0.3125,-14592.0,-5120.0,0.0
0.315,-14656.0,-5120.0,-128.0
0.3175,-14656.0,-5056.0,-128.0
0.32,-14720.0,-5056.0,-128.0
0.3225,-14784.0,-5056.0,-192.0
0.325,-14848.0,-5056.0,-320.0
0.3275,-14912.0,-5056.0,-384.0
0.33,-14976.0,-5056.0,-448.0
0.3325,-15040.0,-5056.0,-448.0
0.335,-15104.0,-5056.0,-384.0
0.3375,-15168.0,-5056.0,-320.0
0.34,-15296.0,-5120.0,-320.0
0.3425,-15424.0,-5184.0,-192.0
0.345,-15488.0,-5184.0,-256.0
0.3475,-15552.0,-5184.0,-192.0
0.35,-15552.0,-5248.0,-256.0
0.3525,-15616.0,-5376.0,-192.0
0.355,-15552.0,-5376.0,-192.0
0.3575,-15488.0,-5440.0,-192.0
0.36,-15552.0,-5504.0,-256.0
0.3625,-15552.0,-5440.0,-192.0
0.365,-15488.0,-5568.0,-192.0
0.3675,-15424.0,-5632.0,-256.0
0.37,-15360.0,-5696.0,-320.0
0.3725,-15360.0,-5696.0,-320.0
0.375,-15360.0,-5760.0,-320.0
0.3775,-15296.0,-5824.0,-384.0
0.38,-15168.0,-5888.0,-384.0
0.3825,-15168.0,-5888.0,-384.0
0.385,-15104.0,-5888.0,-384.0
0.3875,-15104.0,-5952.0,-448.0
0.39,-15104.0,-5952.0,-320.0
0.3925,-15104.0,-5952.0,-384.0
0.395,-15104.0,-5952.0,-320.0
0.3975,-14976.0,-5952.0,-192.0
0.4,-14912.0,-6016.0,-128.0
0.4025,-14848.0,-6016.0,-64.0
0.405,-14784.0,-5952.0,-64.0
0.4075,-14656.0,-5952.0,-64.0
0.41,-14592.0,-5952.0,-64.0
0.4125,-14592.0,-5888.0,0.0
0.415,-14528.0,-5952.0,128.0
0.4175,-14464.0,-5952.0,128.0
0.42,-14336.0,-5952.0,128.0
0.4225,-14272.0,-5888.0,64.0
0.425,-14208.0,-5888.0,0.0
0.4275,-14208.0,-5824.0,-64.0
0.43,-14272.0,-5888.0,-64.0
0.4325,-14272.0,-5888.0,-192.0
0.435,-14400.0,-5952.0,-192.0
0.4375,-14528.0,-5952.0,-256.0
0.44,-14592.0,-6016.0,-256.0
0.4425,-14784.0,-6080.0,-192.0
0.445,-14912.0,-6144.0,-192.0
0.4475,-14976.0,-6144.0,-192.0
0.45,-14976.0,-6208.0,-128.0
0.4525,-15040.0,-6144.0,64.0
0.455,-15104.0,-6144.0,128.0
0.4575,-15040.0,-6080.0,320.0
0.46,-15104.0,-6080.0,320.0
0.4625,-15104.0,-6080.0,448.0
0.465,-15104.0,-6080.0,512.0
0.4675,-15104.0,-6016.0,704.0
0.47,-15104.0,-5952.0,704.0
0.4725,-15168.0,-5952.0,768.0
0.475,-15168.0,-6016.0,768.0
0.4775,-15168.0,-6016.0,768.0
0.48,-15104.0,-5952.0,640.0
0.4825,-15168.0,-5952.0,640.0
0.485,-15168.0,-5888.0,640.0
0.4875,-15168.0,-5824.0,576.0
0.49,-15104.0,-5824.0,640.0
0.4925,-15168.0,-5760.0,704.0
0.495,-15104.0,-5696.0,768.0
0.4975,-15168.0,-5632.0,704.0
0.5,-15232.0,-5632.0,704.0
0.5025,-15296.0,-5504.0,832.0
0.505,-15488.0,-5504.0,832.0
0.5075,-15616.0,-5504.0,768.0
0.51,-15808.0,-5504.0,768.0
0.5125,-15872.0,-5568.0,768.0
0.515,-15936.0,-5632.0,704.0
0.5175,-16000.0,-5632.0,704.0
0.52,-16128.0,-5696.0,576.0
0.5225,-16128.0,-5760.0,512.0
0.525,-16320.0,-5824.0,384.0
0.5275,-16320.0,-5888.0,320.0
0.53,-16384.0,-5888.0,320.0
0.5325,-16448.0,-5952.0,320.0
0.535,-16512.0,-6016.0,320.0
0.5375,-16576.0,-6080.0,320.0
0.54,-16576.0,-6144.0,128.0
0.5425,-16640.0,-6208.0,128.0
0.545,-16704.0,-6272.0,128.0
0.5475,-16704.0,-6272.0,128.0
0.55,-16704.0,-6336.0,64.0
0.5525,-16704.0,-6400.0,64.0
0.555,-16640.0,-6464.0,128.0
0.5575,-16640.0,-6464.0,128.0
0.56,-16512.0,-6528.0,192.0
0.5625,-16512.0,-6592.0,128.0
0.565,-16640.0,-6720.0,256.0
0.5675,-16640.0,-6976.0,512.0
0.57,-16640.0,-7104.0,704.0
0.5725,-16640.0,-7168.0,768.0
0.575,-16640.0,-7232.0,960.0
0.5775,-16576.0,-7232.0,1088.0
0.58,-16512.0,-7232.0,1152.0
0.5825,-16448.0,-7232.0,1216.0
0.585,-16384.0,-7232.0,1280.0
0.5875,-16384.0,-7232.0,1216.0
0.59,-16256.0,-7168.0,1088.0
0.5925,-16256.0,-7168.0,1088.0
0.595,-16192.0,-7104.0,832.0
0.5975,-16192.0,-7040.0,832.0
0.6,-16128.0,-6912.0,704.0
0.6025,-16064.0,-6912.0,512.0
0.605,-16064.0,-6848.0,384.0
0.6075,-16000.0,-6720.0,256.0
0.61,-16000.0,-6592.0,192.0
0.6125,-16000.0,-6400.0,0.0
0.615,-16000.0,-6272.0,-128.0
0.6175,-16000.0,-6208.0,-192.0
0.62,-16000.0,-6080.0,-320.0
0.6225,-15936.0,-5952.0,-448.0
0.625,-15936.0,-5760.0,-512.0
0.6275,-15936.0,-5632.0,-512.0
0.63,-15936.0,-5504.0,-512.0
0.6325,-15936.0,-5376.0,-448.0
0.635,-15872.0,-5184.0,-384.0
0.6375,-15808.0,-5120.0,-384.0
0.64,-15616.0,-5056.0,-256.0
0.6425,-15552.0,-5056.0,-192.0
0.645,-15424.0,-5056.0,-192.0
0.6475,-15424.0,-5120.0,-64.0
0.65,-15360.0,-5120.0,0.0
0.6525,-15360.0,-5248.0,128.0
0.655,-15296.0,-5312.0,128.0
0.6575,-15232.0,-5376.0,64.0
0.66,-15232.0,-5440.0,192.0
0.6625,-15232.0,-5504.0,128.0
0.665,-15232.0,-5504.0,128.0
0.6675,-15232.0,-5568.0,128.0
0.67,-15232.0,-5696.0,192.0
0.6725,-15232.0,-5696.0,192.0
0.675,-15168.0,-5760.0,192.0
0.6775,-15104.0,-5696.0,192.0
0.68,-15040.0,-5760.0,192.0
0.6825,-15040.0,-5824.0,192.0
0.685,-15040.0,-5824.0,192.0
0.6875,-14976.0,-5888.0,192.0
0.69,-14976.0,-5952.0,192.0
0.6925,-14848.0,-5952.0,256.0
0.695,-14848.0,-5952.0,64.0
0.6975,-14784.0,-6016.0,64.0
0.7,-14720.0,-6016.0,64.0
0.7025,-14720.0,-6016.0,128.0
0.705,-14656.0,-6080.0,64.0
0.7075,-14656.0,-6080.0,64.0
0.71,-14528.0,-6080.0,0.0
0.7125,-14528.0,-6080.0,64.0
0.715,-14592.0,-6144.0,64.0
0.7175,-14656.0,-6144.0,128.0
0.72,-14592.0,-6144.0,192.0
0.7225,-14528.0,-6144.0,128.0
0.725,-14528.0,-6144.0,192.0
0.7275,-14592.0,-6144.0,256.0
0.73,-14528.0,-6144.0,192.0
0.7325,-14464.0,-6144.0,128.0
0.735,-14528.0,-6080.0,64.0
0.7375,-14528.0,-6144.0,128.0
0.74,-14592.0,-6144.0,128.0
0.7425,-14592.0,-6208.0,192.0
0.745,-14720.0,-6144.0,192.0
0.7475,-14656.0,-6144.0,128.0
0.75,-14720.0,-6144.0,128.0
0.7525,-14784.0,-6144.0,192.0
0.755,-14784.0,-6208.0,192.0
0.7575,-14848.0,-6208.0,192.0
0.76,-14848.0,-6336.0,192.0
0.7625,-14912.0,-6336.0,128.0
0.765,-14912.0,-6464.0,128.0
0.7675,-14976.0,-6464.0,128.0
0.77,-15104.0,-6528.0,192.0
0.7725,-15104.0,-6528.0,192.0
0.775,-15168.0,-6592.0,192.0
0.7775,-15104.0,-6656.0,192.0
0.78,-15232.0,-6656.0,256.0
0.7825,-15232.0,-6592.0,256.0
0.785,-15360.0,-6592.0,256.0
0.7875,-15360.0,-6592.0,320.0
0.79,-15360.0,-6592.0,256.0
0.7925,-15360.0,-6656.0,256.0
0.795,-15296.0,-6656.0,256.0
0.7975,-15360.0,-6720.0,192.0
0.8,-15360.0,-6720.0,256.0
0.8025,-15424.0,-6720.0,256.0
0.805,-15360.0,-6656.0,192.0
0.8075,-15424.0,-6784.0,192.0
0.81,-15360.0,-6720.0,128.0
0.8125,-15360.0,-6720.0,128.0
0.815,-15424.0,-6656.0,64.0
0.8175,-15360.0,-6656.0,0.0
0.82,-15360.0,-6720.0,0.0
0.8225,-15360.0,-6656.0,0.0
0.825,-15296.0,-6592.0,0.0
0.8275,-15360.0,-6528.0,0.0
0.83,-15296.0,-6528.0,-64.0
0.8325,-15360.0,-6592.0,-64.0
0.835,-15360.0,-6592.0,-128.0
0.8375,-15360.0,-6592.0,-128.0
0.84,-15360.0,-6592.0,-128.0
0.8425,-15360.0,-6592.0,-128.0
0.845,-15424.0,-6656.0,-128.0
0.8475,-15360.0,-6528.0,-128.0
0.85,-15424.0,-6528.0,-256.0
0.8525,-15488.0,-6464.0,-256.0
0.855,-15488.0,-6464.0,-320.0
0.8575,-15552.0,-6528.0,-448.0
0.86,-15488.0,-6528.0,-512.0
0.8625,-15552.0,-6528.0,-448.0
0.865,-15552.0,-6528.0,-384.0
0.8675,-15552.0,-6592.0,-384.0
0.87,-15680.0,-6656.0,-384.0
0.8725,-15744.0,-6720.0,-384.0
0.875,-15808.0,-6784.0,-384.0
0.8775,-16000.0,-6976.0,-320.0
0.88,-16128.0,-6912.0,-192.0
0.8825,-16192.0,-6912.0,-192.0
0.885,-16192.0,-6848.0,-192.0
0.8875,-16128.0,-6976.0,-192.0
0.89,-16128.0,-6976.0,-192.0
0.8925,-16064.0,-7040.0,-192.0
0.895,-16000.0,-6976.0,-256.0
0.8975,-16000.0,-6976.0,-256.0
0.9,-15936.0,-6976.0,-256.0
0.9025,-15936.0,-6912.0,-256.0
0.905,-15872.0,-6848.0,-384.0
0.9075,-15808.0,-6784.0,-384.0
0.91,-15744.0,-6720.0,-384.0
0.9125,-15744.0,-6720.0,-448.0
0.915,-15680.0,-6656.0,-448.0
0.9175,-15616.0,-6592.0,-448.0
0.92,-15552.0,-6464.0,-448.0
0.9225,-15552.0,-6400.0,-448.0
0.925,-15552.0,-6272.0,-448.0
0.9275,-15552.0,-6208.0,-448.0
0.93,-15552.0,-6208.0,-448.0
0.9325,-15488.0,-6144.0,-448.0
0.935,-15552.0,-6080.0,-448.0
0.9375,-15488.0,-6080.0,-384.0
0.94,-15488.0,-6016.0,-384.0
0.9425,-15424.0,-6080.0,-384.0
0.945,-15424.0,-6016.0,-320.0
0.9475,-15424.0,-6016.0,-320.0
0.95,-15488.0,-5952.0,-320.0
0.9525,-15552.0,-5952.0,-256.0
0.955,-15552.0,-5952.0,-192.0
0.9575,-15552.0,-5952.0,-192.0
0.96,-15552.0,-5952.0,-256.0
0.9625,-15488.0,-5952.0,-128.0
0.965,-15488.0,-6016.0,-128.0
0.9675,-15488.0,-6016.0,-128.0
0.97,-15488.0,-5952.0,-128.0
0.9725,-15424.0,-5952.0,-128.0
0.975,-15360.0,-5952.0,-128.0
0.9775,-15360.0,-5952.0,-128.0
0.98,-15424.0,-5952.0,-256.0
0.9825,-15488.0,-5888.0,-320.0
0.985,-15424.0,-5888.0,-320.0
0.9875,-15424.0,-5952.0,-320.0
0.99,-15488.0,-6016.0,-256.0
0.9925,-15552.0,-6016.0,-320.0
0.995,-15616.0,-6080.0,-320.0
0.9975,-15680.0,-6144.0,-256.0
1.0,-6144.0,-192.0,
1.0025,-15872.0,-6144.0,-192.0
1.005,-15872.0,-6208.0,-192.0
1.0075,-15808.0,-6208.0,-192.0
1.01,-15872.0,-6144.0,-192.0
1.0125,-15872.0,-6080.0,-128.0
1.015,-15872.0,-6080.0,-128.0
1.0175,-15936.0,-6080.0,-64.0
1.02,-15872.0,-6016.0,-128.0
1.0225,-15872.0,-5952.0,-128.0
1.025,-15808.0,-5824.0,-128.0
1.0275,-15808.0,-5824.0,-192.0
1.03,-15808.0,-5760.0,-128.0
1.0325,-15744.0,-5696.0,-192.0
1.035,-15744.0,-5632.0,-192.0
1.0375,-15680.0,-5568.0,-192.0
1.04,-15680.0,-5440.0,-192.0
1.0425,-15680.0,-5440.0,-192.0
1.045,-15744.0,-5376.0,-256.0
1.0475,-15680.0,-5376.0,-256.0
1.05,-15616.0,-5184.0,-320.0
1.0525,-15616.0,-5184.0,-256.0
1.055,-15552.0,-5184.0,-320.0
1.0575,-15488.0,-5184.0,-256.0
1.06,-15424.0,-5184.0,-256.0
1.0625,-15296.0,-5184.0,-256.0
1.065,-15296.0,-5184.0,-128.0
1.0675,-15232.0,-5248.0,-192.0
1.07,-15168.0,-5312.0,-128.0
1.0725,-15232.0,-5312.0,-128.0
1.075,-15168.0,-5312.0,-128.0
1.0775,-15104.0,-5440.0,-128.0
1.08,-15104.0,-5440.0,-64.0
1.0825,-15104.0,-5440.0,0.0
1.085,-15040.0,-5440.0,64.0
1.0875,-14976.0,-5376.0,128.0
1.09,-14912.0,-5312.0,192.0
1.0925,-14912.0,-5312.0,256.0
1.095,-14848.0,-5312.0,256.0
1.0975,-14848.0,-5376.0,384.0
1.1,-14848.0,-5440.0,384.0
1.1025,-14848.0,-5440.0,448.0
1.105,-14848.0,-5376.0,512.0
1.1075,-14912.0,-5312.0,640.0
1.11,-14912.0,-5248.0,768.0
1.1125,-14912.0,-5184.0,832.0
1.115,-14848.0,-5056.0,896.0
1.1175,-14784.0,-4928.0,960.0
1.12,-14656.0,-4800.0,1280.0
1.1225,-14720.0,-4736.0,1472.0
1.125,-14784.0,-4672.0,1472.0
1.1275,-14784.0,-4608.0,1472.0
1.13,-14784.0,-4608.0,1472.0
1.1325,-14720.0,-4544.0,1472.0
1.135,-14784.0,-4480.0,1536.0
1.1375,-14720.0,-4480.0,1536.0
1.14,-14656.0,-4416.0,1472.0
1.1425,-14656.0,-4352.0,1408.0
1.145,-14656.0,-4352.0,1344.0
1.1475,-14656.0,-4352.0,1280.0
1.15,-14656.0,-4480.0,1152.0
1.1525,-14656.0,-4608.0,1152.0
1.155,-14784.0,-4672.0,1024.0
1.1575,-14784.0,-4800.0,960.0
1.16,-14784.0,-4928.0,896.0
1.1625,-14784.0,-5056.0,896.0
1.165,-14720.0,-5184.0,960.0
1.1675,-14784.0,-5312.0,1024.0
1.17,-14720.0,-5504.0,960.0
1.1725,-14656.0,-5696.0,960.0
1.175,-14656.0,-5952.0,1024.0
1.1775,-14656.0,-6208.0,1088.0
1.18,-14656.0,-6464.0,1088.0
1.1825,-14592.0,-6720.0,1152.0
1.185,-14592.0,-6976.0,1216.0
1.1875,-14592.0,-7232.0,1344.0
1.19,-14656.0,-7424.0,1344.0
1.1925,-14592.0,-7680.0,1408.0
1.195,-14528.0,-7872.0,1472.0
1.1975,-14528.0,-8064.0,1536.0
1.2,-14464.0,-8320.0,1536.0
1.2025,-14464.0,-8448.0,1536.0
1.205,-14400.0,-8576.0,1536.0
1.2075,-14336.0,-8640.0,1536.0
1.21,-14400.0,-8768.0,1536.0
1.2125,-14464.0,-8896.0,1472.0
1.215,-14528.0,-8896.0,1472.0
1.2175,-14720.0,-8896.0,1536.0
1.22,-14912.0,-8896.0,1472.0
1.2225,-15040.0,-8832.0,1472.0
1.225,-15104.0,-8704.0,1472.0
1.2275,-15104.0,-8576.0,1472.0
1.23,-15104.0,-8448.0,1408.0
1.2325,-15168.0,-8256.0,1408.0
1.235,-15168.0,-8128.0,1408.0
1.2375,-15232.0,-8064.0,1280.0
1.24,-15168.0,-7872.0,1280.0
1.2425,-15104.0,-7744.0,1152.0
1.245,-15104.0,-7552.0,1088.0
1.2475,-15104.0,-7488.0,1024.0
1.25,-15040.0,-7424.0,960.0
1.2525,-15104.0,-7296.0,960.0
1.255,-15232.0,-7232.0,896.0
1.2575,-15232.0,-7104.0,832.0
1.26,-15232.0,-7040.0,768.0
1.2625,-15168.0,-6976.0,640.0
1.265,-15232.0,-6912.0,512.0
1.2675,-15232.0,-6848.0,448.0
1.27,-15232.0,-6784.0,384.0
1.2725,-15232.0,-6784.0,320.0
1.275,-15232.0,-6720.0,256.0
1.2775,-15296.0,-6592.0,256.0
1.28,-15232.0,-6528.0,192.0
1.2825,-15232.0,-6464.0,128.0
1.285,-15168.0,-6336.0,64.0
1.2875,-15232.0,-6208.0,128.0
1.29,-15168.0,-6144.0,0.0
1.2925,-15168.0,-6016.0,0.0
1.295,-15168.0,-5952.0,0.0
1.2975,-15104.0,-5888.0,-192.0
1.3,-15168.0,-5888.0,-64.0
1.3025,-15104.0,-5888.0,-128.0
1.305,-15040.0,-5888.0,-128.0
1.3075,-14976.0,-5760.0,-256.0
1.31,-14976.0,-5888.0,-256.0
1.3125,-14976.0,-5888.0,-384.0
1.315,-14848.0,-6080.0,-512.0
1.3175,-14848.0,-6208.0,-512.0
1.32,-14784.0,-6272.0,-640.0
1.3225,-14784.0,-6400.0,-832.0
1.325,-14848.0,-6528.0,-896.0
1.3275,-14848.0,-6656.0,-896.0
1.33,-14784.0,-6720.0,-960.0
1.3325,-14784.0,-6848.0,-1088.0
1.335,-14720.0,-6976.0,-1152.0
1.3375,-14720.0,-7104.0,-1280.0
1.34,-14784.0,-7104.0,-1344.0
1.3425,-14848.0,-7104.0,-1408.0
1.345,-14848.0,-7104.0,-1472.0
1.3475,-14848.0,-7104.0,-1472.0
1.35,-14848.0,-7104.0,-1536.0
1.3525,-14848.0,-7104.0,-1600.0
1.355,-14912.0,-7040.0,-1600.0
1.3575,-14976.0,-6912.0,-1664.0
1.36,-15040.0,-6912.0,-1664.0
1.3625,-14976.0,-6784.0,-1664.0
1.365,-14976.0,-6720.0,-1536.0
1.3675,-14976.0,-6656.0,-1600.0
1.37,-14976.0,-6592.0,-1536.0
1.3725,-14912.0,-6528.0,-1472.0
1.375,-14912.0,-6464.0,-1472.0
1.3775,-14912.0,-6400.0,-1536.0
1.38,-14848.0,-6400.0,-1536.0
1.3825,-14848.0,-6336.0,-1408.0
1.385,-14848.0,-6208.0,-1408.0
1.3875,-14784.0,-6144.0,-1472.0
1.39,-14784.0,-6144.0,-1472.0
1.3925,-14784.0,-6080.0,-1408.0
1.395,-14784.0,-6016.0,-1408.0
1.3975,-14848.0,-5952.0,-1408.0
1.4,-14912.0,-5888.0,-1408.0
1.4025,-15040.0,-5824.0,-1408.0
1.405,-15040.0,-5760.0,-1408.0
1.4075,-15040.0,-5760.0,-1472.0
1.41,-15104.0,-5632.0,-1472.0
1.4125,-15104.0,-5568.0,-1472.0
1.415,-15168.0,-5504.0,-1408.0
1.4175,-15232.0,-5376.0,-1536.0
1.42,-15232.0,-5312.0,-1536.0
1.4225,-15296.0,-5248.0,-1472.0
1.425,-15296.0,-5120.0,-1600.0
1.4275,-15360.0,-5184.0,-1536.0
1.43,-15296.0,-5120.0,-1472.0
1.4325,-15296.0,-5056.0,-1472.0
1.435,-15296.0,-5056.0,-1472.0
1.4375,-15360.0,-5056.0,-1472.0
1.44,-15360.0,-5120.0,-1472.0
1.4425,-15360.0,-5120.0,-1472.0
1.445,-15424.0,-5120.0,-1408.0
1.4475,-15488.0,-5184.0,-1344.0
1.45,-15552.0,-5184.0,-1280.0
1.4525,-15552.0,-5184.0,-1152.0
1.455,-15616.0,-5120.0,-1024.0
1.4575,-15680.0,-5120.0,-1024.0
1.46,-15744.0,-5056.0,-960.0
1.4625,-15744.0,-5056.0,-832.0
1.465,-15808.0,-5056.0,-768.0
1.4675,-15808.0,-5056.0,-640.0
1.47,-15808.0,-5120.0,-576.0
1.4725,-15872.0,-5184.0,-512.0
1.475,-15872.0,-5248.0,-448.0
1.4775,-15872.0,-5312.0,-320.0
1.48,-15872.0,-5376.0,-256.0
1.4825,-15808.0,-5440.0,-128.0
1.485,-15808.0,-5504.0,0.0
1.4875,-15808.0,-5632.0,64.0
1.49,-15872.0,-5696.0,192.0
1.4925,-15872.0,-5760.0,320.0
1.495,-15872.0,-5952.0,384.0
1.4975,-15872.0,-6016.0,576.0
1.5,-15872.0,-6080.0,640.0
1.5025,-15872.0,-6208.0,704.0
1.505,-15808.0,-6336.0,832.0
1.5075,-15808.0,-6400.0,768.0
1.51,-15744.0,-6464.0,832.0
1.5125,-15744.0,-6464.0,960.0
1.515,-15744.0,-6528.0,1024.0
1.5175,-15744.0,-6464.0,1024.0
1.52,-15744.0,-6592.0,1152.0
1.5225,-15744.0,-6656.0,1152.0
1.525,-15808.0,-6656.0,1280.0
1.5275,-15872.0,-6592.0,1344.0
1.53,-15872.0,-6592.0,1408.0
1.5325,-15872.0,-6656.0,1408.0
1.535,-15936.0,-6656.0,1472.0
1.5375,-15936.0,-6592.0,1536.0
1.54,-15936.0,-6528.0,1536.0
1.5425,-15936.0,-6464.0,1472.0
1.545,-15936.0,-6336.0,1472.0
1.5475,-15872.0,-6272.0,1408.0
1.55,-15872.0,-6208.0,1344.0
1.5525,-15872.0,-6144.0,1280.0
1.555,-15872.0,-6144.0,1280.0
1.5575,-15872.0,-6016.0,1216.0
1.56,-15808.0,-5952.0,1216.0
1.5625,-15808.0,-5952.0,1152.0
1.565,-15808.0,-5952.0,1024.0
1.5675,-15808.0,-5952.0,960.0
1.57,-15808.0,-5888.0,896.0
1.5725,-15872.0,-5888.0,896.0
1.575,-15808.0,-5888.0,896.0
1.5775,-15744.0,-5888.0,832.0
1.58,-15808.0,-5824.0,832.0
1.5825,-15808.0,-5824.0,704.0
1.585,-15744.0,-5760.0,704.0
1.5875,-15680.0,-5760.0,768.0
1.59,-15616.0,-5696.0,704.0
1.5925,-15616.0,-5824.0,704.0
1.595,-15552.0,-5824.0,640.0
1.5975,-15552.0,-5760.0,640.0
1.6,-15552.0,-5824.0,448.0
1.6025,-15488.0,-5760.0,384.0
1.605,-15552.0,-5760.0,384.0
1.6075,-15552.0,-5824.0,384.0
1.61,-15552.0,-5824.0,384.0
1.6125,-15488.0,-5760.0,320.0
1.615,-15552.0,-5824.0,192.0
1.6175,-15552.0,-5888.0,128.0
1.62,-15488.0,-5888.0,64.0
1.6225,-15488.0,-5888.0,64.0
1.625,-15552.0,-5952.0,64.0
1.6275,-15488.0,-5952.0,-64.0
1.63,-15488.0,-5952.0,-64.0
1.6325,-15488.0,-5952.0,-128.0
1.635,-15424.0,-5952.0,-128.0
1.6375,-15424.0,-5952.0,-192.0
1.64,-15360.0,-5952.0,-192.0
1.6425,-15360.0,-5952.0,-256.0
1.645,-15424.0,-6016.0,-256.0
1.6475,-15360.0,-6016.0,-320.0
1.65,-15360.0,-6016.0,-320.0
1.6525,-15232.0,-5952.0,-448.0
1.655,-15232.0,-6016.0,-448.0
1.6575,-15232.0,-6080.0,-448.0
1.66,-15232.0,-6016.0,-448.0
1.6625,-15232.0,-6016.0,-448.0
1.665,-15232.0,-6080.0,-448.0
1.6675,-15168.0,-6016.0,-448.0
1.67,-15168.0,-6080.0,-448.0
1.6725,-15104.0,-6144.0,-448.0
1.675,-15168.0,-6080.0,-448.0
1.6775,-15168.0,-6144.0,-448.0
1.68,-15296.0,-6144.0,-512.0
1.6825,-15360.0,-6208.0,-576.0
1.685,-15424.0,-6272.0,-576.0
1.6875,-15488.0,-6272.0,-576.0
1.69,-15616.0,-6272.0,-576.0
1.6925,-15552.0,-6272.0,-576.0
1.695,-15616.0,-6336.0,-576.0
1.6975,-15552.0,-6336.0,-512.0
1.7,-15552.0,-6400.0,-384.0
1.7025,-15552.0,-6336.0,-384.0
1.705,-15552.0,-6400.0,-448.0
1.7075,-15552.0,-6336.0,-448.0
1.71,-15552.0,-6272.0,-448.0
1.7125,-15488.0,-6336.0,-448.0
1.715,-15424.0,-6336.0,-448.0
1.7175,-15424.0,-6336.0,-448.0
1.72,-15360.0,-6336.0,-448.0
1.7225,-15296.0,-6272.0,-512.0
1.725,-15296.0,-6272.0,-448.0
1.7275,-15232.0,-6272.0,-512.0
1.73,-15296.0,-6272.0,-576.0
1.7325,-15168.0,-6144.0,-448.0
1.735,-15168.0,-6080.0,-512.0
1.7375,-15104.0,-6080.0,-512.0
1.74,-15104.0,-6080.0,-448.0
1.7425,-15168.0,-6080.0,-448.0
1.745,-15104.0,-6080.0,-448.0
1.7475,-15104.0,-6016.0,-448.0
1.75,-15104.0,-6016.0,-448.0
1.7525,-15104.0,-5952.0,-320.0
1.755,-15104.0,-5952.0,-320.0
1.7575,-15104.0,-5952.0,-384.0
1.76,-14976.0,-5952.0,-384.0
1.7625,-14976.0,-5888.0,-320.0
1.765,-14976.0,-5888.0,-320.0
1.7675,-15040.0,-5888.0,-256.0
1.77,-14976.0,-5888.0,-320.0
1.7725,-14976.0,-5888.0,-256.0
1.775,-14976.0,-5824.0,-256.0
1.7775,-14976.0,-5824.0,-192.0
1.78,-14976.0,-5824.0,-256.0
1.7825,-14976.0,-5824.0,-256.0
1.785,-15040.0,-5824.0,-256.0
1.7875,-14976.0,-5760.0,-320.0
1.79,-14976.0,-5760.0,-320.0
1.7925,-14976.0,-5760.0,-256.0
1.795,-14976.0,-5696.0,-320.0
1.7975,-14976.0,-5696.0,-320.0
1.8,-14976.0,-5696.0,-320.0
1.8025,-15040.0,-5696.0,-256.0
1.805,-15040.0,-5760.0,-256.0
1.8075,-15168.0,-5824.0,-320.0
1.81,-15168.0,-5888.0,-256.0
1.8125,-15296.0,-5952.0,-320.0
1.815,-15424.0,-6016.0,-256.0
1.8175,-15552.0,-6080.0,-192.0
1.82,-15616.0,-6016.0,-128.0
1.8225,-15680.0,-6016.0,-128.0
1.825,-15680.0,-6080.0,-128.0
1.8275,-15744.0,-6016.0,0.0
1.83,-15808.0,-6016.0,0.0
1.8325,-15808.0,-6080.0,0.0
1.835,-15808.0,-6016.0,0.0
1.8375,-15808.0,-6016.0,-64.0
1.84,-15680.0,-6080.0,-64.0
1.8425,-15744.0,-6016.0,-192.0
1.845,-15744.0,-5952.0,-320.0
1.8475,-15680.0,-5952.0,-320.0
1.85,-15616.0,-5952.0,-384.0
1.8525,-15680.0,-5824.0,-384.0
1.855,-15680.0,-5824.0,-384.0
1.8575,-15616.0,-5824.0,-448.0
1.86,-15616.0,-5824.0,-384.0
1.8625,-15680.0,-5760.0,-384.0
1.865,-15744.0,-5760.0,-448.0
1.8675,-15872.0,-5760.0,-384.0
1.87,-15936.0,-5760.0,-320.0
1.8725,-16064.0,-5760.0,-320.0
1.875,-16128.0,-5760.0,-256.0
1.8775,-16064.0,-5760.0,-192.0
1.88,-16064.0,-5760.0,-128.0
1.8825,-16000.0,-5760.0,-128.0
1.885,-15936.0,-5760.0,-128.0
1.8875,-15872.0,-5760.0,-128.0
1.89,-15872.0,-5824.0,-64.0
1.8925,-15872.0,-5824.0,-128.0
1.895,-15808.0,-5888.0,0.0
1.8975,-15744.0,-5888.0,0.0
1.9,-15680.0,-5952.0,0.0
1.9025,-15552.0,-5888.0,-64.0
1.905,-15424.0,-5888.0,0.0
1.9075,-15360.0,-5952.0,64.0
1.91,-15360.0,-5952.0,0.0
1.9125,-15424.0,-5952.0,0.0
1.915,-15488.0,-5888.0,0.0
1.9175,-15552.0,-5824.0,0.0
1.92,-15488.0,-5824.0,0.0
1.9225,-15488.0,-5760.0,-64.0
1.925,-15488.0,-5760.0,-64.0
1.9275,-15424.0,-5760.0,-64.0
1.93,-15488.0,-5760.0,0.0
1.9325,-15424.0,-5760.0,-64.0
1.935,-15424.0,-5696.0,0.0
1.9375,-15360.0,-5696.0,-64.0
1.94,-15360.0,-5696.0,0.0
1.9425,-15360.0,-5696.0,0.0
1.945,-15360.0,-5696.0,-128.0
1.9475,-15360.0,-5760.0,-64.0
1.95,-15360.0,-5632.0,-64.0
1.9525,-15296.0,-5632.0,-128.0
1.955,-15360.0,-5632.0,-128.0
1.9575,-15424.0,-5504.0,-64.0
1.96,-15360.0,-5568.0,-64.0
1.9625,-15296.0,-5568.0,-128.0
1.965,-15360.0,-5568.0,-128.0
1.9675,-15360.0,-5568.0,-192.0
1.97,-15296.0,-5632.0,-192.0
1.9725,-15296.0,-5632.0,-256.0
1.975,-15296.0,-5632.0,-320.0
1.9775,-15296.0,-5632.0,-384.0
1.98,-15296.0,-5696.0,-384.0
1.9825,-15296.0,-5696.0,-320.0
1.985,-15232.0,-5696.0,-448.0
1.9875,-15232.0,-5696.0,-448.0
1.99,-15168.0,-5696.0,-448.0
1.9925,-15232.0,-5760.0,-512.0
1.995,-15168.0,-5760.0,-512.0
1.9975,-15104.0,-5824.0,-512.0
2.0,-5952.0,-640.0,
2.0025,-15168.0,-5952.0,-576.0
2.005,-15104.0,-6016.0,-704.0
2.0075,-15040.0,-6080.0,-704.0
2.01,-15040.0,-6080.0,-768.0
2.0125,-15040.0,-6144.0,-768.0
2.015,-15040.0,-6208.0,-832.0
2.0175,-15040.0,-6208.0,-896.0
2.02,-14912.0,-6272.0,-768.0
2.0225,-14912.0,-6272.0,-768.0
2.025,-14912.0,-6272.0,-896.0
2.0275,-14912.0,-6400.0,-960.0
2.03,-14912.0,-6400.0,-896.0
2.0325,-14912.0,-6528.0,-896.0
2.035,-14976.0,-6592.0,-832.0
2.0375,-14976.0,-6592.0,-768.0
2.04,-15040.0,-6656.0,-768.0
2.0425,-15040.0,-6720.0,-704.0
2.045,-15104.0,-6720.0,-768.0
2.0475,-15040.0,-6720.0,-832.0
2.05,-15040.0,-6784.0,-768.0
2.0525,-14976.0,-6912.0,-704.0
2.055,-14976.0,-6912.0,-768.0
2.0575,-14912.0,-6912.0,-704.0
2.06,-14912.0,-6848.0,-704.0
2.0625,-14912.0,-6784.0,-768.0
2.065,-14848.0,-6784.0,-896.0
2.0675,-14848.0,-6848.0,-832.0
2.07,-14784.0,-6848.0,-960.0
2.0725,-14784.0,-6784.0,-960.0
2.075,-14784.0,-6720.0,-960.0
2.0775,-14848.0,-6720.0,-896.0
2.08,-14784.0,-6592.0,-704.0
2.0825,-14784.0,-6528.0,-832.0
2.085,-14784.0,-6400.0,-832.0
2.0875,-14720.0,-6336.0,-960.0
2.09,-14720.0,-6336.0,-896.0
2.0925,-14784.0,-6272.0,-832.0
2.095,-14784.0,-6272.0,-896.0
2.0975,-14784.0,-6336.0,-832.0
2.1,-14848.0,-6336.0,-896.0
2.1025,-14848.0,-6272.0,-832.0
2.105,-14912.0,-6208.0,-768.0
2.1075,-14912.0,-6144.0,-768.0
2.11,-14976.0,-6208.0,-768.0
2.1125,-14976.0,-6272.0,-832.0
2.115,-14976.0,-6272.0,-768.0
2.1175,-14912.0,-6208.0,-768.0
2.12,-14976.0,-6208.0,-704.0
2.1225,-14976.0,-6208.0,-640.0
2.125,-15040.0,-6272.0,-576.0
2.1275,-15104.0,-6272.0,-640.0
2.13,-15104.0,-6272.0,-576.0
2.1325,-15168.0,-6272.0,-448.0
2.135,-15168.0,-6272.0,-448.0
2.1375,-15168.0,-6272.0,-448.0
2.14,-15104.0,-6208.0,-448.0
2.1425,-15168.0,-6208.0,-512.0
2.145,-15168.0,-6208.0,-448.0
2.1475,-15168.0,-6208.0,-448.0
2.15,-15232.0,-6208.0,-448.0
2.1525,-15296.0,-6208.0,-512.0
2.155,-15296.0,-6208.0,-448.0
2.1575,-15296.0,-6208.0,-384.0
2.16,-15424.0,-6272.0,-320.0
2.1625,-15424.0,-6208.0,-384.0
2.165,-15424.0,-6208.0,-384.0
2.1675,-15488.0,-6208.0,-384.0
2.17,-15424.0,-6272.0,-320.0
2.1725,-15360.0,-6208.0,-256.0
2.175,-15424.0,-6080.0,-256.0
2.1775,-15360.0,-6080.0,-320.0
2.18,-15360.0,-6144.0,-256.0
2.1825,-15360.0,-6080.0,-320.0
2.185,-15360.0,-6016.0,-256.0
2.1875,-15296.0,-6016.0,-256.0
2.19,-15296.0,-5952.0,-256.0
2.1925,-15232.0,-5952.0,-320.0
2.195,-15232.0,-5952.0,-320.0
2.1975,-15296.0,-5888.0,-384.0
2.2,-15296.0,-5824.0,-384.0
2.2025,-15360.0,-5760.0,-384.0
2.205,-15360.0,-5696.0,-384.0
2.2075,-15360.0,-5632.0,-384.0
2.21,-15360.0,-5568.0,-384.0
2.2125,-15360.0,-5504.0,-320.0
2.215,-15424.0,-5440.0,-448.0
2.2175,-15424.0,-5504.0,-448.0
2.22,-15488.0,-5504.0,-512.0
2.2225,-15552.0,-5504.0,-448.0
2.225,-15552.0,-5440.0,-448.0
2.2275,-15616.0,-5440.0,-384.0
2.23,-15616.0,-5440.0,-320.0
2.2325,-15616.0,-5440.0,-256.0
2.235,-15552.0,-5440.0,-256.0
2.2375,-15552.0,-5504.0,-128.0
2.24,-15552.0,-5504.0,-128.0
2.2425,-15552.0,-5568.0,-192.0
2.245,-15552.0,-5632.0,-128.0
2.2475,-15552.0,-5568.0,-64.0
2.25,-15552.0,-5632.0,-192.0
2.2525,-15616.0,-5696.0,-64.0
2.255,-15488.0,-5696.0,-128.0
2.2575,-15424.0,-5696.0,-64.0
2.26,-15424.0,-5696.0,-128.0
2.2625,-15488.0,-5696.0,-256.0
2.265,-15360.0,-5696.0,-192.0
2.2675,-15424.0,-5696.0,-192.0
2.27,-15360.0,-5760.0,-192.0
2.2725,-15424.0,-5760.0,-128.0
2.275,-15424.0,-5760.0,-192.0
2.2775,-15360.0,-5760.0,-256.0
2.28,-15360.0,-5696.0,-256.0
2.2825,-15424.0,-5760.0,-192.0
2.285,-15360.0,-5696.0,-256.0
2.2875,-15424.0,-5760.0,-256.0
2.29,-15424.0,-5696.0,-320.0
2.2925,-15424.0,-5568.0,-256.0
2.295,-15424.0,-5632.0,-192.0
2.2975,-15360.0,-5696.0,-256.0
2.3,-15360.0,-5696.0,-192.0
2.3025,-15360.0,-5696.0,-192.0
2.305,-15360.0,-5696.0,-192.0
2.3075,-15360.0,-5696.0,-192.0
2.31,-15360.0,-5696.0,-192.0
2.3125,-15424.0,-5696.0,-192.0
2.315,-15360.0,-5696.0,-64.0
2.3175,-15360.0,-5760.0,-64.0
2.32,-15360.0,-5760.0,-64.0
2.3225,-15360.0,-5760.0,-64.0
2.325,-15360.0,-5760.0,-64.0
2.3275,-15360.0,-5824.0,-64.0
2.33,-15360.0,-5760.0,-64.0
2.3325,-15424.0,-5824.0,0.0
2.335,-15424.0,-5888.0,-64.0
2.3375,-15360.0,-5888.0,-64.0
2.34,-15424.0,-5888.0,-128.0
2.3425,-15424.0,-5824.0,-128.0
2.345,-15424.0,-5824.0,-192.0
2.3475,-15488.0,-5888.0,-192.0
2.35,-15488.0,-5888.0,-256.0
2.3525,-15488.0,-5824.0,-320.0
2.355,-15488.0,-5888.0,-320.0
2.3575,-15424.0,-5952.0,-320.0
2.36,-15488.0,-5824.0,-320.0
2.3625,-15552.0,-5824.0,-384.0
2.365,-15488.0,-5888.0,-448.0
2.3675,-15552.0,-5824.0,-384.0
2.37,-15488.0,-5824.0,-448.0
2.3725,-15488.0,-5760.0,-384.0
2.375,-15552.0,-5824.0,-384.0
2.3775,-15552.0,-5824.0,-384.0
2.38,-15552.0,-5824.0,-448.0
2.3825,-15488.0,-5824.0,-448.0
2.385,-15488.0,-5888.0,-512.0
2.3875,-15552.0,-5824.0,-512.0
2.39,-15552.0,-5824.0,-512.0
2.3925,-15488.0,-5824.0,-640.0
2.395,-15488.0,-5824.0,-576.0
2.3975,-15488.0,-5824.0,-576.0
2.4,-15552.0,-5824.0,-640.0
2.4025,-15552.0,-5824.0,-640.0
2.405,-15616.0,-5824.0,-768.0
2.4075,-15552.0,-5696.0,-576.0
2.41,-15616.0,-5824.0,-640.0
2.4125,-15552.0,-5824.0,-640.0
2.415,-15552.0,-5824.0,-576.0
2.4175,-15552.0,-5760.0,-576.0
2.42,-15552.0,-5824.0,-640.0
2.4225,-15552.0,-5824.0,-576.0
2.425,-15488.0,-5824.0,-640.0
2.4275,-15424.0,-5824.0,-576.0
2.43,-15488.0,-5760.0,-576.0
2.4325,-15488.0,-5824.0,-576.0
2.435,-15424.0,-5824.0,-576.0
2.4375,-15424.0,-5824.0,-512.0
2.44,-15488.0,-5824.0,-576.0
2.4425,-15424.0,-5888.0,-640.0
2.445,-15360.0,-5888.0,-512.0
2.4475,-15424.0,-5888.0,-576.0
2.45,-15360.0,-5952.0,-448.0
2.4525,-15360.0,-5888.0,-448.0
2.455,-15296.0,-5952.0,-512.0
2.4575,-15360.0,-5888.0,-448.0
2.46,-15296.0,-5952.0,-448.0
2.4625,-15296.0,-5952.0,-384.0
2.465,-15296.0,-5952.0,-384.0
2.4675,-15424.0,-5952.0,-320.0
2.47,-15360.0,-6016.0,-320.0
2.4725,-15424.0,-6016.0,-320.0
2.475,-15360.0,-6016.0,-320.0
2.4775,-15360.0,-6016.0,-320.0
2.48,-15360.0,-6016.0,-192.0
2.4825,-15296.0,-6016.0,-256.0
2.485,-15360.0,-6080.0,-256.0
2.4875,-15360.0,-6144.0,-192.0
2.49,-15296.0,-6080.0,-128.0
2.4925,-15360.0,-6144.0,-128.0
2.495,-15360.0,-6144.0,-128.0
2.4975,-15360.0,-6208.0,-128.0
2.5,-15360.0,-6144.0,-128.0
2.5025,-15296.0,-6208.0,-192.0
2.505,-15360.0,-6144.0,-128.0
2.5075,-15424.0,-6208.0,-192.0
2.51,-15360.0,-6208.0,-256.0
2.5125,-15360.0,-6208.0,-192.0
2.515,-15296.0,-6208.0,-192.0
2.5175,-15296.0,-6208.0,-192.0
2.52,-15360.0,-6208.0,-192.0
2.5225,-15296.0,-6272.0,-192.0
2.525,-15296.0,-6272.0,-256.0
2.5275,-15296.0,-6272.0,-192.0
2.53,-15296.0,-6336.0,-192.0
2.5325,-15296.0,-6272.0,-192.0
2.535,-15296.0,-6336.0,-256.0
2.5375,-15360.0,-6272.0,-256.0
2.54,-15296.0,-6336.0,-192.0
2.5425,-15360.0,-6336.0,-256.0
2.545,-15360.0,-6336.0,-128.0
2.5475,-15296.0,-6400.0,-256.0
2.55,-15296.0,-6400.0,-256.0
2.5525,-15296.0,-6336.0,-256.0
2.555,-15296.0,-6336.0,-256.0
2.5575,-15296.0,-6400.0,-256.0
2.56,-15296.0,-6400.0,-320.0
2.5625,-15296.0,-6464.0,-320.0
2.565,-15296.0,-6400.0,-320.0
2.5675,-15296.0,-6400.0,-320.0
2.57,-15232.0,-6400.0,-384.0
2.5725,-15232.0,-6400.0,-320.0
2.575,-15296.0,-6400.0,-320.0
2.5775,-15296.0,-6400.0,-320.0
2.58,-15232.0,-6336.0,-384.0
2.5825,-15168.0,-6336.0,-384.0
2.585,-15232.0,-6400.0,-320.0
2.5875,-15232.0,-6400.0,-320.0
2.59,-15232.0,-6400.0,-320.0
2.5925,-15232.0,-6464.0,-320.0
2.595,-15232.0,-6464.0,-384.0
2.5975,-15168.0,-6464.0,-384.0
2.6,-15168.0,-6464.0,-448.0
2.6025,-15168.0,-6464.0,-448.0
2.605,-15168.0,-6464.0,-448.0
2.6075,-15168.0,-6464.0,-384.0
2.61,-15168.0,-6528.0,-448.0
2.6125,-15104.0,-6464.0,-384.0
2.615,-15168.0,-6464.0,-384.0
2.6175,-15168.0,-6400.0,-448.0
2.62,-15168.0,-6400.0,-448.0
2.6225,-15168.0,-6464.0,-448.0
2.625,-15104.0,-6464.0,-448.0
2.6275,-15104.0,-6464.0,-512.0
2.63,-15040.0,-6464.0,-512.0
2.6325,-15040.0,-6400.0,-448.0
2.635,-15040.0,-6400.0,-448.0
2.6375,-15040.0,-6400.0,-512.0
2.64,-14976.0,-6464.0,-512.0
2.6425,-14976.0,-6464.0,-512.0
2.645,-15040.0,-6400.0,-576.0
2.6475,-15040.0,-6464.0,-576.0
2.65,-15040.0,-6400.0,-512.0
2.6525,-15040.0,-6400.0,-512.0
2.655,-15040.0,-6464.0,-512.0
2.6575,-14976.0,-6528.0,-512.0
2.66,-14976.0,-6464.0,-512.0
2.6625,-14976.0,-6464.0,-448.0
2.665,-15040.0,-6464.0,-448.0
2.6675,-15040.0,-6464.0,-448.0
2.67,-15040.0,-6464.0,-448.0
2.6725,-15040.0,-6464.0,-384.0
2.675,-15040.0,-6464.0,-384.0
2.6775,-15040.0,-6464.0,-384.0
2.68,-14976.0,-6464.0,-448.0
2.6825,-14976.0,-6400.0,-448.0
2.685,-15040.0,-6400.0,-512.0
2.6875,-15040.0,-6400.0,-576.0
2.69,-15040.0,-6464.0,-576.0
2.6925,-15040.0,-6400.0,-640.0
2.695,-15040.0,-6400.0,-576.0
2.6975,-15104.0,-6464.0,-512.0
2.7,-15168.0,-6400.0,-576.0
2.7025,-15168.0,-6336.0,-576.0
2.705,-15104.0,-6336.0,-576.0
2.7075,-15360.0,-6272.0,-512.0
2.71,-15232.0,-6208.0,-512.0
2.7125,-15168.0,-6208.0,-576.0
2.715,-15168.0,-6208.0,-576.0
2.7175,-15168.0,-6208.0,-640.0
2.72,-15168.0,-6144.0,-640.0
2.7225,-15168.0,-6144.0,-576.0
2.725,-15168.0,-6144.0,-576.0
2.7275,-15104.0,-6080.0,-512.0
2.73,-15168.0,-6080.0,-512.0
2.7325,-15168.0,-6144.0,-448.0
2.735,-15296.0,-6144.0,-448.0
2.7375,-15232.0,-6144.0,-512.0
2.74,-15232.0,-6144.0,-512.0
2.7425,-15232.0,-6080.0,-512.0
2.745,-15296.0,-6080.0,-448.0
2.7475,-15296.0,-6016.0,-448.0
2.75,-15296.0,-5952.0,-512.0
2.7525,-15360.0,-5952.0,-448.0
2.755,-15424.0,-6016.0,-448.0
2.7575,-15488.0,-6016.0,-448.0
2.76,-15552.0,-6080.0,-384.0
2.7625,-15616.0,-6080.0,-448.0
2.765,-15616.0,-6080.0,-448.0
2.7675,-15616.0,-6144.0,-448.0
2.77,-15616.0,-6080.0,-384.0
2.7725,-15616.0,-6080.0,-384.0
2.775,-15616.0,-6080.0,-384.0
2.7775,-15616.0,-6080.0,-448.0
2.78,-15616.0,-6080.0,-448.0
2.7825,-15552.0,-6080.0,-512.0
2.785,-15552.0,-6016.0,-448.0
2.7875,-15488.0,-6016.0,-384.0
2.79,-15488.0,-5952.0,-448.0
2.7925,-15424.0,-6016.0,-384.0
2.795,-15424.0,-5952.0,-448.0
2.7975,-15360.0,-5888.0,-448.0
2.8,-15296.0,-5824.0,-448.0
2.8025,-15296.0,-5760.0,-384.0
2.805,-15296.0,-5760.0,-448.0
2.8075,-15232.0,-5696.0,-320.0
2.81,-15168.0,-5632.0,-320.0
2.8125,-15104.0,-5632.0,-384.0
2.815,-15168.0,-5632.0,-320.0
2.8175,-15168.0,-5568.0,-320.0
2.82,-15104.0,-5568.0,-256.0
2.8225,-15104.0,-5504.0,-256.0
2.825,-15104.0,-5568.0,-320.0
2.8275,-15104.0,-5504.0,-320.0
2.83,-15104.0,-5504.0,-256.0
2.8325,-15168.0,-5504.0,-256.0
2.835,-15168.0,-5568.0,-256.0
2.8375,-15104.0,-5568.0,-256.0
2.84,-15104.0,-5632.0,-256.0
2.8425,-15104.0,-5696.0,-192.0
2.845,-15104.0,-5696.0,-192.0
2.8475,-15104.0,-5696.0,-256.0
2.85,-15104.0,-5696.0,-256.0
2.8525,-15104.0,-5696.0,-192.0
2.855,-15168.0,-5760.0,-192.0
2.8575,-15168.0,-5824.0,-192.0
2.86,-15168.0,-5760.0,-192.0
2.8625,-15168.0,-5760.0,-192.0
2.865,-15168.0,-5824.0,-192.0
2.8675,-15168.0,-5888.0,-128.0
2.87,-15168.0,-5952.0,-128.0
2.8725,-15168.0,-6016.0,-128.0
2.875,-15168.0,-6016.0,-192.0
2.8775,-15168.0,-6080.0,-192.0
2.88,-15168.0,-6144.0,-256.0
2.8825,-15168.0,-6208.0,-320.0
2.885,-15168.0,-6272.0,-320.0
2.8875,-15296.0,-6336.0,-320.0
2.89,-15296.0,-6336.0,-320.0
2.8925,-15296.0,-6336.0,-256.0
2.895,-15296.0,-6336.0,-256.0
2.8975,-15296.0,-6400.0,-256.0
2.9,-15296.0,-6464.0,-256.0
2.9025,-15296.0,-6400.0,-256.0
2.905,-15232.0,-6464.0,-256.0
2.9075,-15296.0,-6528.0,-256.0
2.91,-15296.0,-6528.0,-256.0
2.9125,-15296.0,-6528.0,-320.0
2.915,-15360.0,-6592.0,-320.0
2.9175,-15360.0,-6592.0,-256.0
2.92,-15360.0,-6592.0,-320.0
2.9225,-15296.0,-6592.0,-320.0
2.925,-15360.0,-6592.0,-320.0
2.9275,-15296.0,-6528.0,-384.0
2.93,-15296.0,-6528.0,-384.0
2.9325,-15296.0,-6528.0,-448.0
2.935,-15296.0,-6528.0,-320.0
2.9375,-15296.0,-6464.0,-384.0
2.94,-15296.0,-6464.0,-384.0
2.9425,-15296.0,-6400.0,-384.0
2.945,-15232.0,-6400.0,-384.0
2.9475,-15232.0,-6400.0,-448.0
2.95,-15232.0,-6336.0,-512.0
2.9525,-15232.0,-6272.0,-512.0
2.955,-15168.0,-6272.0,-512.0
2.9575,-15168.0,-6272.0,-576.0
2.96,-15168.0,-6272.0,-512.0
2.9625,-15168.0,-6336.0,-512.0
2.965,-15104.0,-6272.0,-448.0
2.9675,-15104.0,-6272.0,-448.0
2.97,-15040.0,-6272.0,-576.0
2.9725,-15040.0,-6336.0,-448.0
2.975,-15040.0,-6400.0,-448.0
2.9775,-15040.0,-6464.0,-384.0
2.98,-15040.0,-6464.0,-448.0
2.9825,-15040.0,-6528.0,-384.0
2.985,-15104.0,-6528.0,-384.0
2.9875,-14976.0,-6528.0,-448.0
2.99,-15040.0,-6592.0,-384.0
2.9925,-15040.0,-6592.0,-384.0
2.995,-15104.0,-6592.0,-384.0
2.9975,-15104.0,-6656.0,-320.0
3.0,-6656.0,-320.0,
3.0025,-15040.0,-6656.0,-256.0
3.005,-15104.0,-6784.0,-192.0
3.0075,-15104.0,-6720.0,-256.0
3.01,-15104.0,-6784.0,-192.0
3.0125,-15104.0,-6784.0,-128.0
3.015,-15168.0,-6784.0,-192.0
3.0175,-15168.0,-6848.0,-192.0
3.02,-15168.0,-6848.0,-256.0
3.0225,-15232.0,-6848.0,-256.0
3.025,-15232.0,-6784.0,-192.0
3.0275,-15232.0,-6848.0,-192.0
3.03,-15232.0,-6848.0,-128.0
3.0325,-15232.0,-6784.0,-128.0
3.035,-15232.0,-6720.0,-128.0
3.0375,-15296.0,-6720.0,-192.0
3.04,-15232.0,-6720.0,-128.0
3.0425,-15232.0,-6656.0,-128.0
3.045,-15232.0,-6656.0,-128.0
3.0475,-15296.0,-6592.0,-128.0
3.05,-15232.0,-6592.0,-192.0
3.0525,-15232.0,-6592.0,-192.0
3.055,-15296.0,-6528.0,-192.0
3.0575,-15232.0,-6464.0,-256.0
3.06,-15232.0,-6400.0,-192.0
3.0625,-15232.0,-6400.0,-256.0
3.065,-15296.0,-6464.0,-256.0
3.0675,-15232.0,-6400.0,-320.0
3.07,-15168.0,-6400.0,-320.0
3.0725,-15232.0,-6464.0,-256.0
3.075,-15232.0,-6400.0,-256.0
3.0775,-15168.0,-6400.0,-320.0
3.08,-15168.0,-6400.0,-256.0
3.0825,-15168.0,-6464.0,-256.0
3.085,-15232.0,-6400.0,-320.0
3.0875,-15168.0,-6400.0,-320.0
3.09,-15168.0,-6464.0,-384.0
3.0925,-15168.0,-6464.0,-384.0
3.095,-15168.0,-6400.0,-320.0
3.0975,-15168.0,-6400.0,-320.0
3.1,-15168.0,-6400.0,-384.0
3.1025,-15168.0,-6464.0,-384.0
3.105,-15168.0,-6464.0,-320.0
3.1075,-15104.0,-6464.0,-320.0
3.11,-15104.0,-6464.0,-384.0
3.1125,-15040.0,-6400.0,-320.0
3.115,-15104.0,-6400.0,-320.0
3.1175,-15040.0,-6400.0,-320.0
3.12,-15104.0,-6400.0,-320.0
3.1225,-15040.0,-6400.0,-384.0
3.125,-15040.0,-6400.0,-384.0
3.1275,-15104.0,-6336.0,-448.0
3.13,-15104.0,-6336.0,-448.0
3.1325,-15040.0,-6336.0,-448.0
3.135,-15040.0,-6336.0,-448.0
3.1375,-15040.0,-6336.0,-448.0
3.14,-15104.0,-6336.0,-448.0
3.1425,-15104.0,-6336.0,-384.0
3.145,-15104.0,-6400.0,-448.0
3.1475,-15104.0,-6336.0,-448.0
3.15,-15040.0,-6400.0,-448.0
3.1525,-14976.0,-6400.0,-512.0
3.155,-14976.0,-6464.0,-448.0
3.1575,-15040.0,-6464.0,-320.0
3.16,-15040.0,-6528.0,-320.0
3.1625,-14976.0,-6464.0,-384.0
3.165,-15040.0,-6464.0,-384.0
3.1675,-14976.0,-6400.0,-320.0
3.17,-14976.0,-6400.0,-320.0
3.1725,-15040.0,-6464.0,-320.0
3.175,-15040.0,-6464.0,-256.0
3.1775,-15040.0,-6528.0,-320.0
3.18,-15040.0,-6592.0,-256.0
3.1825,-15040.0,-6592.0,-192.0
3.185,-15040.0,-6592.0,-192.0
3.1875,-15040.0,-6592.0,-256.0
3.19,-15104.0,-6592.0,-256.0
3.1925,-15104.0,-6592.0,-256.0
3.195,-15104.0,-6592.0,-192.0
3.1975,-15040.0,-6528.0,-256.0
3.2,-15104.0,-6528.0,-384.0
3.2025,-15104.0,-6592.0,-320.0
3.205,-15104.0,-6592.0,-320.0
3.2075,-15104.0,-6528.0,-384.0
3.21,-15104.0,-6528.0,-320.0
3.2125,-15104.0,-6528.0,-384.0
3.215,-15104.0,-6464.0,-384.0
3.2175,-15104.0,-6400.0,-384.0
3.22,-15104.0,-6400.0,-448.0
3.2225,-15168.0,-6336.0,-448.0
3.225,-15168.0,-6272.0,-320.0
3.2275,-15232.0,-6272.0,-320.0
3.23,-15168.0,-6336.0,-384.0
3.2325,-15232.0,-6400.0,-384.0
3.235,-15296.0,-6400.0,-384.0
3.2375,-15360.0,-6464.0,-384.0
3.24,-15360.0,-6592.0,-448.0
3.2425,-15296.0,-6592.0,-448.0
3.245,-15296.0,-6464.0,-448.0
3.2475,-15296.0,-6464.0,-512.0
3.25,-15232.0,-6464.0,-448.0
3.2525,-15232.0,-6464.0,-448.0
3.255,-15168.0,-6464.0,-448.0
3.2575,-15168.0,-6400.0,-448.0
3.26,-15168.0,-6400.0,-448.0
3.2625,-15168.0,-6400.0,-512.0
3.265,-15104.0,-6336.0,-448.0
3.2675,-15168.0,-6336.0,-384.0
3.27,-15168.0,-6336.0,-448.0
3.2725,-15168.0,-6336.0,-448.0
3.275,-15168.0,-6336.0,-512.0
3.2775,-15168.0,-6336.0,-448.0
3.28,-15168.0,-6336.0,-448.0
3.2825,-15232.0,-6272.0,-448.0
3.285,-15232.0,-6336.0,-384.0
3.2875,-15296.0,-6272.0,-448.0
3.29,-15360.0,-6272.0,-448.0
3.2925,-15424.0,-6208.0,-448.0
3.295,-15424.0,-6272.0,-512.0
3.2975,-15424.0,-6400.0,-512.0
3.3,-15424.0,-6336.0,-576.0
3.3025,-15360.0,-6400.0,-576.0
3.305,-15424.0,-6400.0,-576.0
3.3075,-15424.0,-6400.0,-640.0
3.31,-15360.0,-6400.0,-576.0
3.3125,-15360.0,-6400.0,-512.0
3.315,-15296.0,-6400.0,-576.0
3.3175,-15296.0,-6336.0,-512.0
3.32,-15296.0,-6400.0,-448.0
3.3225,-15296.0,-6400.0,-384.0
3.325,-15232.0,-6464.0,-384.0
3.3275,-15168.0,-6464.0,-384.0
3.33,-15168.0,-6464.0,-320.0
3.3325,-15104.0,-6528.0,-320.0
3.335,-15104.0,-6528.0,-256.0
3.3375,-15104.0,-6464.0,-320.0
3.34,-15104.0,-6464.0,-320.0
3.3425,-15040.0,-6464.0,-320.0
3.345,-14976.0,-6400.0,-320.0
3.3475,-14976.0,-6336.0,-320.0
3.35,-14912.0,-6400.0,-320.0
3.3525,-14976.0,-6400.0,-384.0
3.355,-14912.0,-6400.0,-320.0
3.3575,-14976.0,-6400.0,-320.0
3.36,-14976.0,-6464.0,-320.0
3.3625,-15040.0,-6400.0,-320.0
3.365,-15040.0,-6400.0,-320.0
3.3675,-15040.0,-6400.0,-256.0
3.37,-14976.0,-6336.0,-256.0
3.3725,-14976.0,-6400.0,-320.0
3.375,-14976.0,-6336.0,-320.0
3.3775,-14912.0,-6400.0,-320.0
3.38,-14912.0,-6336.0,-256.0
3.3825,-14976.0,-6336.0,-192.0
3.385,-14912.0,-6336.0,-192.0
3.3875,-14912.0,-6336.0,-192.0
3.39,-14912.0,-6400.0,-192.0
3.3925,-14912.0,-6464.0,-192.0
3.395,-15040.0,-6400.0,-192.0
3.3975,-15040.0,-6400.0,-192.0
3.4,-15040.0,-6464.0,-192.0
3.4025,-15104.0,-6464.0,-192.0
3.405,-15104.0,-6464.0,-256.0
3.4075,-15104.0,-6400.0,-256.0
3.41,-15104.0,-6464.0,-256.0
3.4125,-15104.0,-6464.0,-256.0
3.415,-15104.0,-6528.0,-192.0
3.4175,-15168.0,-6528.0,-256.0
3.42,-15168.0,-6528.0,-320.0
3.4225,-15168.0,-6528.0,-256.0
3.425,-15168.0,-6592.0,-320.0
3.4275,-15168.0,-6528.0,-320.0
3.43,-15168.0,-6528.0,-256.0
3.4325,-15168.0,-6528.0,-256.0
3.435,-15168.0,-6592.0,-320.0
3.4375,-15168.0,-6656.0,-256.0
3.44,-15168.0,-6720.0,-320.0
3.4425,-15168.0,-6656.0,-320.0
3.445,-15168.0,-6592.0,-448.0
3.4475,-15104.0,-6592.0,-320.0
3.45,-15104.0,-6592.0,-320.0
3.4525,-15104.0,-6656.0,-384.0
3.455,-15168.0,-6656.0,-320.0
3.4575,-15168.0,-6656.0,-320.0
3.46,-15168.0,-6592.0,-320.0
3.4625,-15168.0,-6720.0,-320.0
3.465,-15232.0,-6656.0,-256.0
3.4675,-15168.0,-6720.0,-256.0
3.47,-15168.0,-6720.0,-256.0
3.4725,-15168.0,-6720.0,-256.0
3.475,-15232.0,-6720.0,-256.0
3.4775,-15168.0,-6720.0,-256.0
3.48,-15168.0,-6784.0,-320.0
3.4825,-15168.0,-6784.0,-320.0
3.485,-15232.0,-6784.0,-384.0
3.4875,-15168.0,-6784.0,-384.0
3.49,-15168.0,-6784.0,-448.0
3.4925,-15232.0,-6720.0,-384.0
3.495,-15168.0,-6720.0,-384.0
3.4975,-15168.0,-6720.0,-384.0
3.5,-15168.0,-6720.0,-384.0
3.5025,-15168.0,-6720.0,-448.0
3.505,-15232.0,-6720.0,-384.0
3.5075,-15168.0,-6656.0,-384.0
3.51,-15168.0,-6656.0,-320.0
3.5125,-15104.0,-6656.0,-320.0
3.515,-15104.0,-6656.0,-384.0
3.5175,-15104.0,-6656.0,-384.0
3.52,-15168.0,-6720.0,-384.0
3.5225,-15104.0,-6592.0,-384.0
3.525,-15104.0,-6592.0,-384.0
3.5275,-15104.0,-6592.0,-384.0
3.53,-15104.0,-6656.0,-320.0
3.5325,-15104.0,-6656.0,-256.0
3.535,-15168.0,-6656.0,-256.0
3.5375,-15168.0,-6656.0,-256.0
3.54,-15104.0,-6720.0,-384.0
3.5425,-15168.0,-6656.0,-256.0
3.545,-15232.0,-6656.0,-192.0
3.5475,-15232.0,-6656.0,-192.0
3.55,-15232.0,-6592.0,-256.0
3.5525,-15232.0,-6528.0,-320.0
3.555,-15168.0,-6464.0,-320.0
3.5575,-15168.0,-6464.0,-384.0
3.56,-15168.0,-6464.0,-384.0
3.5625,-15232.0,-6336.0,-448.0
3.565,-15232.0,-6336.0,-512.0
3.5675,-15232.0,-6336.0,-704.0
3.57,-15232.0,-6336.0,-768.0
3.5725,-15232.0,-6272.0,-896.0
3.575,-15168.0,-6272.0,-1024.0
3.5775,-15104.0,-6272.0,-1024.0
3.58,-15040.0,-6336.0,-1024.0
3.5825,-15104.0,-6272.0,-960.0
3.585,-15040.0,-6272.0,-1024.0
3.5875,-15040.0,-6272.0,-896.0
3.59,-14912.0,-6400.0,-896.0
3.5925,-14848.0,-6592.0,-704.0
3.595,-14848.0,-6592.0,-640.0
3.5975,-14912.0,-6784.0,-448.0
3.6,-14848.0,-6720.0,-128.0
3.6025,-14912.0,-6528.0,64.0
3.605,-15040.0,-6272.0,192.0
3.6075,-15168.0,-5952.0,320.0
3.61,-15232.0,-5824.0,384.0
3.6125,-15232.0,-5824.0,384.0
3.615,-15168.0,-5888.0,320.0
3.6175,-15168.0,-5952.0,320.0
3.62,-15168.0,-6016.0,320.0
3.6225,-15168.0,-6016.0,256.0
3.625,-15168.0,-5952.0,384.0
3.6275,-15168.0,-5888.0,512.0
3.63,-15104.0,-5824.0,576.0
3.6325,-15168.0,-5824.0,512.0
3.635,-15168.0,-5824.0,512.0
3.6375,-15168.0,-5824.0,512.0
3.64,-15168.0,-5760.0,448.0
3.6425,-15232.0,-5824.0,448.0
3.645,-15232.0,-5888.0,384.0
3.6475,-15168.0,-5888.0,320.0
3.65,-15104.0,-5952.0,384.0
3.6525,-15168.0,-6144.0,320.0
3.655,-15168.0,-6336.0,192.0
3.6575,-15104.0,-6400.0,256.0
3.66,-15104.0,-6528.0,192.0
3.6625,-15168.0,-6528.0,256.0
3.665,-15168.0,-6656.0,192.0
3.6675,-15232.0,-6720.0,256.0
3.67,-15232.0,-6720.0,192.0
3.6725,-15168.0,-6656.0,192.0
3.675,-15168.0,-6720.0,192.0
3.6775,-15232.0,-6656.0,192.0
3.68,-15296.0,-6656.0,128.0
3.6825,-15232.0,-6656.0,128.0
3.685,-15168.0,-6592.0,64.0
3.6875,-15232.0,-6528.0,128.0
3.69,-15232.0,-6464.0,128.0
3.6925,-15232.0,-6336.0,128.0
3.695,-15296.0,-6336.0,64.0
3.6975,-15232.0,-6272.0,128.0
3.7,-15232.0,-6272.0,128.0
3.7025,-15232.0,-6208.0,64.0
3.705,-15232.0,-6144.0,64.0
3.7075,-15232.0,-6080.0,0.0
3.71,-15232.0,-6080.0,0.0
3.7125,-15232.0,-6016.0,-64.0
3.715,-15296.0,-6016.0,-128.0
3.7175,-15232.0,-6016.0,-128.0
3.72,-15232.0,-5952.0,-128.0
3.7225,-15168.0,-6016.0,-128.0
3.725,-15232.0,-6016.0,-128.0
3.7275,-15296.0,-6080.0,-192.0
3.73,-15296.0,-6144.0,-192.0
3.7325,-15232.0,-6272.0,-256.0
3.735,-15232.0,-6272.0,-256.0
3.7375,-15168.0,-6336.0,-320.0
3.74,-15232.0,-6336.0,-448.0
3.7425,-15232.0,-6336.0,-448.0
3.745,-15168.0,-6336.0,-384.0
3.7475,-15232.0,-6336.0,-384.0
3.75,-15104.0,-6400.0,-256.0
3.7525,-15104.0,-6400.0,-320.0
3.755,-15168.0,-6336.0,-256.0
3.7575,-15168.0,-6400.0,-256.0
3.76,-15168.0,-6144.0,-256.0
3.7625,-15296.0,-6208.0,-192.0
3.765,-15296.0,-6144.0,-128.0
3.7675,-15296.0,-6144.0,-192.0
3.77,-15296.0,-6144.0,-192.0
3.7725,-15232.0,-6144.0,-128.0
3.775,-15232.0,-6144.0,-192.0
3.7775,-15232.0,-6144.0,-192.0
3.78,-15232.0,-6080.0,-128.0
3.7825,-15168.0,-6144.0,-128.0
3.785,-15168.0,-6144.0,-128.0
3.7875,-15168.0,-6208.0,-192.0
3.79,-15168.0,-6272.0,-128.0
3.7925,-15168.0,-6336.0,-128.0
3.795,-15168.0,-6400.0,-128.0
3.7975,-15168.0,-6464.0,0.0
3.8,-15168.0,-6464.0,64.0
3.8025,-15168.0,-6656.0,128.0
3.805,-15168.0,-6720.0,192.0
3.8075,-15104.0,-6784.0,256.0
3.81,-15168.0,-6784.0,320.0
3.8125,-15232.0,-6784.0,256.0
3.815,-15232.0,-6784.0,256.0
3.8175,-15232.0,-6784.0,128.0
3.82,-15232.0,-6784.0,0.0
3.8225,-15296.0,-6784.0,-128.0
3.825,-15296.0,-6720.0,-320.0
3.8275,-15296.0,-6720.0,-320.0
3.83,-15296.0,-6656.0,-512.0
3.8325,-15296.0,-6656.0,-640.0
3.835,-15360.0,-6528.0,-640.0
3.8375,-15296.0,-6400.0,-768.0
3.84,-15360.0,-6272.0,-704.0
3.8425,-15296.0,-6208.0,-704.0
3.845,-15296.0,-6208.0,-704.0
3.8475,-15232.0,-6144.0,-704.0
3.85,-15232.0,-6144.0,-576.0
3.8525,-15232.0,-6144.0,-384.0
3.855,-15168.0,-6144.0,-384.0
3.8575,-15168.0,-6208.0,-320.0
3.86,-15104.0,-6208.0,-192.0
3.8625,-15104.0,-6272.0,0.0
3.865,-15104.0,-6208.0,128.0
3.8675,-15168.0,-6272.0,256.0
3.87,-15104.0,-6400.0,448.0
3.8725,-15104.0,-6400.0,512.0
3.875,-15104.0,-6464.0,576.0
3.8775,-15168.0,-6592.0,448.0
3.88,-15104.0,-6656.0,448.0
3.8825,-15104.0,-6784.0,448.0
3.885,-15104.0,-6848.0,384.0
3.8875,-15104.0,-6912.0,320.0
3.89,-15104.0,-6912.0,256.0
3.8925,-15168.0,-6912.0,256.0
3.895,-15104.0,-6912.0,256.0
3.8975,-15104.0,-6848.0,320.0
3.9,-15104.0,-6848.0,192.0
3.9025,-15040.0,-6848.0,64.0
3.905,-15040.0,-6784.0,-128.0
3.9075,-15040.0,-6720.0,-128.0
3.91,-15040.0,-6656.0,-128.0
3.9125,-15040.0,-6592.0,-192.0
3.915,-15040.0,-6592.0,-256.0
3.9175,-15040.0,-6464.0,-256.0
3.92,-15040.0,-6464.0,-320.0
3.9225,-14976.0,-6400.0,-320.0
3.925,-14976.0,-6336.0,-320.0
3.9275,-15040.0,-6272.0,-192.0
3.93,-15040.0,-6272.0,-64.0
3.9325,-15040.0,-6272.0,0.0
3.935,-14976.0,-6208.0,0.0
3.9375,-15040.0,-6208.0,64.0
3.94,-15104.0,-6144.0,128.0
3.9425,-15104.0,-6208.0,192.0
3.945,-15104.0,-6144.0,256.0
3.9475,-15168.0,-6208.0,320.0
3.95,-15232.0,-6208.0,256.0
3.9525,-15232.0,-6208.0,256.0
3.955,-15232.0,-6208.0,256.0
3.9575,-15232.0,-6208.0,320.0
3.96,-15232.0,-6272.0,320.0
3.9625,-15232.0,-6272.0,320.0
3.965,-15232.0,-6272.0,384.0
3.9675,-15232.0,-6272.0,448.0
3.97,-15232.0,-6272.0,448.0
3.9725,-15296.0,-6272.0,512.0
3.975,-15296.0,-6208.0,512.0
3.9775,-15296.0,-6144.0,512.0
3.98,-15360.0,-6144.0,384.0
3.9825,-15232.0,-6208.0,320.0
3.985,-15232.0,-6208.0,256.0
3.9875,-15232.0,-6208.0,256.0
3.99,-15232.0,-6208.0,192.0
3.9925,-15168.0,-6208.0,128.0
3.995,-15232.0,-6272.0,128.0
3.9975,-15232.0,-6272.0,128.0
4.0,-6272.0,64.0,
4.0025,-15296.0,-6272.0,64.0
4.005,-15296.0,-6336.0,128.0
4.0075,-15232.0,-6336.0,128.0
4.01,-15232.0,-6336.0,128.0
4.0125,-15296.0,-6400.0,64.0
4.015,-15296.0,-6400.0,-64.0
4.0175,-15296.0,-6336.0,64.0
4.02,-15296.0,-6336.0,64.0
4.0225,-15232.0,-6400.0,0.0
4.025,-15232.0,-6400.0,-64.0
4.0275,-15232.0,-6400.0,-128.0
4.03,-15232.0,-6464.0,-128.0
4.0325,-15232.0,-6528.0,-192.0
4.035,-15232.0,-6592.0,-192.0
4.0375,-15168.0,-6656.0,-256.0
4.04,-15168.0,-6656.0,-256.0
4.0425,-15168.0,-6720.0,-256.0
4.045,-15168.0,-6720.0,-256.0
4.0475,-15104.0,-6656.0,-192.0
4.05,-15104.0,-6656.0,-192.0
4.0525,-15040.0,-6656.0,-128.0
4.055,-15040.0,-6592.0,-128.0
4.0575,-14976.0,-6528.0,-64.0
4.06,-14976.0,-6528.0,64.0
4.0625,-14976.0,-6464.0,64.0
4.065,-14976.0,-6400.0,64.0
4.0675,-15040.0,-6336.0,64.0
4.07,-14912.0,-6336.0,64.0
4.0725,-14976.0,-6272.0,128.0
4.075,-14976.0,-6272.0,128.0
4.0775,-15040.0,-6208.0,128.0
4.08,-14976.0,-6144.0,128.0
4.0825,-14976.0,-6080.0,128.0
4.085,-14976.0,-6080.0,64.0
4.0875,-14976.0,-6080.0,128.0
4.09,-14976.0,-6016.0,128.0
4.0925,-14976.0,-5952.0,128.0
4.095,-14976.0,-6016.0,128.0
4.0975,-14912.0,-6016.0,64.0
4.1,-14912.0,-6080.0,192.0
4.1025,-14976.0,-6144.0,192.0
4.105,-15040.0,-6080.0,128.0
4.1075,-14976.0,-6144.0,192.0
4.11,-15040.0,-6144.0,192.0
4.1125,-15040.0,-6208.0,128.0
4.115,-15040.0,-6272.0,192.0
4.1175,-15040.0,-6272.0,256.0
4.12,-15104.0,-6272.0,128.0
4.1225,-15104.0,-6336.0,128.0
4.125,-15104.0,-6272.0,192.0
4.1275,-15040.0,-6272.0,128.0
4.13,-15104.0,-6336.0,128.0
4.1325,-15104.0,-6400.0,128.0
4.135,-15168.0,-6336.0,128.0
4.1375,-15168.0,-6272.0,128.0
4.14,-15168.0,-6336.0,64.0
4.1425,-15168.0,-6336.0,64.0
4.145,-15232.0,-6336.0,64.0
4.1475,-15168.0,-6208.0,0.0
4.15,-15232.0,-6272.0,64.0
4.1525,-15168.0,-6272.0,64.0
4.155,-15232.0,-6336.0,64.0
4.1575,-15232.0,-6336.0,64.0
4.16,-15232.0,-6400.0,128.0
4.1625,-15168.0,-6400.0,128.0
4.165,-15168.0,-6400.0,64.0
4.1675,-15168.0,-6464.0,64.0
4.17,-15168.0,-6464.0,128.0
4.1725,-15168.0,-6528.0,64.0
4.175,-15168.0,-6528.0,64.0
4.1775,-15168.0,-6592.0,64.0
4.18,-15168.0,-6528.0,0.0
4.1825,-15168.0,-6592.0,0.0
4.185,-15168.0,-6528.0,64.0
4.1875,-15232.0,-6528.0,0.0
4.19,-15168.0,-6528.0,0.0
4.1925,-15104.0,-6528.0,-64.0
4.195,-15104.0,-6528.0,-64.0
4.1975,-15104.0,-6464.0,0.0
4.2,-15104.0,-6400.0,0.0
4.2025,-15040.0,-6400.0,-64.0
4.205,-15104.0,-6400.0,-64.0
4.2075,-15104.0,-6336.0,-64.0
4.21,-15040.0,-6336.0,-64.0
4.2125,-15104.0,-6272.0,-64.0
4.215,-15040.0,-6336.0,0.0
4.2175,-15040.0,-6208.0,-64.0
4.22,-15104.0,-6144.0,-64.0
4.2225,-15040.0,-6080.0,-128.0
4.225,-15104.0,-6144.0,-128.0
4.2275,-15040.0,-6208.0,-64.0
4.23,-15104.0,-6208.0,-128.0
4.2325,-15104.0,-6208.0,-64.0
4.235,-15104.0,-6208.0,0.0
4.2375,-15104.0,-6336.0,0.0
4.24,-15040.0,-6400.0,64.0
4.2425,-15104.0,-6400.0,64.0
4.245,-15040.0,-6464.0,128.0
4.2475,-15104.0,-6528.0,192.0
4.25,-15104.0,-6592.0,256.0
4.2525,-15040.0,-6656.0,256.0
4.255,-15040.0,-6720.0,384.0
4.2575,-15040.0,-6720.0,384.0
4.26,-15040.0,-6784.0,512.0
4.2625,-15104.0,-6784.0,576.0
4.265,-15040.0,-6784.0,512.0
4.2675,-15104.0,-6784.0,576.0
4.27,-15040.0,-6848.0,448.0
4.2725,-15040.0,-6848.0,448.0
4.275,-14976.0,-6784.0,384.0
4.2775,-14976.0,-6720.0,320.0
4.28,-15040.0,-6720.0,256.0
4.2825,-14976.0,-6720.0,192.0
4.285,-15104.0,-6656.0,128.0
4.2875,-15040.0,-6656.0,128.0
4.29,-15104.0,-6592.0,128.0
4.2925,-15104.0,-6592.0,64.0
4.295,-15104.0,-6592.0,-64.0
4.2975,-15104.0,-6528.0,-64.0
4.3,-15104.0,-6528.0,0.0
4.3025,-15040.0,-6528.0,0.0
4.305,-15040.0,-6464.0,-64.0
4.3075,-15040.0,-6464.0,-64.0
4.31,-15040.0,-6464.0,0.0
4.3125,-14976.0,-6464.0,-64.0
4.315,-14976.0,-6464.0,-64.0
4.3175,-14976.0,-6464.0,0.0
4.32,-14976.0,-6400.0,64.0
4.3225,-14976.0,-6336.0,64.0
4.325,-15040.0,-6272.0,192.0
4.3275,-15040.0,-6272.0,128.0
4.33,-15040.0,-6272.0,192.0
4.3325,-15040.0,-6208.0,320.0
4.335,-15040.0,-6208.0,256.0
4.3375,-15040.0,-6144.0,192.0
4.34,-15168.0,-6144.0,256.0
4.3425,-15168.0,-6080.0,192.0
4.345,-15232.0,-6080.0,128.0
4.3475,-15232.0,-6080.0,128.0
4.35,-15360.0,-6144.0,128.0
4.3525,-15424.0,-6208.0,192.0
4.355,-15424.0,-6208.0,64.0
4.3575,-15488.0,-6272.0,128.0
4.36,-15424.0,-6208.0,64.0
4.3625,-15424.0,-6272.0,128.0
4.365,-15360.0,-6336.0,64.0
4.3675,-15424.0,-6336.0,64.0
4.37,-15424.0,-6400.0,64.0
4.3725,-15424.0,-6464.0,64.0
4.375,-15360.0,-6528.0,64.0
4.3775,-15296.0,-6592.0,64.0
4.38,-15296.0,-6592.0,64.0
4.3825,-15296.0,-6592.0,128.0
4.385,-15296.0,-6528.0,128.0
4.3875,-15296.0,-6592.0,192.0
4.39,-15232.0,-6592.0,192.0
4.3925,-15232.0,-6592.0,192.0
4.395,-15296.0,-6656.0,192.0
4.3975,-15232.0,-6656.0,256.0
4.4,-15232.0,-6528.0,192.0
4.4025,-15232.0,-6528.0,256.0
4.405,-15232.0,-6528.0,320.0
4.4075,-15168.0,-6400.0,192.0
4.41,-15168.0,-6400.0,256.0
4.4125,-15104.0,-6336.0,192.0
4.415,-15104.0,-6336.0,192.0
4.4175,-15104.0,-6336.0,192.0
4.42,-15104.0,-6272.0,256.0
4.4225,-15104.0,-6208.0,320.0
4.425,-15104.0,-6272.0,384.0
4.4275,-15104.0,-6208.0,256.0
4.43,-15104.0,-6208.0,256.0
4.4325,-15168.0,-6272.0,192.0
4.435,-15104.0,-6272.0,256.0
4.4375,-15104.0,-6336.0,256.0
4.44,-15104.0,-6272.0,256.0
4.4425,-15040.0,-6272.0,256.0
4.445,-15104.0,-6272.0,192.0
4.4475,-15104.0,-6272.0,192.0
4.45,-15040.0,-6208.0,192.0
4.4525,-15040.0,-6208.0,192.0
4.455,-15104.0,-6272.0,192.0
4.4575,-15104.0,-6272.0,192.0
4.46,-15104.0,-6272.0,256.0
4.4625,-15104.0,-6272.0,192.0
4.465,-15104.0,-6272.0,256.0
4.4675,-15040.0,-6272.0,320.0
4.47,-15040.0,-6272.0,256.0
4.4725,-15104.0,-6272.0,256.0
4.475,-15104.0,-6272.0,256.0
4.4775,-15104.0,-6272.0,256.0
4.48,-15104.0,-6272.0,192.0
4.4825,-15104.0,-6336.0,256.0
4.485,-15104.0,-6272.0,192.0
4.4875,-15168.0,-6208.0,256.0
4.49,-15168.0,-6272.0,192.0
4.4925,-15168.0,-6272.0,192.0
4.495,-15168.0,-6272.0,192.0
4.4975,-15104.0,-6272.0,256.0
4.5,-15168.0,-6336.0,320.0
4.5025,-15168.0,-6272.0,192.0
4.505,-15104.0,-6272.0,256.0
4.5075,-15168.0,-6272.0,256.0
4.51,-15168.0,-6272.0,192.0
4.5125,-15168.0,-6272.0,256.0
4.515,-15168.0,-6208.0,256.0
4.5175,-15168.0,-6272.0,192.0
4.52,-15168.0,-6272.0,256.0
4.5225,-15168.0,-6272.0,256.0
4.525,-15104.0,-6272.0,256.0
4.5275,-15104.0,-6336.0,320.0
4.53,-15104.0,-6272.0,256.0
4.5325,-15104.0,-6336.0,256.0
4.535,-15168.0,-6336.0,256.0
4.5375,-15168.0,-6400.0,256.0
4.54,-15168.0,-6336.0,256.0
4.5425,-15168.0,-6336.0,256.0
4.545,-15168.0,-6336.0,256.0
4.5475,-15168.0,-6336.0,256.0
4.55,-15168.0,-6336.0,256.0
4.5525,-15168.0,-6336.0,128.0
4.555,-15168.0,-6336.0,192.0
4.5575,-15168.0,-6336.0,192.0
4.56,-15168.0,-6336.0,128.0
4.5625,-15168.0,-6336.0,128.0
4.565,-15232.0,-6336.0,128.0
4.5675,-15232.0,-6336.0,128.0
4.57,-15232.0,-6272.0,128.0
4.5725,-15232.0,-6272.0,64.0
4.575,-15232.0,-6272.0,128.0
4.5775,-15168.0,-6272.0,64.0
4.58,-15232.0,-6336.0,64.0
4.5825,-15232.0,-6336.0,128.0
4.585,-15232.0,-6336.0,64.0
4.5875,-15296.0,-6336.0,128.0
4.59,-15296.0,-6336.0,64.0
4.5925,-15232.0,-6336.0,64.0
4.595,-15232.0,-6336.0,0.0
4.5975,-15232.0,-6336.0,64.0
4.6,-15296.0,-6336.0,64.0
4.6025,-15296.0,-6400.0,0.0
4.605,-15296.0,-6336.0,64.0
4.6075,-15232.0,-6336.0,64.0
4.61,-15296.0,-6400.0,128.0
4.6125,-15232.0,-6400.0,128.0
4.615,-15296.0,-6400.0,128.0
4.6175,-15296.0,-6400.0,128.0
4.62,-15296.0,-6336.0,64.0
4.6225,-15232.0,-6272.0,0.0
4.625,-15232.0,-6336.0,0.0
4.6275,-15232.0,-6400.0,64.0
4.63,-15296.0,-6336.0,64.0
4.6325,-15360.0,-6400.0,0.0
4.635,-15296.0,-6336.0,0.0
4.6375,-15296.0,-6336.0,0.0
4.64,-15232.0,-6336.0,-64.0
4.6425,-15296.0,-6336.0,64.0
4.645,-15296.0,-6336.0,0.0
4.6475,-15296.0,-6336.0,0.0
4.65,-15296.0,-6336.0,0.0
4.6525,-15296.0,-6336.0,0.0
4.655,-15296.0,-6336.0,64.0
4.6575,-15232.0,-6336.0,64.0
4.66,-15296.0,-6336.0,128.0
4.6625,-15296.0,-6464.0,128.0
4.665,-15296.0,-6400.0,64.0
4.6675,-15296.0,-6400.0,128.0
4.67,-15296.0,-6464.0,0.0
4.6725,-15296.0,-6400.0,64.0
4.675,-15296.0,-6464.0,64.0
4.6775,-15168.0,-6400.0,0.0
4.68,-15232.0,-6400.0,64.0
4.6825,-15232.0,-6400.0,64.0
4.685,-15232.0,-6400.0,64.0
4.6875,-15232.0,-6336.0,64.0
4.69,-15296.0,-6336.0,0.0
4.6925,-15232.0,-6272.0,-64.0
4.695,-15296.0,-6272.0,0.0
4.6975,-15296.0,-6208.0,-64.0
4.7,-15232.0,-6272.0,-64.0
4.7025,-15232.0,-6208.0,-64.0
4.705,-15232.0,-6272.0,0.0
4.7075,-15168.0,-6272.0,0.0
4.71,-15232.0,-6208.0,0.0
4.7125,-15232.0,-6208.0,0.0
4.715,-15168.0,-6272.0,0.0
4.7175,-15232.0,-6272.0,0.0
4.72,-15104.0,-6400.0,0.0
4.7225,-15104.0,-6336.0,64.0
4.725,-15168.0,-6400.0,128.0
4.7275,-15104.0,-6400.0,128.0
4.73,-15168.0,-6464.0,192.0
4.7325,-15168.0,-6464.0,192.0
4.735,-15168.0,-6528.0,192.0
4.7375,-15168.0,-6400.0,192.0
4.74,-15168.0,-6400.0,128.0
4.7425,-15104.0,-6464.0,64.0
4.745,-15104.0,-6400.0,0.0
4.7475,-15104.0,-6400.0,0.0
4.75,-15104.0,-6464.0,64.0
4.7525,-15040.0,-6400.0,64.0
4.755,-15040.0,-6400.0,64.0
4.7575,-15040.0,-6400.0,0.0
4.76,-15104.0,-6336.0,0.0
4.7625,-15168.0,-6336.0,0.0
4.765,-15168.0,-6336.0,64.0
4.7675,-15104.0,-6272.0,64.0
4.77,-15040.0,-6272.0,0.0
4.7725,-15040.0,-6272.0,0.0
4.775,-15104.0,-6272.0,0.0
4.7775,-15104.0,-6336.0,64.0
4.78,-15232.0,-6336.0,64.0
4.7825,-15168.0,-6272.0,64.0
4.785,-15168.0,-6272.0,0.0
4.7875,-15168.0,-6336.0,0.0
4.79,-15168.0,-6336.0,0.0
4.7925,-15168.0,-6336.0,0.0
4.795,-15104.0,-6336.0,-64.0
4.7975,-15104.0,-6336.0,0.0
4.8,-15232.0,-6336.0,-64.0
4.8025,-15168.0,-6336.0,-64.0
4.805,-15232.0,-6336.0,-64.0
4.8075,-15168.0,-6336.0,-192.0
4.81,-15104.0,-6336.0,-128.0
4.8125,-15168.0,-6336.0,-64.0
4.815,-15168.0,-6336.0,-64.0
4.8175,-15168.0,-6336.0,-64.0
4.82,-15168.0,-6272.0,-64.0
4.8225,-15104.0,-6336.0,-128.0
4.825,-15168.0,-6336.0,-64.0
4.8275,-15232.0,-6272.0,-128.0
4.83,-15232.0,-6272.0,-128.0
4.8325,-15168.0,-6208.0,-256.0
4.835,-15232.0,-6144.0,-256.0
4.8375,-15232.0,-6144.0,-384.0
4.84,-15232.0,-6016.0,-576.0
4.8425,-15168.0,-5952.0,-576.0
4.845,-15168.0,-5952.0,-704.0
4.8475,-15104.0,-5824.0,-704.0
4.85,-15104.0,-5760.0,-704.0
4.8525,-15104.0,-5696.0,-768.0
4.855,-15104.0,-5696.0,-768.0
4.8575,-15104.0,-5632.0,-768.0
4.86,-15168.0,-5632.0,-704.0
4.8625,-15168.0,-5632.0,-512.0
4.865,-15168.0,-5760.0,-320.0
4.8675,-15040.0,-5888.0,-128.0
4.87,-15040.0,-6144.0,192.0
4.8725,-15104.0,-6336.0,576.0
4.875,-15104.0,-6592.0,896.0
4.8775,-15232.0,-6720.0,1088.0
4.88,-15296.0,-6976.0,1280.0
4.8825,-15424.0,-7168.0,1344.0
4.885,-15488.0,-7168.0,1344.0
4.8875,-15424.0,-7168.0,1344.0
4.89,-15488.0,-7168.0,1280.0
4.8925,-15424.0,-7232.0,1152.0
4.895,-15360.0,-7168.0,960.0
4.8975,-15424.0,-7232.0,832.0
4.9,-15360.0,-7168.0,640.0
4.9025,-15232.0,-7168.0,448.0
4.905,-15296.0,-7104.0,320.0
4.9075,-15232.0,-7040.0,128.0
4.91,-15232.0,-6976.0,0.0
4.9125,-15232.0,-6848.0,-128.0
4.915,-15168.0,-6784.0,-128.0
4.9175,-15168.0,-6656.0,-128.0
4.92,-15168.0,-6656.0,-128.0
4.9225,-15104.0,-6656.0,-128.0
4.925,-15104.0,-6592.0,-192.0
4.9275,-15104.0,-6592.0,-192.0
4.93,-15104.0,-6592.0,-128.0
4.9325,-15104.0,-6528.0,-64.0
4.935,-15104.0,-6464.0,64.0
4.9375,-15040.0,-6464.0,0.0
4.94,-14976.0,-6400.0,128.0
4.9425,-14976.0,-6400.0,128.0
4.945,-14976.0,-6336.0,256.0
4.9475,-14912.0,-6336.0,256.0
4.95,-14976.0,-6336.0,320.0
4.9525,-15040.0,-6272.0,448.0
4.955,-15040.0,-6208.0,448.0
4.9575,-15040.0,-6208.0,448.0
4.96,-15040.0,-6208.0,512.0
4.9625,-14976.0,-6144.0,448.0
4.965,-14976.0,-6080.0,512.0
4.9675,-14976.0,-6080.0,512.0
4.97,-14976.0,-6080.0,512.0
4.9725,-14976.0,-6144.0,576.0
4.975,-14976.0,-6144.0,576.0
4.9775,-15040.0,-6208.0,512.0
4.98,-15040.0,-6208.0,512.0
4.9825,-15040.0,-6272.0,512.0
4.985,-15040.0,-6208.0,448.0
4.9875,-15104.0,-6272.0,384.0
4.99,-15168.0,-6272.0,384.0
4.9925,-15168.0,-6336.0,320.0
4.995,-15104.0,-6336.0,256.0
4.9975,-15104.0,-6336.0,256.0
5.0,-6336.0,256.0,
5.0025,-15104.0,-6336.0,256.0
5.005,-15232.0,-6336.0,256.0
5.0075,-15168.0,-6336.0,256.0
5.01,-15168.0,-6336.0,192.0
5.0125,-15168.0,-6400.0,192.0
5.015,-15168.0,-6464.0,256.0
5.0175,-15232.0,-6528.0,320.0
5.02,-15232.0,-6592.0,384.0
5.0225,-15232.0,-6720.0,576.0
5.025,-15168.0,-6784.0,704.0
5.0275,-15168.0,-6848.0,832.0
5.03,-15296.0,-6848.0,832.0
5.0325,-15296.0,-6912.0,896.0
5.035,-15360.0,-6976.0,896.0
5.0375,-15424.0,-6912.0,832.0
5.04,-15424.0,-6784.0,768.0
5.0425,-15360.0,-6720.0,704.0
5.045,-15360.0,-6656.0,704.0
5.0475,-15424.0,-6656.0,512.0
5.05,-15360.0,-6592.0,384.0
5.0525,-15488.0,-6592.0,256.0
5.055,-15488.0,-6400.0,128.0
5.0575,-15488.0,-6336.0,64.0
5.06,-15424.0,-6336.0,64.0
5.0625,-15424.0,-6208.0,-64.0
5.065,-15360.0,-6208.0,-128.0
5.0675,-15296.0,-6144.0,-192.0
5.07,-15296.0,-6080.0,-192.0
5.0725,-15296.0,-6016.0,-192.0
5.075,-15296.0,-6016.0,-192.0
5.0775,-15296.0,-6016.0,-128.0
5.08,-15360.0,-6016.0,-128.0
5.0825,-15360.0,-5952.0,-64.0
5.085,-15424.0,-5888.0,-64.0
5.0875,-15424.0,-6016.0,64.0
5.09,-15488.0,-5952.0,64.0
5.0925,-15424.0,-5952.0,128.0
5.095,-15424.0,-5952.0,128.0
5.0975,-15488.0,-5952.0,256.0
5.1,-15424.0,-6016.0,320.0
5.1025,-15360.0,-5952.0,384.0
5.105,-15424.0,-5952.0,448.0
5.1075,-15424.0,-5952.0,448.0
5.11,-15424.0,-5952.0,384.0
5.1125,-15424.0,-5952.0,448.0
5.115,-15360.0,-5952.0,448.0
5.1175,-15424.0,-6016.0,576.0
5.12,-15296.0,-6016.0,576.0
5.1225,-15360.0,-6080.0,512.0
5.125,-15360.0,-6080.0,512.0
5.1275,-15296.0,-6016.0,576.0
5.13,-15360.0,-5952.0,448.0
5.1325,-15296.0,-5888.0,448.0
5.135,-15360.0,-5888.0,384.0
5.1375,-15296.0,-5888.0,384.0
5.14,-15232.0,-5888.0,320.0
5.1425,-15232.0,-5952.0,192.0
5.145,-15296.0,-5824.0,192.0
5.1475,-15232.0,-5824.0,128.0
5.15,-15232.0,-5824.0,128.0
5.1525,-15232.0,-5824.0,0.0
5.155,-15232.0,-5760.0,0.0
5.1575,-15232.0,-5760.0,64.0
5.16,-15232.0,-5760.0,64.0
5.1625,-15232.0,-5696.0,64.0
5.165,-15232.0,-5696.0,64.0
5.1675,-15296.0,-5760.0,128.0
5.17,-15232.0,-5696.0,128.0
5.1725,-15232.0,-5760.0,128.0
5.175,-15296.0,-5760.0,192.0
5.1775,-15360.0,-5760.0,192.0
5.18,-15424.0,-5696.0,192.0
5.1825,-15360.0,-5696.0,320.0
5.185,-15360.0,-5760.0,192.0
5.1875,-15360.0,-5696.0,320.0
5.19,-15296.0,-5824.0,384.0
5.1925,-15296.0,-5824.0,384.0
5.195,-15360.0,-5888.0,512.0
5.1975,-15360.0,-5952.0,576.0
5.2,-15296.0,-6016.0,512.0
5.2025,-15360.0,-6016.0,512.0
5.205,-15296.0,-6080.0,512.0
5.2075,-15360.0,-6080.0,448.0
5.21,-15296.0,-6016.0,384.0
5.2125,-15296.0,-6016.0,384.0
5.215,-15296.0,-6080.0,384.0
5.2175,-15296.0,-6080.0,320.0
5.22,-15232.0,-6080.0,384.0
5.2225,-15232.0,-6080.0,384.0
5.225,-15296.0,-6080.0,384.0
5.2275,-15296.0,-6080.0,384.0
5.23,-15360.0,-6144.0,320.0
5.2325,-15360.0,-6208.0,320.0
5.235,-15424.0,-6208.0,320.0
5.2375,-15360.0,-6208.0,320.0
5.24,-15360.0,-6144.0,320.0
5.2425,-15424.0,-6144.0,384.0
5.245,-15360.0,-6144.0,320.0
5.2475,-15296.0,-6144.0,256.0
5.25,-15296.0,-6080.0,256.0
5.2525,-15360.0,-6080.0,320.0
5.255,-15360.0,-6144.0,256.0
5.2575,-15424.0,-6144.0,256.0
5.26,-15424.0,-6144.0,256.0
5.2625,-15424.0,-6144.0,256.0
5.265,-15424.0,-6080.0,256.0
5.2675,-15424.0,-6144.0,320.0
5.27,-15360.0,-6144.0,256.0
5.2725,-15360.0,-6016.0,256.0
5.275,-15424.0,-6016.0,256.0
5.2775,-15360.0,-6016.0,320.0
5.28,-15360.0,-5952.0,256.0
5.2825,-15296.0,-5952.0,256.0
5.285,-15296.0,-6016.0,256.0
5.2875,-15296.0,-6016.0,320.0
5.29,-15296.0,-6016.0,320.0
5.2925,-15296.0,-6016.0,384.0
5.295,-15296.0,-6016.0,448.0
5.2975,-15296.0,-6016.0,384.0
5.3,-15232.0,-5952.0,512.0
5.3025,-15296.0,-5888.0,512.0
5.305,-15296.0,-5888.0,576.0
5.3075,-15232.0,-5952.0,576.0
5.31,-15232.0,-5952.0,512.0
5.3125,-15232.0,-5952.0,512.0
5.315,-15232.0,-6016.0,512.0
5.3175,-15232.0,-5952.0,448.0
5.32,-15232.0,-5952.0,448.0
5.3225,-15296.0,-6016.0,512.0
5.325,-15296.0,-6016.0,448.0
5.3275,-15296.0,-5952.0,448.0
5.33,-15360.0,-6016.0,448.0
5.3325,-15360.0,-6080.0,384.0
5.335,-15360.0,-6080.0,384.0
5.3375,-15360.0,-6080.0,448.0
5.34,-15360.0,-6080.0,384.0
5.3425,-15360.0,-6080.0,448.0
5.345,-15360.0,-6144.0,512.0
5.3475,-15296.0,-6080.0,512.0
5.35,-15296.0,-6080.0,512.0
5.3525,-15360.0,-6144.0,576.0
5.355,-15296.0,-6080.0,448.0
5.3575,-15296.0,-6080.0,512.0
5.36,-15232.0,-6080.0,448.0
5.3625,-15296.0,-6144.0,512.0
5.365,-15232.0,-6080.0,448.0
5.3675,-15168.0,-6080.0,448.0
5.37,-15168.0,-6016.0,512.0
5.3725,-15232.0,-6016.0,448.0
5.375,-15296.0,-6016.0,384.0
5.3775,-15296.0,-6016.0,512.0
5.38,-15232.0,-6080.0,448.0
5.3825,-15360.0,-6080.0,512.0
5.385,-15424.0,-6016.0,448.0
5.3875,-15488.0,-6080.0,384.0
5.39,-15552.0,-6080.0,384.0
5.3925,-15552.0,-6080.0,384.0
5.395,-15616.0,-6080.0,384.0
5.3975,-15616.0,-6080.0,384.0
5.4,-15616.0,-6080.0,384.0
5.4025,-15616.0,-6016.0,320.0
5.405,-15616.0,-6016.0,320.0
5.4075,-15552.0,-6080.0,320.0
5.41,-15552.0,-6080.0,384.0
5.4125,-15552.0,-6080.0,320.0
5.415,-15488.0,-6016.0,448.0
5.4175,-15424.0,-6016.0,448.0
5.42,-15424.0,-6016.0,448.0
5.4225,-15360.0,-6016.0,512.0
5.425,-15296.0,-6016.0,576.0
5.4275,-15296.0,-6016.0,576.0
5.43,-15232.0,-5952.0,576.0
5.4325,-15168.0,-5952.0,576.0
5.435,-15168.0,-5824.0,512.0
5.4375,-15104.0,-5888.0,576.0
5.44,-15104.0,-5888.0,576.0
5.4425,-15104.0,-5952.0,640.0
5.445,-15104.0,-5952.0,576.0
5.4475,-15104.0,-5888.0,576.0
5.45,-15040.0,-5952.0,576.0
5.4525,-14976.0,-5952.0,640.0
5.455,-14912.0,-5888.0,640.0
5.4575,-14912.0,-5824.0,704.0
5.46,-14912.0,-5824.0,704.0
5.4625,-14912.0,-5824.0,640.0
5.465,-14912.0,-5760.0,704.0
5.4675,-14976.0,-5760.0,640.0
5.47,-14976.0,-5824.0,640.0
5.4725,-14912.0,-5760.0,576.0
5.475,-14912.0,-5760.0,640.0
5.4775,-14912.0,-5760.0,640.0
5.48,-14912.0,-5760.0,640.0
5.4825,-14848.0,-5760.0,704.0
5.485,-14912.0,-5760.0,704.0
5.4875,-14912.0,-5760.0,704.0
5.49,-14848.0,-5696.0,704.0
5.4925,-14912.0,-5632.0,704.0
5.495,-14912.0,-5696.0,704.0
5.4975,-14912.0,-5632.0,640.0
5.5,-14912.0,-5696.0,640.0
5.5025,-14912.0,-5696.0,640.0
5.505,-14848.0,-5696.0,704.0
5.5075,-14912.0,-5696.0,640.0
5.51,-14912.0,-5696.0,576.0
5.5125,-14912.0,-5760.0,576.0
5.515,-14912.0,-5632.0,576.0
5.5175,-14912.0,-5632.0,512.0
5.52,-14848.0,-5632.0,448.0
5.5225,-14912.0,-5632.0,512.0
5.525,-14848.0,-5568.0,576.0
5.5275,-14784.0,-5568.0,576.0
5.53,-14784.0,-5568.0,640.0
5.5325,-14784.0,-5568.0,512.0
5.535,-14720.0,-5568.0,576.0
5.5375,-14720.0,-5568.0,576.0
5.54,-14720.0,-5504.0,576.0
5.5425,-14656.0,-5504.0,512.0
5.545,-14656.0,-5504.0,448.0
5.5475,-14656.0,-5440.0,448.0
5.55,-14592.0,-5440.0,448.0
5.5525,-14528.0,-5440.0,512.0
5.555,-14528.0,-5440.0,448.0
5.5575,-14528.0,-5440.0,512.0
5.56,-14528.0,-5504.0,448.0
5.5625,-14464.0,-5440.0,384.0
5.565,-14400.0,-5440.0,384.0
5.5675,-14400.0,-5376.0,320.0
5.57,-14336.0,-5376.0,320.0
5.5725,-14400.0,-5376.0,384.0
5.575,-14400.0,-5376.0,320.0
5.5775,-14336.0,-5376.0,320.0
5.58,-14336.0,-5376.0,320.0
5.5825,-14336.0,-5312.0,320.0
5.585,-14400.0,-5312.0,384.0
5.5875,-14400.0,-5312.0,384.0
5.59,-14400.0,-5248.0,320.0
5.5925,-14400.0,-5184.0,320.0
5.595,-14336.0,-5120.0,320.0
5.5975,-14336.0,-5120.0,320.0
5.6,-14336.0,-5056.0,384.0
5.6025,-14336.0,-5056.0,384.0
5.605,-14400.0,-5056.0,384.0
5.6075,-14400.0,-4928.0,384.0
5.61,-14464.0,-4992.0,320.0
5.6125,-14336.0,-4928.0,256.0
5.615,-14272.0,-4864.0,320.0
5.6175,-14272.0,-4800.0,320.0
5.62,-14400.0,-4800.0,320.0
5.6225,-14464.0,-4736.0,320.0
5.625,-14464.0,-4736.0,320.0
5.6275,-14528.0,-4800.0,384.0
5.63,-14464.0,-4864.0,448.0
5.6325,-14528.0,-4800.0,512.0
5.635,-14528.0,-4800.0,704.0
5.6375,-14528.0,-4928.0,832.0
5.64,-14592.0,-4992.0,960.0
5.6425,-14656.0,-5056.0,1024.0
5.645,-14592.0,-5120.0,1088.0
5.6475,-14592.0,-5184.0,1216.0
5.65,-14656.0,-5248.0,1344.0
5.6525,-14656.0,-5248.0,1344.0
5.655,-14656.0,-5312.0,1344.0
5.6575,-14592.0,-5376.0,1408.0
5.66,-14592.0,-5376.0,1536.0
5.6625,-14592.0,-5376.0,1536.0
5.665,-14592.0,-5504.0,1472.0
5.6675,-14592.0,-5440.0,1408.0
5.67,-14720.0,-5440.0,1344.0
5.6725,-14720.0,-5440.0,1216.0
5.675,-14656.0,-5440.0,1152.0
5.6775,-14656.0,-5376.0,1024.0
5.68,-14592.0,-5440.0,768.0
5.6825,-14592.0,-5312.0,704.0
5.685,-14656.0,-5376.0,576.0
5.6875,-14528.0,-5312.0,576.0
5.69,-14592.0,-5312.0,576.0
5.6925,-14592.0,-5376.0,512.0
5.695,-14528.0,-5376.0,384.0
5.6975,-14528.0,-5376.0,448.0
5.7,-14528.0,-5376.0,448.0
5.7025,-14528.0,-5312.0,448.0
5.705,-14400.0,-5248.0,576.0
5.7075,-14464.0,-5248.0,576.0
5.71,-14464.0,-5248.0,640.0
5.7125,-14528.0,-5248.0,704.0
5.715,-14464.0,-5248.0,832.0
5.7175,-14464.0,-5184.0,896.0
5.72,-14528.0,-5184.0,960.0
5.7225,-14464.0,-5184.0,960.0
5.725,-14528.0,-5184.0,960.0
5.7275,-14592.0,-5120.0,960.0
5.73,-14592.0,-5120.0,960.0
5.7325,-14592.0,-5184.0,960.0
5.735,-14592.0,-5184.0,960.0
5.7375,-14656.0,-5184.0,1024.0
5.74,-14656.0,-5184.0,1024.0
5.7425,-14656.0,-5248.0,960.0
5.745,-14720.0,-5184.0,1024.0
5.7475,-14720.0,-5184.0,960.0
5.75,-14784.0,-5248.0,896.0
5.7525,-14848.0,-5184.0,832.0
5.755,-14912.0,-5120.0,832.0
5.7575,-14912.0,-5120.0,832.0
5.76,-14976.0,-5120.0,768.0
5.7625,-15040.0,-5120.0,768.0
5.765,-15040.0,-5120.0,768.0
5.7675,-15040.0,-5056.0,704.0
5.77,-15104.0,-5120.0,704.0
5.7725,-15040.0,-5120.0,576.0
5.775,-15040.0,-5120.0,512.0
5.7775,-15104.0,-5120.0,512.0
5.78,-15040.0,-5120.0,448.0
5.7825,-15040.0,-5184.0,512.0
5.785,-15040.0,-5248.0,512.0
5.7875,-15040.0,-5248.0,576.0
5.79,-15040.0,-5312.0,640.0
5.7925,-14976.0,-5312.0,640.0
5.795,-14976.0,-5312.0,704.0
5.7975,-14976.0,-5376.0,640.0
5.8,-14976.0,-5376.0,704.0
5.8025,-14912.0,-5312.0,704.0
5.805,-14912.0,-5312.0,640.0
5.8075,-14848.0,-5312.0,640.0
5.81,-14848.0,-5312.0,576.0
5.8125,-14848.0,-5312.0,512.0
5.815,-14784.0,-5248.0,448.0
5.8175,-14720.0,-5248.0,448.0
5.82,-14720.0,-5184.0,448.0
5.8225,-14720.0,-5248.0,512.0
5.825,-14720.0,-5184.0,448.0
5.8275,-14720.0,-5184.0,448.0
5.83,-14656.0,-5184.0,384.0
5.8325,-14656.0,-5120.0,448.0
5.835,-14720.0,-5120.0,512.0
5.8375,-14656.0,-5056.0,512.0
5.84,-14592.0,-5056.0,512.0
5.8425,-14592.0,-5056.0,576.0
5.845,-14592.0,-5056.0,576.0
5.8475,-14592.0,-5056.0,512.0
5.85,-14656.0,-5120.0,576.0
5.8525,-14656.0,-5120.0,512.0
5.855,-14656.0,-5120.0,576.0
5.8575,-14592.0,-5120.0,576.0
5.86,-14656.0,-5120.0,640.0
5.8625,-14656.0,-5120.0,640.0
5.865,-14592.0,-5120.0,640.0
5.8675,-14528.0,-5120.0,704.0
5.87,-14528.0,-5120.0,704.0
5.8725,-14464.0,-5120.0,704.0
5.875,-14464.0,-5120.0,768.0
5.8775,-14400.0,-5120.0,768.0
5.88,-14400.0,-5120.0,768.0
5.8825,-14464.0,-5120.0,768.0
5.885,-14464.0,-5056.0,768.0
5.8875,-14464.0,-5056.0,832.0
5.89,-14464.0,-4992.0,832.0
5.8925,-14464.0,-4992.0,768.0
5.895,-14464.0,-4992.0,704.0
5.8975,-14528.0,-4928.0,768.0
5.9,-14528.0,-4928.0,704.0
5.9025,-14464.0,-4928.0,704.0
5.905,-14464.0,-4864.0,704.0
5.9075,-14528.0,-4864.0,704.0
5.91,-14656.0,-4928.0,512.0
5.9125,-14656.0,-4864.0,512.0
5.915,-14656.0,-4864.0,448.0
5.9175,-14720.0,-4864.0,384.0
5.92,-14912.0,-4928.0,384.0
5.9225,-14976.0,-4928.0,320.0
5.925,-15040.0,-4928.0,320.0
5.9275,-15040.0,-4928.0,256.0
5.93,-15168.0,-4928.0,256.0
5.9325,-15168.0,-4992.0,320.0
5.935,-15232.0,-4992.0,320.0
5.9375,-15296.0,-5056.0,384.0
5.94,-15360.0,-5056.0,448.0
5.9425,-15424.0,-5056.0,512.0
5.945,-15552.0,-4992.0,640.0
5.9475,-15552.0,-5056.0,704.0
5.95,-15616.0,-5120.0,704.0
5.9525,-15616.0,-5120.0,704.0
5.955,-15680.0,-5120.0,768.0
5.9575,-15680.0,-5120.0,768.0
5.96,-15680.0,-5120.0,768.0
5.9625,-15680.0,-5120.0,832.0
5.965,-15616.0,-5120.0,896.0
5.9675,-15552.0,-5184.0,960.0
5.97,-15552.0,-5248.0,896.0
5.9725,-15488.0,-5248.0,960.0
5.975,-15488.0,-5312.0,960.0
5.9775,-15488.0,-5312.0,896.0
5.98,-15488.0,-5312.0,896.0
5.9825,-15488.0,-5248.0,832.0
5.985,-15488.0,-5248.0,768.0
5.9875,-15488.0,-5184.0,768.0
5.99,-15488.0,-5184.0,704.0
5.9925,-15488.0,-5120.0,576.0
5.995,-15552.0,-5056.0,512.0
5.9975,-15552.0,-4992.0,512.0
6.0,-4992.0,384.0,
6.0025,-15680.0,-4992.0,384.0
6.005,-15680.0,-4992.0,448.0
6.0075,-15680.0,-4928.0,448.0
6.01,-15744.0,-4928.0,448.0
6.0125,-15808.0,-4928.0,576.0
6.015,-15808.0,-4928.0,576.0
6.0175,-15872.0,-4928.0,576.0
6.02,-15936.0,-4992.0,704.0
6.0225,-15936.0,-4992.0,640.0
6.025,-16000.0,-5056.0,704.0
6.0275,-16064.0,-5056.0,640.0
6.03,-16192.0,-5056.0,768.0
6.0325,-16256.0,-5056.0,768.0
6.035,-16256.0,-5056.0,832.0
6.0375,-16320.0,-5120.0,832.0
6.04,-16448.0,-5120.0,832.0
6.0425,-16576.0,-5120.0,832.0
6.045,-16640.0,-5184.0,896.0
6.0475,-16704.0,-5184.0,896.0
6.05,-16704.0,-5184.0,896.0
6.0525,-16704.0,-5184.0,896.0
6.055,-16704.0,-5184.0,960.0
6.0575,-16640.0,-5184.0,960.0
6.06,-16640.0,-5184.0,960.0
6.0625,-16576.0,-5184.0,1024.0
6.065,-16576.0,-5120.0,1024.0
6.0675,-16512.0,-5120.0,960.0
6.07,-16448.0,-5056.0,960.0
6.0725,-16384.0,-5056.0,896.0
6.075,-16256.0,-4992.0,896.0
6.0775,-16128.0,-4992.0,896.0
6.08,-15936.0,-4928.0,832.0
6.0825,-15872.0,-4864.0,832.0
6.085,-15744.0,-4864.0,832.0
6.0875,-15616.0,-4800.0,896.0
6.09,-15616.0,-4800.0,896.0
6.0925,-15488.0,-4736.0,896.0
6.095,-15424.0,-4672.0,960.0
6.0975,-15296.0,-4672.0,1024.0
6.1,-15296.0,-4672.0,1088.0
6.1025,-15168.0,-4608.0,1088.0
6.105,-15168.0,-4672.0,1152.0
6.1075,-15168.0,-4672.0,1152.0
6.11,-15168.0,-4736.0,1280.0
6.1125,-15104.0,-4800.0,1344.0
6.115,-15104.0,-4800.0,1408.0
6.1175,-15168.0,-4736.0,1408.0
6.12,-15168.0,-4736.0,1408.0
6.1225,-15296.0,-4672.0,1344.0
6.125,-15296.0,-4608.0,1280.0
6.1275,-15296.0,-4544.0,1280.0
6.13,-15360.0,-4608.0,1280.0
6.1325,-15424.0,-4544.0,1152.0
6.135,-15424.0,-4416.0,1024.0
6.1375,-15488.0,-4416.0,1024.0
6.14,-15488.0,-4480.0,1088.0
6.1425,-15488.0,-4480.0,1024.0
6.145,-15488.0,-4544.0,1088.0
6.1475,-15552.0,-4672.0,960.0
6.15,-15552.0,-4672.0,960.0
6.1525,-15616.0,-4736.0,896.0
6.155,-15616.0,-4736.0,896.0
6.1575,-15680.0,-4800.0,960.0
6.16,-15680.0,-4800.0,1024.0
6.1625,-15680.0,-4864.0,1024.0
6.165,-15744.0,-4864.0,1088.0
6.1675,-15680.0,-4928.0,1088.0
6.17,-15680.0,-4928.0,1088.0
6.1725,-15680.0,-4928.0,1216.0
6.175,-15744.0,-4864.0,1216.0
6.1775,-15744.0,-4992.0,1216.0
6.18,-15808.0,-4928.0,1216.0
6.1825,-15872.0,-4928.0,1280.0
6.185,-15872.0,-4864.0,1216.0
6.1875,-15936.0,-4800.0,1152.0
6.19,-16000.0,-4800.0,1152.0
6.1925,-16000.0,-4736.0,1152.0
6.195,-15872.0,-4736.0,1152.0
6.1975,-15936.0,-4736.0,1280.0
6.2,-15872.0,-4736.0,1280.0
6.2025,-15872.0,-4736.0,1216.0
6.205,-15808.0,-4672.0,1216.0
6.2075,-15808.0,-4608.0,1152.0
6.21,-15744.0,-4608.0,1088.0
6.2125,-15744.0,-4544.0,1024.0
6.215,-15808.0,-4544.0,1088.0
6.2175,-15808.0,-4544.0,960.0
6.22,-15808.0,-4480.0,896.0
6.2225,-15808.0,-4544.0,896.0
6.225,-15744.0,-4544.0,832.0
6.2275,-15744.0,-4544.0,832.0
6.23,-15808.0,-4544.0,832.0
6.2325,-15744.0,-4480.0,832.0
6.235,-15808.0,-4544.0,768.0
6.2375,-15936.0,-4608.0,768.0
6.24,-15936.0,-4608.0,832.0
6.2425,-15936.0,-4608.0,960.0
6.245,-16000.0,-4672.0,896.0
6.2475,-16000.0,-4672.0,896.0
6.25,-16000.0,-4672.0,832.0
6.2525,-16000.0,-4736.0,896.0
6.255,-16064.0,-4736.0,960.0
6.2575,-16064.0,-4800.0,832.0
6.26,-16064.0,-4800.0,896.0
6.2625,-16128.0,-4800.0,896.0
6.265,-16192.0,-4864.0,896.0
6.2675,-16192.0,-4800.0,832.0
6.27,-16192.0,-4736.0,832.0
6.2725,-16192.0,-4800.0,832.0
6.275,-16192.0,-4800.0,768.0
6.2775,-16192.0,-4800.0,832.0
6.28,-16192.0,-4736.0,832.0
6.2825,-16192.0,-4800.0,768.0
6.285,-16256.0,-4800.0,768.0
6.2875,-16320.0,-4864.0,768.0
6.29,-16320.0,-4864.0,768.0
6.2925,-16320.0,-4864.0,640.0
6.295,-16320.0,-4928.0,704.0
6.2975,-16320.0,-4928.0,704.0
6.3,-16320.0,-4992.0,704.0
6.3025,-16320.0,-4928.0,704.0
6.305,-16384.0,-4928.0,768.0
6.3075,-16384.0,-4928.0,768.0
6.31,-16384.0,-4928.0,768.0
6.3125,-16384.0,-4928.0,768.0
6.315,-16320.0,-4992.0,768.0
6.3175,-16320.0,-4992.0,768.0
6.32,-16320.0,-5056.0,768.0
6.3225,-16320.0,-5120.0,832.0
6.325,-16320.0,-5120.0,896.0
6.3275,-16256.0,-4992.0,896.0
6.33,-16256.0,-4992.0,832.0
6.3325,-16256.0,-4992.0,832.0
6.335,-16320.0,-4992.0,896.0
6.3375,-16192.0,-4992.0,768.0
6.34,-16192.0,-4928.0,832.0
6.3425,-16192.0,-4864.0,832.0
6.345,-16192.0,-4864.0,832.0
6.3475,-16128.0,-4864.0,960.0
6.35,-16192.0,-4928.0,960.0
6.3525,-16192.0,-4992.0,960.0
6.355,-16128.0,-4928.0,960.0
6.3575,-16192.0,-4992.0,1024.0
6.36,-16128.0,-5056.0,1024.0
6.3625,-16192.0,-5056.0,960.0
6.365,-16192.0,-4992.0,1024.0
6.3675,-16192.0,-4992.0,1024.0
6.37,-16128.0,-5056.0,1024.0
6.3725,-16192.0,-5056.0,1088.0
6.375,-16256.0,-5120.0,1088.0
6.3775,-16256.0,-5120.0,1152.0
6.38,-16320.0,-5120.0,1152.0
6.3825,-16384.0,-5184.0,1152.0
6.385,-16384.0,-5184.0,1216.0
6.3875,-16448.0,-5184.0,1216.0
6.39,-16512.0,-5120.0,1216.0
6.3925,-16512.0,-5184.0,1216.0
6.395,-16576.0,-5184.0,1152.0
6.3975,-16576.0,-5184.0,1088.0
6.4,-16640.0,-5120.0,1152.0
6.4025,-16640.0,-5120.0,1088.0
6.405,-16640.0,-5120.0,1024.0
6.4075,-16640.0,-5184.0,1152.0
6.41,-16704.0,-5184.0,1152.0
6.4125,-16640.0,-5184.0,1216.0
6.415,-16640.0,-5120.0,1088.0
6.4175,-16640.0,-5056.0,1024.0
6.42,-16640.0,-5056.0,1024.0
6.4225,-16704.0,-5056.0,1024.0
6.425,-16704.0,-5056.0,1088.0
6.4275,-16640.0,-4992.0,1024.0
6.43,-16640.0,-5056.0,1024.0
6.4325,-16704.0,-5056.0,960.0
6.435,-16704.0,-5120.0,1088.0
6.4375,-16640.0,-5120.0,1152.0
6.44,-16640.0,-5120.0,1152.0
6.4425,-16640.0,-5120.0,1216.0
6.445,-16704.0,-5184.0,1216.0
6.4475,-16704.0,-5184.0,1216.0
6.45,-16704.0,-5184.0,1280.0
6.4525,-16640.0,-5248.0,1280.0
6.455,-16640.0,-5248.0,1344.0
6.4575,-16576.0,-5248.0,1408.0
6.46,-16576.0,-5184.0,1344.0
6.4625,-16512.0,-5248.0,1408.0
6.465,-16512.0,-5184.0,1408.0
6.4675,-16512.0,-5184.0,1344.0
6.47,-16448.0,-5120.0,1344.0
6.4725,-16320.0,-5120.0,1280.0
6.475,-16384.0,-5120.0,1280.0
6.4775,-16320.0,-5120.0,1216.0
6.48,-16192.0,-4992.0,1216.0
6.4825,-16192.0,-4992.0,1280.0
6.485,-16128.0,-4992.0,1216.0
6.4875,-16128.0,-4992.0,1216.0
6.49,-16128.0,-5056.0,1216.0
6.4925,-16128.0,-5056.0,1216.0
6.495,-16128.0,-5056.0,1280.0
6.4975,-16064.0,-5056.0,1344.0
6.5,-16064.0,-5056.0,1344.0
6.5025,-16064.0,-5120.0,1472.0
6.505,-16064.0,-5056.0,1536.0
6.5075,-16000.0,-5056.0,1600.0
6.51,-16000.0,-5056.0,1536.0
6.5125,-15936.0,-4992.0,1600.0
6.515,-15872.0,-4992.0,1536.0
6.5175,-15936.0,-5056.0,1664.0
6.52,-15936.0,-5056.0,1664.0
6.5225,-15872.0,-5056.0,1664.0
6.525,-15872.0,-5120.0,1600.0
6.5275,-15936.0,-5056.0,1536.0
6.53,-15872.0,-5056.0,1600.0
6.5325,-15808.0,-5056.0,1536.0
6.535,-15808.0,-5056.0,1472.0
6.5375,-15744.0,-5056.0,1472.0
6.54,-15744.0,-5056.0,1536.0
6.5425,-15808.0,-5056.0,1472.0
6.545,-15808.0,-4992.0,1408.0
6.5475,-15808.0,-4992.0,1408.0
6.55,-15744.0,-4992.0,1344.0
6.5525,-15808.0,-4928.0,1344.0
6.555,-15808.0,-4992.0,1344.0
6.5575,-15872.0,-4992.0,1344.0
6.56,-15936.0,-5056.0,1408.0
6.5625,-15936.0,-5056.0,1472.0
6.565,-15936.0,-5120.0,1472.0
6.5675,-16000.0,-5056.0,1472.0
6.57,-16000.0,-5120.0,1408.0
6.5725,-16000.0,-5056.0,1472.0
6.575,-16128.0,-5056.0,1408.0
6.5775,-16128.0,-5120.0,1280.0
6.58,-16128.0,-5120.0,1344.0
6.5825,-16128.0,-5120.0,1344.0
6.585,-16128.0,-5056.0,1280.0
6.5875,-16064.0,-5056.0,1216.0
6.59,-16128.0,-5120.0,1152.0
6.5925,-16064.0,-4992.0,1088.0
6.595,-16128.0,-4992.0,1088.0
6.5975,-16064.0,-4928.0,1024.0
6.6,-16128.0,-4992.0,1024.0
6.6025,-16128.0,-4928.0,960.0
6.605,-16128.0,-4928.0,960.0
6.6075,-16128.0,-4928.0,960.0
6.61,-16128.0,-4864.0,1024.0
6.6125,-16128.0,-4864.0,960.0
6.615,-16192.0,-4800.0,1024.0
6.6175,-16128.0,-4864.0,1088.0
6.62,-16128.0,-4864.0,1024.0
6.6225,-16064.0,-4800.0,1088.0
6.625,-16064.0,-4864.0,1024.0
6.6275,-16064.0,-4800.0,1024.0
6.63,-16064.0,-4800.0,1088.0
6.6325,-16064.0,-4800.0,1024.0
6.635,-16064.0,-4800.0,1088.0
6.6375,-16128.0,-4864.0,1024.0
6.64,-16064.0,-4800.0,960.0
6.6425,-16128.0,-4800.0,1024.0
6.645,-16192.0,-4800.0,896.0
6.6475,-16192.0,-4800.0,896.0
6.65,-16192.0,-4800.0,960.0
6.6525,-16256.0,-4800.0,832.0
6.655,-16256.0,-4736.0,896.0
6.6575,-16256.0,-4736.0,768.0
6.66,-16256.0,-4800.0,832.0
6.6625,-16320.0,-4800.0,832.0
6.665,-16320.0,-4864.0,768.0
6.6675,-16384.0,-4800.0,768.0
6.67,-16448.0,-4800.0,768.0
6.6725,-16448.0,-4864.0,896.0
6.675,-16448.0,-4864.0,896.0
6.6775,-16512.0,-4864.0,960.0
6.68,-16576.0,-4864.0,1024.0
6.6825,-16576.0,-4928.0,1024.0
6.685,-16576.0,-4928.0,1152.0
6.6875,-16576.0,-4928.0,1088.0
6.69,-16640.0,-4928.0,1088.0
6.6925,-16576.0,-4928.0,1088.0
6.695,-16640.0,-4928.0,1024.0
6.6975,-16704.0,-4928.0,1088.0
6.7,-16704.0,-4992.0,1088.0
6.7025,-16704.0,-4992.0,1024.0
6.705,-16768.0,-4992.0,960.0
6.7075,-16768.0,-4928.0,1024.0
6.71,-16832.0,-4928.0,1024.0
6.7125,-16896.0,-4992.0,960.0
6.715,-16960.0,-4928.0,896.0
6.7175,-17088.0,-4864.0,896.0
6.72,-17088.0,-4928.0,1024.0
6.7225,-17088.0,-4928.0,960.0
6.725,-17088.0,-4928.0,1024.0
6.7275,-17088.0,-4864.0,1024.0
6.73,-17088.0,-4928.0,1088.0
6.7325,-17152.0,-4864.0,1088.0
6.735,-17216.0,-4928.0,1088.0
6.7375,-17216.0,-4992.0,1088.0
6.74,-17152.0,-4928.0,1152.0
6.7425,-17152.0,-4928.0,1152.0
6.745,-17280.0,-4928.0,1216.0
6.7475,-17216.0,-4928.0,1280.0
6.75,-17280.0,-4928.0,1216.0
6.7525,-17280.0,-4992.0,1216.0
6.755,-17216.0,-4928.0,1216.0
6.7575,-17216.0,-4928.0,1216.0
6.76,-17280.0,-4992.0,1280.0
6.7625,-17344.0,-4992.0,1216.0
6.765,-17280.0,-4992.0,1280.0
6.7675,-17280.0,-5056.0,1344.0
6.77,-17344.0,-5056.0,1408.0
6.7725,-17344.0,-5056.0,1408.0
6.775,-17344.0,-5120.0,1408.0
6.7775,-17408.0,-5056.0,1472.0
6.78,-17472.0,-5056.0,1408.0
6.7825,-17472.0,-5120.0,1408.0
6.785,-17536.0,-5120.0,1344.0
6.7875,-17536.0,-5120.0,1344.0
6.79,-17536.0,-5056.0,1344.0
6.7925,-17600.0,-5056.0,1344.0
6.795,-17600.0,-5056.0,1344.0
6.7975,-17536.0,-5056.0,1344.0
6.8,-17600.0,-5120.0,1216.0
6.8025,-17664.0,-4992.0,1280.0
6.805,-17664.0,-4992.0,1280.0
6.8075,-17664.0,-5056.0,1216.0
6.81,-17664.0,-5056.0,1152.0
6.8125,-17792.0,-5056.0,1216.0
6.815,-17792.0,-5056.0,1216.0
6.8175,-17856.0,-5056.0,1152.0
6.82,-17920.0,-5056.0,1088.0
6.8225,-17920.0,-5120.0,1152.0
6.825,-17984.0,-5184.0,1152.0
6.8275,-18048.0,-5184.0,1280.0
6.83,-18048.0,-5184.0,1280.0
6.8325,-18112.0,-5312.0,1216.0
6.835,-18240.0,-5376.0,1280.0
6.8375,-18240.0,-5440.0,1280.0
6.84,-18304.0,-5376.0,1280.0
6.8425,-18304.0,-5376.0,1280.0
6.845,-18304.0,-5440.0,1344.0
6.8475,-18368.0,-5504.0,1344.0
6.85,-18368.0,-5568.0,1280.0
6.8525,-18368.0,-5568.0,1216.0
6.855,-18368.0,-5632.0,1216.0
6.8575,-18240.0,-5696.0,1280.0
6.86,-18240.0,-5696.0,1280.0
6.8625,-18240.0,-5632.0,1280.0
6.865,-18112.0,-5632.0,1280.0
6.8675,-18048.0,-5568.0,1152.0
6.87,-17984.0,-5440.0,1216.0
6.8725,-17920.0,-5312.0,1216.0
6.875,-17856.0,-5376.0,1152.0
6.8775,-17856.0,-5312.0,1024.0
6.88,-17856.0,-5184.0,1024.0
6.8825,-17792.0,-5184.0,1024.0
6.885,-17792.0,-5248.0,896.0
6.8875,-17728.0,-5120.0,960.0
6.89,-17728.0,-5184.0,960.0
6.8925,-17664.0,-5184.0,960.0
6.895,-17600.0,-5184.0,960.0
6.8975,-17472.0,-5184.0,960.0
6.9,-17472.0,-5184.0,960.0
6.9025,-17408.0,-5248.0,960.0
6.905,-17408.0,-5312.0,1024.0
6.9075,-17280.0,-5312.0,1024.0
6.91,-17280.0,-5440.0,1024.0
6.9125,-17280.0,-5440.0,1088.0
6.915,-17280.0,-5504.0,1024.0
6.9175,-17280.0,-5504.0,1152.0
6.92,-17216.0,-5568.0,1152.0
6.9225,-17216.0,-5568.0,1152.0
6.925,-17216.0,-5568.0,1216.0
6.9275,-17216.0,-5568.0,1152.0
6.93,-17152.0,-5568.0,1152.0
6.9325,-17152.0,-5568.0,1152.0
6.935,-17088.0,-5568.0,1152.0
6.9375,-16960.0,-5504.0,1152.0
6.94,-16960.0,-5504.0,1088.0
6.9425,-16896.0,-5376.0,1024.0
6.945,-16896.0,-5376.0,1024.0
6.9475,-16832.0,-5312.0,896.0
6.95,-16768.0,-5312.0,768.0
6.9525,-16768.0,-5312.0,768.0
6.955,-16768.0,-5312.0,768.0
6.9575,-16704.0,-5312.0,768.0
6.96,-16640.0,-5312.0,640.0
6.9625,-16512.0,-5312.0,640.0
6.965,-16576.0,-5376.0,640.0
6.9675,-16576.0,-5440.0,576.0
6.97,-16576.0,-5376.0,704.0
6.9725,-16576.0,-5440.0,768.0
6.975,-16576.0,-5504.0,832.0
6.9775,-16512.0,-5504.0,832.0
6.98,-16512.0,-5568.0,832.0
6.9825,-16512.0,-5632.0,960.0
6.985,-16512.0,-5632.0,960.0
6.9875,-16512.0,-5568.0,960.0
6.99,-16384.0,-5632.0,960.0
6.9925,-16384.0,-5696.0,960.0
6.995,-16320.0,-5632.0,960.0
6.9975,-16320.0,-5632.0,896.0
7.0,-5632.0,896.0,
7.0025,-16256.0,-5632.0,832.0
7.005,-16192.0,-5696.0,896.0
7.0075,-16192.0,-5696.0,832.0
7.01,-16192.0,-5632.0,768.0
7.0125,-16128.0,-5632.0,768.0
7.015,-16128.0,-5568.0,704.0
7.0175,-16128.0,-5568.0,640.0
7.02,-16128.0,-5568.0,512.0
7.0225,-16128.0,-5568.0,640.0
7.025,-16128.0,-5568.0,640.0
7.0275,-16128.0,-5568.0,640.0
7.03,-16064.0,-5568.0,640.0
7.0325,-16128.0,-5568.0,640.0
7.035,-16064.0,-5504.0,640.0
7.0375,-16128.0,-5568.0,640.0
7.04,-16128.0,-5632.0,640.0
7.0425,-16128.0,-5696.0,640.0
7.045,-16192.0,-5760.0,640.0
7.0475,-16256.0,-5760.0,640.0
7.05,-16256.0,-5824.0,640.0
7.0525,-16256.0,-5760.0,704.0
7.055,-16320.0,-5760.0,640.0
7.0575,-16320.0,-5760.0,704.0
7.06,-16320.0,-5760.0,640.0
7.0625,-16384.0,-5760.0,640.0
7.065,-16320.0,-5760.0,704.0
7.0675,-16320.0,-5760.0,704.0
7.07,-16320.0,-5760.0,640.0
7.0725,-16320.0,-5824.0,640.0
7.075,-16192.0,-5696.0,640.0
7.0775,-16128.0,-5760.0,512.0
7.08,-16128.0,-5632.0,576.0
7.0825,-16064.0,-5632.0,576.0
7.085,-16064.0,-5632.0,512.0
7.0875,-15936.0,-5568.0,512.0
7.09,-15936.0,-5632.0,384.0
7.0925,-15936.0,-5632.0,320.0
7.095,-15872.0,-5632.0,384.0
7.0975,-15808.0,-5632.0,448.0
7.1,-15744.0,-5568.0,384.0
7.1025,-15744.0,-5568.0,448.0
7.105,-15744.0,-5568.0,448.0
7.1075,-15744.0,-5632.0,448.0
7.11,-15680.0,-5568.0,448.0
7.1125,-15680.0,-5632.0,512.0
7.115,-15680.0,-5568.0,512.0
7.1175,-15616.0,-5568.0,576.0
7.12,-15616.0,-5504.0,512.0
7.1225,-15616.0,-5632.0,512.0
7.125,-15616.0,-5568.0,512.0
7.1275,-15616.0,-5568.0,576.0
7.13,-15552.0,-5568.0,576.0
7.1325,-15616.0,-5632.0,704.0
7.135,-15680.0,-5632.0,704.0
7.1375,-15616.0,-5632.0,704.0
7.14,-15680.0,-5632.0,512.0
7.1425,-15680.0,-5568.0,576.0
7.145,-15680.0,-5632.0,576.0
7.1475,-15680.0,-5568.0,576.0
7.15,-15680.0,-5632.0,640.0
7.1525,-15744.0,-5696.0,576.0
7.155,-15680.0,-5696.0,576.0
7.1575,-15680.0,-5760.0,512.0
7.16,-15680.0,-5760.0,576.0
7.1625,-15744.0,-5760.0,576.0
7.165,-15808.0,-5760.0,576.0
7.1675,-15744.0,-5760.0,512.0
7.17,-15744.0,-5824.0,576.0
7.1725,-15744.0,-5760.0,576.0
7.175,-15680.0,-5760.0,576.0
7.1775,-15680.0,-5824.0,576.0
7.18,-15680.0,-5824.0,576.0
7.1825,-15680.0,-5824.0,576.0
7.185,-15744.0,-5760.0,576.0
7.1875,-15744.0,-5760.0,512.0
7.19,-15680.0,-5760.0,576.0
7.1925,-15680.0,-5632.0,640.0
7.195,-15616.0,-5696.0,704.0
7.1975,-15680.0,-5632.0,576.0
7.2,-15616.0,-5696.0,640.0
7.2025,-15616.0,-5696.0,640.0
7.205,-15616.0,-5696.0,576.0
7.2075,-15616.0,-5696.0,512.0
7.21,-15616.0,-5760.0,512.0
7.2125,-15552.0,-5760.0,512.0
7.215,-15552.0,-5696.0,448.0
7.2175,-15552.0,-5632.0,448.0
7.22,-15616.0,-5696.0,512.0
7.2225,-15616.0,-5696.0,576.0
7.225,-15616.0,-5696.0,576.0
7.2275,-15616.0,-5760.0,640.0
7.23,-15552.0,-5760.0,640.0
7.2325,-15552.0,-5824.0,640.0
7.235,-15552.0,-5760.0,704.0
7.2375,-15552.0,-5760.0,704.0
7.24,-15552.0,-5696.0,640.0
7.2425,-15488.0,-5696.0,640.0
7.245,-15552.0,-5696.0,704.0
7.2475,-15488.0,-5632.0,768.0
7.25,-15424.0,-5632.0,704.0
7.2525,-15488.0,-5632.0,704.0
7.255,-15488.0,-5568.0,704.0
7.2575,-15424.0,-5632.0,640.0
7.26,-15488.0,-5632.0,640.0
7.2625,-15488.0,-5568.0,704.0
7.265,-15424.0,-5504.0,704.0
7.2675,-15424.0,-5568.0,704.0
7.27,-15360.0,-5568.0,704.0
7.2725,-15424.0,-5568.0,704.0
7.275,-15424.0,-5504.0,704.0
7.2775,-15424.0,-5568.0,704.0
7.28,-15296.0,-5504.0,576.0
7.2825,-15296.0,-5632.0,640.0
7.285,-15360.0,-5568.0,704.0
7.2875,-15296.0,-5504.0,640.0
7.29,-15232.0,-5504.0,640.0
7.2925,-15232.0,-5504.0,640.0
7.295,-15232.0,-5568.0,704.0
7.2975,-15168.0,-5504.0,640.0
7.3,-15104.0,-5568.0,576.0
7.3025,-15168.0,-5504.0,576.0
7.305,-15104.0,-5504.0,576.0
7.3075,-15104.0,-5504.0,576.0
7.31,-15104.0,-5504.0,512.0
7.3125,-15104.0,-5504.0,512.0
7.315,-15104.0,-5504.0,512.0
7.3175,-15168.0,-5440.0,512.0
7.32,-15104.0,-5440.0,512.0
7.3225,-15040.0,-5504.0,448.0
7.325,-15040.0,-5504.0,448.0
7.3275,-15104.0,-5504.0,512.0
7.33,-15104.0,-5504.0,576.0
7.3325,-15104.0,-5568.0,576.0
7.335,-15104.0,-5568.0,576.0
7.3375,-15232.0,-5632.0,576.0
7.34,-15168.0,-5696.0,576.0
7.3425,-15168.0,-5696.0,576.0
7.345,-15232.0,-5696.0,576.0
7.3475,-15232.0,-5760.0,704.0
7.35,-15232.0,-5760.0,704.0
7.3525,-15232.0,-5760.0,640.0
7.355,-15232.0,-5760.0,704.0
7.3575,-15232.0,-5824.0,640.0
7.36,-15232.0,-5824.0,640.0
7.3625,-15232.0,-5888.0,576.0
7.365,-15232.0,-5824.0,512.0
7.3675,-15232.0,-5824.0,576.0
7.37,-15232.0,-5824.0,576.0
7.3725,-15232.0,-5888.0,640.0
7.375,-15232.0,-5888.0,448.0
7.3775,-15296.0,-5824.0,384.0
7.38,-15232.0,-5824.0,448.0
7.3825,-15296.0,-5824.0,384.0
7.385,-15296.0,-5824.0,448.0
7.3875,-15296.0,-5824.0,448.0
7.39,-15232.0,-5760.0,448.0
7.3925,-15232.0,-5824.0,512.0
7.395,-15168.0,-5760.0,384.0
7.3975,-15104.0,-5760.0,448.0
7.4,-15104.0,-5760.0,512.0
7.4025,-15168.0,-5760.0,512.0
7.405,-15168.0,-5760.0,576.0
7.4075,-15168.0,-5824.0,576.0
7.41,-15168.0,-5760.0,448.0
7.4125,-15168.0,-5824.0,512.0
7.415,-15168.0,-5760.0,576.0
7.4175,-15168.0,-5824.0,640.0
7.42,-15104.0,-5824.0,640.0
7.4225,-15104.0,-5760.0,640.0
7.425,-15104.0,-5760.0,640.0
7.4275,-15104.0,-5696.0,640.0
7.43,-15104.0,-5696.0,640.0
7.4325,-15104.0,-5696.0,704.0
7.435,-15040.0,-5696.0,640.0
7.4375,-14976.0,-5696.0,640.0
7.44,-14912.0,-5568.0,640.0
7.4425,-14912.0,-5568.0,576.0
7.445,-14912.0,-5568.0,640.0
7.4475,-14912.0,-5504.0,576.0
7.45,-14912.0,-5568.0,640.0
7.4525,-14848.0,-5504.0,640.0
7.455,-14912.0,-5504.0,576.0
7.4575,-14848.0,-5504.0,640.0
7.46,-14912.0,-5440.0,640.0
7.4625,-14912.0,-5440.0,576.0
7.465,-14848.0,-5440.0,576.0
7.4675,-14912.0,-5440.0,512.0
7.47,-15040.0,-5376.0,448.0
7.4725,-15040.0,-5376.0,384.0
7.475,-15104.0,-5376.0,384.0
7.4775,-15232.0,-5376.0,384.0
7.48,-15296.0,-5440.0,384.0
7.4825,-15360.0,-5440.0,384.0
7.485,-15360.0,-5440.0,384.0
7.4875,-15360.0,-5440.0,384.0
7.49,-15424.0,-5504.0,384.0
7.4925,-15360.0,-5504.0,512.0
7.495,-15360.0,-5504.0,448.0
7.4975,-15296.0,-5568.0,448.0
7.5,-15232.0,-5568.0,384.0
7.5025,-15232.0,-5568.0,384.0
7.505,-15232.0,-5632.0,448.0
7.5075,-15232.0,-5632.0,448.0
7.51,-15168.0,-5568.0,384.0
7.5125,-15104.0,-5632.0,448.0
7.515,-15040.0,-5696.0,512.0
7.5175,-14976.0,-5696.0,512.0
7.52,-14848.0,-5568.0,512.0
7.5225,-14784.0,-5504.0,448.0
7.525,-14656.0,-5504.0,512.0
7.5275,-14656.0,-5504.0,448.0
7.53,-14592.0,-5440.0,512.0
7.5325,-14528.0,-5440.0,448.0
7.535,-14464.0,-5440.0,512.0
7.5375,-14400.0,-5312.0,384.0
7.54,-14400.0,-5312.0,320.0
7.5425,-14336.0,-5312.0,320.0
7.545,-14208.0,-5248.0,384.0
7.5475,-14208.0,-5248.0,448.0
7.55,-14144.0,-5248.0,448.0
7.5525,-14144.0,-5248.0,384.0
7.555,-14080.0,-5248.0,448.0
7.5575,-14016.0,-5248.0,448.0
7.56,-14016.0,-5248.0,448.0
7.5625,-13888.0,-5248.0,384.0
7.565,-13888.0,-5184.0,448.0
7.5675,-13952.0,-5248.0,512.0
7.57,-13888.0,-5184.0,512.0
7.5725,-13824.0,-5184.0,512.0
7.575,-13824.0,-5248.0,512.0
7.5775,-13888.0,-5248.0,576.0
7.58,-13888.0,-5248.0,512.0
7.5825,-13824.0,-5248.0,512.0
7.585,-13888.0,-5248.0,576.0
7.5875,-13952.0,-5248.0,448.0
7.59,-13952.0,-5312.0,512.0
7.5925,-14016.0,-5312.0,512.0
7.595,-14016.0,-5312.0,512.0
7.5975,-14080.0,-5376.0,512.0
7.6,-14080.0,-5376.0,576.0
7.6025,-14080.0,-5440.0,640.0
7.605,-14080.0,-5504.0,576.0
7.6075,-14016.0,-5568.0,512.0
7.61,-14016.0,-5568.0,448.0
7.6125,-14016.0,-5568.0,448.0
7.615,-14016.0,-5568.0,384.0
7.6175,-13952.0,-5568.0,448.0
7.62,-14016.0,-5632.0,448.0
7.6225,-13952.0,-5696.0,384.0
7.625,-13952.0,-5632.0,384.0
7.6275,-14016.0,-5696.0,384.0
7.63,-14016.0,-5696.0,448.0
7.6325,-14080.0,-5696.0,384.0
7.635,-14080.0,-5632.0,448.0
7.6375,-14016.0,-5696.0,448.0
7.64,-14080.0,-5760.0,448.0
7.6425,-14080.0,-5760.0,448.0
7.645,-14080.0,-5760.0,448.0
7.6475,-14144.0,-5760.0,320.0
7.65,-14144.0,-5760.0,320.0
7.6525,-14144.0,-5696.0,384.0
7.655,-14144.0,-5696.0,384.0
7.6575,-14272.0,-5760.0,448.0
7.66,-14208.0,-5696.0,384.0
7.6625,-14208.0,-5696.0,384.0
7.665,-14208.0,-5760.0,384.0
7.6675,-14208.0,-5760.0,448.0
7.67,-14208.0,-5760.0,448.0
7.6725,-14208.0,-5824.0,384.0
7.675,-14272.0,-5824.0,448.0
7.6775,-14272.0,-5888.0,448.0
7.68,-14272.0,-5888.0,512.0
7.6825,-14272.0,-5824.0,512.0
7.685,-14336.0,-5888.0,512.0
7.6875,-14272.0,-5888.0,512.0
7.69,-14336.0,-5952.0,448.0
7.6925,-14400.0,-5952.0,448.0
7.695,-14400.0,-5888.0,448.0
7.6975,-14400.0,-5888.0,512.0
7.7,-14400.0,-5952.0,576.0
7.7025,-14400.0,-5888.0,512.0
7.705,-14464.0,-5888.0,576.0
7.7075,-14464.0,-5952.0,576.0
7.71,-14464.0,-6016.0,576.0
7.7125,-14528.0,-6016.0,512.0
7.715,-14592.0,-6016.0,448.0
7.7175,-14656.0,-5952.0,384.0
7.72,-14720.0,-6080.0,448.0
7.7225,-14720.0,-6080.0,448.0
7.725,-14784.0,-6016.0,384.0
7.7275,-14784.0,-6016.0,448.0
7.73,-14784.0,-6080.0,448.0
7.7325,-14848.0,-6080.0,384.0
7.735,-14848.0,-6144.0,448.0
7.7375,-14976.0,-6144.0,448.0
7.74,-14976.0,-6144.0,448.0
7.7425,-15040.0,-6208.0,384.0
7.745,-15040.0,-6080.0,448.0
7.7475,-15040.0,-6144.0,448.0
7.75,-15040.0,-6080.0,384.0
7.7525,-15040.0,-6080.0,384.0
7.755,-14976.0,-6144.0,384.0
7.7575,-15040.0,-6144.0,384.0
7.76,-14976.0,-6208.0,448.0
7.7625,-14976.0,-6080.0,384.0
7.765,-14976.0,-6080.0,384.0
7.7675,-14912.0,-6144.0,384.0
7.77,-14848.0,-6144.0,384.0
7.7725,-14848.0,-6016.0,320.0
7.775,-14784.0,-6016.0,320.0
7.7775,-14784.0,-6016.0,384.0
7.78,-14784.0,-6016.0,384.0
7.7825,-14720.0,-5952.0,384.0
7.785,-14720.0,-5952.0,384.0
7.7875,-14656.0,-5952.0,384.0
7.79,-14656.0,-5952.0,512.0
7.7925,-14656.0,-5888.0,448.0
7.795,-14592.0,-5888.0,384.0
7.7975,-14592.0,-5888.0,384.0
7.8,-14592.0,-5888.0,384.0
7.8025,-14592.0,-5824.0,448.0
7.805,-14592.0,-5888.0,448.0
7.8075,-14464.0,-5824.0,448.0
7.81,-14528.0,-5824.0,448.0
7.8125,-14592.0,-5824.0,576.0
7.815,-14528.0,-5760.0,576.0
7.8175,-14528.0,-5760.0,576.0
7.82,-14528.0,-5824.0,640.0
7.8225,-14464.0,-5824.0,576.0
7.825,-14528.0,-5824.0,576.0
7.8275,-14528.0,-5824.0,512.0
7.83,-14528.0,-5824.0,512.0
7.8325,-14592.0,-5760.0,512.0
7.835,-14592.0,-5760.0,512.0
7.8375,-14592.0,-5824.0,512.0
7.84,-14592.0,-5824.0,448.0
7.8425,-14528.0,-5824.0,448.0
7.845,-14528.0,-5888.0,448.0
7.8475,-14528.0,-5888.0,384.0
7.85,-14592.0,-5888.0,448.0
7.8525,-14592.0,-5888.0,384.0
7.855,-14592.0,-5888.0,384.0
7.8575,-14528.0,-5888.0,448.0
7.86,-14528.0,-5888.0,384.0
7.8625,-14528.0,-5888.0,384.0
7.865,-14528.0,-5888.0,384.0
7.8675,-14464.0,-5888.0,384.0
7.87,-14464.0,-5888.0,320.0
7.8725,-14464.0,-5952.0,320.0
7.875,-14464.0,-5952.0,384.0
7.8775,-14400.0,-6016.0,320.0
7.88,-14400.0,-5952.0,256.0
7.8825,-14400.0,-5952.0,256.0
7.885,-14464.0,-5952.0,256.0
7.8875,-14464.0,-6016.0,192.0
7.89,-14464.0,-6016.0,192.0
7.8925,-14528.0,-6016.0,256.0
7.895,-14528.0,-6016.0,256.0
7.8975,-14528.0,-6080.0,256.0
7.9,-14528.0,-6080.0,256.0
7.9025,-14656.0,-6080.0,320.0
7.905,-14592.0,-6080.0,384.0
7.9075,-14656.0,-6080.0,384.0
7.91,-14592.0,-6016.0,320.0
7.9125,-14656.0,-6016.0,320.0
7.915,-14720.0,-6080.0,384.0
7.9175,-14784.0,-6080.0,384.0
7.92,-14784.0,-6080.0,384.0
7.9225,-14912.0,-6144.0,384.0
7.925,-14912.0,-6080.0,256.0
7.9275,-14976.0,-6144.0,256.0
7.93,-15040.0,-6144.0,320.0
7.9325,-15040.0,-6272.0,384.0
7.935,-15040.0,-6272.0,384.0
7.9375,-15104.0,-6272.0,384.0
7.94,-15168.0,-6208.0,320.0
7.9425,-15168.0,-6208.0,320.0
7.945,-15232.0,-6272.0,384.0
7.9475,-15296.0,-6272.0,320.0
7.95,-15296.0,-6272.0,384.0
7.9525,-15296.0,-6336.0,448.0
7.955,-15424.0,-6336.0,448.0
7.9575,-15424.0,-6336.0,512.0
7.96,-15424.0,-6400.0,448.0
7.9625,-15488.0,-6400.0,384.0
7.965,-15488.0,-6400.0,384.0
7.9675,-15488.0,-6400.0,448.0
7.97,-15552.0,-6400.0,448.0
7.9725,-15488.0,-6336.0,512.0
7.975,-15488.0,-6400.0,448.0
7.9775,-15488.0,-6400.0,448.0
7.98,-15552.0,-6400.0,448.0
7.9825,-15488.0,-6400.0,384.0
7.985,-15488.0,-6400.0,384.0
7.9875,-15488.0,-6400.0,320.0
7.99,-15360.0,-6336.0,256.0
7.9925,-15360.0,-6336.0,256.0
7.995,-15360.0,-6272.0,192.0
7.9975,-15360.0,-6272.0,256.0
8.0,-6144.0,320.0,
8.0025,-15296.0,-6144.0,256.0
8.005,-15296.0,-6080.0,192.0
8.0075,-15296.0,-6016.0,256.0
8.01,-15360.0,-6016.0,320.0
8.0125,-15296.0,-5952.0,320.0
8.015,-15232.0,-5952.0,256.0
8.0175,-15232.0,-5952.0,256.0
8.02,-15232.0,-5952.0,256.0
8.0225,-15232.0,-5888.0,256.0
8.025,-15168.0,-5888.0,256.0
8.0275,-15232.0,-5824.0,256.0
8.03,-15168.0,-5888.0,256.0
8.0325,-15168.0,-5888.0,256.0
8.035,-15104.0,-5888.0,320.0
8.0375,-15104.0,-5824.0,320.0
8.04,-15104.0,-5824.0,320.0
8.0425,-15104.0,-5760.0,256.0
8.045,-15040.0,-5824.0,320.0
8.0475,-14976.0,-5824.0,320.0
8.05,-14912.0,-5824.0,320.0
8.0525,-14976.0,-5888.0,448.0
8.055,-14848.0,-5888.0,448.0
8.0575,-14848.0,-5888.0,448.0
8.06,-14720.0,-5888.0,512.0
8.0625,-14720.0,-5824.0,512.0
8.065,-14720.0,-5760.0,448.0
8.0675,-14656.0,-5824.0,448.0
8.07,-14592.0,-5824.0,512.0
8.0725,-14656.0,-5760.0,512.0
8.075,-14656.0,-5760.0,512.0
8.0775,-14592.0,-5760.0,512.0
8.08,-14528.0,-5760.0,512.0
8.0825,-14528.0,-5696.0,448.0
8.085,-14592.0,-5696.0,384.0
8.0875,-14528.0,-5696.0,384.0
8.09,-14528.0,-5632.0,384.0
8.0925,-14592.0,-5632.0,320.0
8.095,-14592.0,-5632.0,320.0
8.0975,-14528.0,-5632.0,256.0
8.1,-14528.0,-5632.0,256.0
8.1025,-14592.0,-5696.0,256.0
8.105,-14528.0,-5696.0,320.0
8.1075,-14528.0,-5760.0,320.0
8.11,-14592.0,-5696.0,320.0
8.1125,-14592.0,-5824.0,320.0
8.115,-14592.0,-5824.0,256.0
8.1175,-14656.0,-5824.0,320.0
8.12,-14720.0,-5888.0,320.0
8.1225,-14784.0,-5888.0,256.0
8.125,-14720.0,-5952.0,384.0
8.1275,-14784.0,-5952.0,384.0
8.13,-14848.0,-6016.0,448.0
8.1325,-14848.0,-6016.0,384.0
8.135,-14848.0,-6080.0,448.0
8.1375,-14848.0,-6080.0,448.0
8.14,-14912.0,-6016.0,448.0
8.1425,-14912.0,-6080.0,384.0
8.145,-14912.0,-6144.0,448.0
8.1475,-14912.0,-6144.0,448.0
8.15,-14912.0,-6144.0,384.0
8.1525,-14848.0,-6144.0,384.0
8.155,-14912.0,-6080.0,256.0
8.1575,-14976.0,-6208.0,320.0
8.16,-14976.0,-6080.0,192.0
8.1625,-14976.0,-6080.0,192.0
8.165,-15040.0,-6208.0,128.0
8.1675,-14976.0,-6144.0,128.0
8.17,-15040.0,-6144.0,128.0
8.1725,-15040.0,-6208.0,64.0
8.175,-15040.0,-6208.0,128.0
8.1775,-15040.0,-6208.0,64.0
8.18,-15040.0,-6208.0,192.0
8.1825,-15040.0,-6208.0,256.0
8.185,-15040.0,-6272.0,256.0
8.1875,-15040.0,-6272.0,192.0
8.19,-15040.0,-6272.0,256.0
8.1925,-15104.0,-6272.0,320.0
8.195,-15104.0,-6272.0,320.0
8.1975,-15104.0,-6272.0,256.0
8.2,-15104.0,-6272.0,256.0
8.2025,-15168.0,-6208.0,256.0
8.205,-15104.0,-6272.0,256.0
8.2075,-15104.0,-6336.0,320.0
8.21,-15104.0,-6272.0,256.0
8.2125,-15168.0,-6272.0,256.0
8.215,-15232.0,-6208.0,320.0
8.2175,-15232.0,-6208.0,256.0
8.22,-15168.0,-6272.0,192.0
8.2225,-15232.0,-6208.0,128.0
8.225,-15296.0,-6272.0,128.0
8.2275,-15232.0,-6272.0,192.0
8.23,-15232.0,-6272.0,128.0
8.2325,-15296.0,-6272.0,192.0
8.235,-15232.0,-6272.0,128.0
8.2375,-15232.0,-6336.0,128.0
8.24,-15232.0,-6336.0,128.0
8.2425,-15232.0,-6272.0,128.0
8.245,-15104.0,-6272.0,128.0
8.2475,-15168.0,-6336.0,128.0
8.25,-15168.0,-6336.0,128.0
8.2525,-15104.0,-6336.0,128.0
8.255,-15040.0,-6400.0,192.0
8.2575,-15104.0,-6336.0,192.0
8.26,-15104.0,-6336.0,192.0
8.2625,-15168.0,-6336.0,128.0
8.265,-15040.0,-6336.0,128.0
8.2675,-15040.0,-6336.0,192.0
8.27,-15040.0,-6336.0,128.0
8.2725,-15104.0,-6464.0,128.0
8.275,-15104.0,-6400.0,128.0
8.2775,-15104.0,-6400.0,192.0
8.28,-15168.0,-6400.0,128.0
8.2825,-15168.0,-6400.0,192.0
8.285,-15168.0,-6336.0,128.0
8.2875,-15232.0,-6336.0,192.0
8.29,-15168.0,-6400.0,128.0
8.2925,-15232.0,-6400.0,192.0
8.295,-15232.0,-6400.0,128.0
8.2975,-15296.0,-6464.0,128.0
8.3,-15296.0,-6464.0,128.0
8.3025,-15296.0,-6400.0,192.0
8.305,-15360.0,-6400.0,192.0
8.3075,-15360.0,-6400.0,192.0
8.31,-15232.0,-6464.0,192.0
8.3125,-15296.0,-6464.0,192.0
8.315,-15296.0,-6464.0,256.0
8.3175,-15360.0,-6464.0,256.0
8.32,-15232.0,-6400.0,192.0
8.3225,-15296.0,-6464.0,192.0
8.325,-15296.0,-6464.0,128.0
8.3275,-15232.0,-6400.0,128.0
8.33,-15232.0,-6528.0,128.0
8.3325,-15232.0,-6528.0,128.0
8.335,-15232.0,-6464.0,64.0
8.3375,-15296.0,-6464.0,128.0
8.34,-15360.0,-6528.0,192.0
8.3425,-15360.0,-6464.0,192.0
8.345,-15360.0,-6400.0,128.0
8.3475,-15296.0,-6464.0,64.0
8.35,-15296.0,-6464.0,128.0
8.3525,-15424.0,-6464.0,64.0
8.355,-15424.0,-6528.0,128.0
8.3575,-15424.0,-6464.0,128.0
8.36,-15360.0,-6400.0,256.0
8.3625,-15296.0,-6400.0,192.0
8.365,-15360.0,-6400.0,256.0
8.3675,-15360.0,-6400.0,256.0
8.37,-15360.0,-6464.0,256.0
8.3725,-15296.0,-6464.0,192.0
8.375,-15360.0,-6400.0,192.0
8.3775,-15360.0,-6464.0,256.0
8.38,-15360.0,-6400.0,256.0
8.3825,-15296.0,-6464.0,256.0
8.385,-15232.0,-6400.0,320.0
8.3875,-15232.0,-6464.0,256.0
8.39,-15232.0,-6464.0,256.0
8.3925,-15168.0,-6400.0,256.0
8.395,-15104.0,-6400.0,256.0
8.3975,-15168.0,-6336.0,320.0
8.4,-15104.0,-6400.0,256.0
8.4025,-15168.0,-6464.0,320.0
8.405,-15168.0,-6464.0,256.0
8.4075,-15168.0,-6400.0,256.0
8.41,-15104.0,-6400.0,320.0
8.4125,-15104.0,-6400.0,320.0
8.415,-15040.0,-6400.0,192.0
8.4175,-15104.0,-6400.0,192.0
8.42,-15040.0,-6400.0,256.0
8.4225,-15040.0,-6400.0,256.0
8.425,-14976.0,-6400.0,384.0
8.4275,-15040.0,-6400.0,384.0
8.43,-15040.0,-6400.0,320.0
8.4325,-15040.0,-6400.0,384.0
8.435,-15104.0,-6400.0,384.0
8.4375,-15040.0,-6336.0,320.0
8.44,-15040.0,-6336.0,320.0
8.4425,-15040.0,-6400.0,320.0
8.445,-15040.0,-6464.0,320.0
8.4475,-15104.0,-6464.0,256.0
8.45,-15104.0,-6400.0,256.0
8.4525,-15168.0,-6400.0,256.0
8.455,-15168.0,-6464.0,320.0
8.4575,-15168.0,-6464.0,320.0
8.46,-15168.0,-6528.0,256.0
8.4625,-15168.0,-6528.0,256.0
8.465,-15232.0,-6464.0,320.0
8.4675,-15296.0,-6528.0,320.0
8.47,-15232.0,-6528.0,320.0
8.4725,-15232.0,-6528.0,320.0
8.475,-15296.0,-6528.0,384.0
8.4775,-15296.0,-6528.0,320.0
8.48,-15296.0,-6592.0,320.0
8.4825,-15296.0,-6592.0,384.0
8.485,-15232.0,-6528.0,256.0
8.4875,-15232.0,-6592.0,256.0
8.49,-15360.0,-6528.0,256.0
8.4925,-15360.0,-6592.0,192.0
8.495,-15424.0,-6592.0,256.0
8.4975,-15424.0,-6592.0,256.0
8.5,-15424.0,-6592.0,320.0
8.5025,-15424.0,-6592.0,256.0
8.505,-15488.0,-6592.0,320.0
8.5075,-15424.0,-6528.0,256.0
8.51,-15488.0,-6464.0,256.0
8.5125,-15424.0,-6464.0,256.0
8.515,-15488.0,-6464.0,320.0
8.5175,-15488.0,-6464.0,256.0
8.52,-15552.0,-6400.0,192.0
8.5225,-15488.0,-6400.0,256.0
8.525,-15424.0,-6400.0,256.0
8.5275,-15488.0,-6400.0,256.0
8.53,-15488.0,-6400.0,256.0
8.5325,-15488.0,-6336.0,192.0
8.535,-15488.0,-6336.0,192.0
8.5375,-15488.0,-6336.0,128.0
8.54,-15552.0,-6400.0,128.0
8.5425,-15552.0,-6336.0,128.0
8.545,-15552.0,-6336.0,128.0
8.5475,-15552.0,-6272.0,128.0
8.55,-15488.0,-6336.0,192.0
8.5525,-15488.0,-6272.0,128.0
8.555,-15488.0,-6272.0,128.0
8.5575,-15552.0,-6272.0,128.0
8.56,-15488.0,-6208.0,128.0
8.5625,-15552.0,-6208.0,192.0
8.565,-15488.0,-6208.0,192.0
8.5675,-15424.0,-6144.0,256.0
8.57,-15424.0,-6208.0,256.0
8.5725,-15488.0,-6272.0,256.0
8.575,-15424.0,-6208.0,256.0
8.5775,-15360.0,-6144.0,192.0
8.58,-15360.0,-6080.0,256.0
8.5825,-15424.0,-6080.0,320.0
8.585,-15360.0,-6080.0,256.0
8.5875,-15360.0,-6080.0,256.0
8.59,-15360.0,-6016.0,320.0
8.5925,-15360.0,-5952.0,256.0
8.595,-15360.0,-6016.0,128.0
8.5975,-15360.0,-5952.0,128.0
8.6,-15360.0,-5952.0,64.0
8.6025,-15360.0,-5952.0,64.0
8.605,-15424.0,-5952.0,64.0
8.6075,-15488.0,-5952.0,0.0
8.61,-15488.0,-5888.0,64.0
8.6125,-15424.0,-5888.0,64.0
8.615,-15360.0,-5888.0,0.0
8.6175,-15360.0,-5888.0,64.0
8.62,-15296.0,-5888.0,64.0
8.6225,-15296.0,-5888.0,64.0
8.625,-15296.0,-5888.0,192.0
8.6275,-15232.0,-5888.0,128.0
8.63,-15296.0,-5824.0,256.0
8.6325,-15232.0,-5824.0,192.0
8.635,-15232.0,-5888.0,256.0
8.6375,-15232.0,-5952.0,320.0
8.64,-15232.0,-6016.0,384.0
8.6425,-15232.0,-6016.0,384.0
8.645,-15232.0,-6016.0,320.0
8.6475,-15168.0,-6080.0,320.0
8.65,-15168.0,-6080.0,320.0
8.6525,-15232.0,-6016.0,320.0
8.655,-15232.0,-6016.0,256.0
8.6575,-15232.0,-6016.0,320.0
8.66,-15296.0,-6016.0,256.0
8.6625,-15232.0,-6016.0,256.0
8.665,-15232.0,-6016.0,256.0
8.6675,-15232.0,-6016.0,192.0
8.67,-15168.0,-5952.0,192.0
8.6725,-15232.0,-6016.0,256.0
8.675,-15232.0,-6016.0,256.0
8.6775,-15232.0,-5952.0,256.0
8.68,-15296.0,-6016.0,192.0
8.6825,-15232.0,-5888.0,192.0
8.685,-15232.0,-5888.0,256.0
8.6875,-15232.0,-6016.0,320.0
8.69,-15296.0,-5952.0,320.0
8.6925,-15232.0,-5888.0,320.0
8.695,-15232.0,-5952.0,384.0
8.6975,-15296.0,-6016.0,320.0
8.7,-15296.0,-6016.0,320.0
8.7025,-15296.0,-5952.0,256.0
8.705,-15232.0,-5952.0,320.0
8.7075,-15296.0,-5888.0,320.0
8.71,-15296.0,-5952.0,384.0
8.7125,-15360.0,-5952.0,384.0
8.715,-15360.0,-6016.0,384.0
8.7175,-15424.0,-6016.0,256.0
8.72,-15424.0,-6016.0,256.0
8.7225,-15424.0,-6016.0,256.0
8.725,-15424.0,-6016.0,256.0
8.7275,-15488.0,-6016.0,256.0
8.73,-15424.0,-6016.0,256.0
8.7325,-15488.0,-6016.0,256.0
8.735,-15488.0,-6016.0,192.0
8.7375,-15488.0,-5952.0,192.0
8.74,-15488.0,-6016.0,256.0
8.7425,-15488.0,-6016.0,256.0
8.745,-15488.0,-6016.0,192.0
8.7475,-15488.0,-6016.0,256.0
8.75,-15488.0,-6080.0,320.0
8.7525,-15424.0,-6080.0,256.0
8.755,-15424.0,-6080.0,256.0
8.7575,-15424.0,-6016.0,256.0
8.76,-15360.0,-6016.0,256.0
8.7625,-15360.0,-6016.0,384.0
8.765,-15296.0,-6016.0,320.0
8.7675,-15296.0,-5952.0,320.0
8.77,-15232.0,-6016.0,384.0
8.7725,-15232.0,-6080.0,512.0
8.775,-15232.0,-6080.0,512.0
8.7775,-15168.0,-6016.0,576.0
8.78,-15168.0,-5952.0,512.0
8.7825,-15168.0,-5888.0,384.0
8.785,-15040.0,-5760.0,384.0
8.7875,-14976.0,-5696.0,320.0
8.79,-14912.0,-5696.0,320.0
8.7925,-14848.0,-5632.0,320.0
8.795,-14848.0,-5568.0,320.0
8.7975,-14848.0,-5632.0,256.0
8.8,-14720.0,-5696.0,320.0
8.8025,-14720.0,-5696.0,320.0
8.805,-14656.0,-5632.0,256.0
8.8075,-14656.0,-5632.0,256.0
8.81,-14592.0,-5632.0,256.0
8.8125,-14592.0,-5632.0,256.0
8.815,-14528.0,-5568.0,320.0
8.8175,-14528.0,-5632.0,320.0
8.82,-14528.0,-5632.0,320.0
8.8225,-14464.0,-5632.0,448.0
8.825,-14400.0,-5632.0,320.0
8.8275,-14400.0,-5632.0,384.0
8.83,-14336.0,-5632.0,384.0
8.8325,-14272.0,-5696.0,320.0
8.835,-14272.0,-5696.0,320.0
8.8375,-14400.0,-5696.0,320.0
8.84,-14336.0,-5632.0,320.0
8.8425,-14336.0,-5568.0,384.0
8.845,-14336.0,-5632.0,384.0
8.8475,-14336.0,-5632.0,320.0
8.85,-14400.0,-5696.0,320.0
8.8525,-14400.0,-5696.0,384.0
8.855,-14400.0,-5696.0,384.0
8.8575,-14464.0,-5696.0,320.0
8.86,-14464.0,-5760.0,384.0
8.8625,-14592.0,-5824.0,384.0
8.865,-14592.0,-5824.0,256.0
8.8675,-14720.0,-5824.0,320.0
8.87,-14720.0,-5824.0,256.0
8.8725,-14848.0,-5888.0,192.0
8.875,-14848.0,-5888.0,128.0
8.8775,-14976.0,-5888.0,128.0
8.88,-15040.0,-5952.0,128.0
8.8825,-15040.0,-5952.0,64.0
8.885,-15104.0,-5952.0,0.0
8.8875,-15168.0,-6080.0,64.0
8.89,-15232.0,-6016.0,64.0
8.8925,-15168.0,-6080.0,64.0
8.895,-15232.0,-6080.0,64.0
8.8975,-15296.0,-6016.0,0.0
8.9,-15232.0,-6080.0,128.0
8.9025,-15360.0,-6080.0,192.0
8.905,-15296.0,-6080.0,192.0
8.9075,-15232.0,-6144.0,192.0
8.91,-15232.0,-6144.0,192.0
8.9125,-15168.0,-6208.0,320.0
8.915,-15168.0,-6144.0,320.0
8.9175,-15104.0,-6208.0,384.0
8.92,-15040.0,-6208.0,384.0
8.9225,-15040.0,-6144.0,320.0
8.925,-14976.0,-6208.0,256.0
8.9275,-14976.0,-6144.0,320.0
8.93,-14912.0,-6144.0,320.0
8.9325,-14912.0,-6144.0,320.0
8.935,-14912.0,-6144.0,256.0
8.9375,-14912.0,-6144.0,256.0
8.94,-14848.0,-6208.0,192.0
8.9425,-14848.0,-6272.0,128.0
8.945,-14912.0,-6336.0,256.0
8.9475,-14848.0,-6336.0,256.0
8.95,-14912.0,-6272.0,128.0
8.9525,-14912.0,-6336.0,128.0
8.955,-14848.0,-6336.0,64.0
8.9575,-14848.0,-6272.0,64.0
8.96,-14784.0,-6208.0,64.0
8.9625,-14784.0,-6144.0,64.0
8.965,-14784.0,-6144.0,64.0
8.9675,-14720.0,-6144.0,64.0
8.97,-14720.0,-6080.0,128.0
8.9725,-14656.0,-6016.0,64.0
8.975,-14720.0,-6016.0,128.0
8.9775,-14720.0,-6016.0,192.0
8.98,-14720.0,-5952.0,128.0
8.9825,-14784.0,-5952.0,128.0
8.985,-14848.0,-5824.0,192.0
8.9875,-14784.0,-5824.0,192.0
8.99,-14848.0,-5696.0,192.0
8.9925,-14848.0,-5760.0,256.0
8.995,-14848.0,-5696.0,256.0
8.9975,-14848.0,-5632.0,192.0
9.0,-5696.0,256.0,
9.0025,-14976.0,-5632.0,192.0
9.005,-14976.0,-5632.0,192.0
9.0075,-14976.0,-5632.0,256.0
9.01,-15040.0,-5632.0,256.0
9.0125,-15040.0,-5696.0,256.0
9.015,-15040.0,-5632.0,320.0
9.0175,-15104.0,-5696.0,192.0
9.02,-15040.0,-5632.0,256.0
9.0225,-15040.0,-5632.0,192.0
9.025,-15040.0,-5632.0,128.0
9.0275,-15040.0,-5632.0,128.0
9.03,-15040.0,-5568.0,128.0
9.0325,-15040.0,-5568.0,64.0
9.035,-14976.0,-5568.0,0.0
9.0375,-14976.0,-5504.0,0.0
9.04,-14976.0,-5504.0,-64.0
9.0425,-14976.0,-5440.0,-64.0
9.045,-15040.0,-5312.0,-64.0
9.0475,-14976.0,-5312.0,0.0
9.05,-14976.0,-5376.0,64.0
9.0525,-14976.0,-5376.0,0.0
9.055,-15040.0,-5504.0,-64.0
9.0575,-15040.0,-5568.0,0.0
9.06,-14976.0,-5568.0,-64.0
9.0625,-15040.0,-5568.0,-64.0
9.065,-15040.0,-5632.0,-64.0
9.0675,-15104.0,-5568.0,-64.0
9.07,-15104.0,-5632.0,-128.0
9.0725,-15104.0,-5696.0,-128.0
9.075,-15040.0,-5632.0,-128.0
9.0775,-15040.0,-5696.0,-64.0
9.08,-15040.0,-5760.0,-64.0
9.0825,-15040.0,-5760.0,0.0
9.085,-15040.0,-5760.0,0.0
9.0875,-15040.0,-5760.0,0.0
9.09,-15040.0,-5760.0,0.0
9.0925,-14976.0,-5824.0,64.0
9.095,-14976.0,-5824.0,64.0
9.0975,-15040.0,-5888.0,128.0
9.1,-14976.0,-5888.0,128.0
9.1025,-14976.0,-5888.0,128.0
9.105,-14976.0,-5888.0,192.0
9.1075,-14912.0,-5824.0,128.0
9.11,-14848.0,-5888.0,128.0
9.1125,-14848.0,-5888.0,128.0
9.115,-14848.0,-5824.0,64.0
9.1175,-14784.0,-5824.0,0.0
9.12,-14720.0,-5760.0,64.0
9.1225,-14720.0,-5760.0,64.0
9.125,-14656.0,-5760.0,64.0
9.1275,-14720.0,-5696.0,0.0
9.13,-14592.0,-5696.0,64.0
9.1325,-14592.0,-5696.0,128.0
9.135,-14528.0,-5632.0,128.0
9.1375,-14592.0,-5632.0,128.0
9.14,-14592.0,-5696.0,128.0
9.1425,-14528.0,-5632.0,256.0
9.145,-14528.0,-5696.0,256.0
9.1475,-14528.0,-5632.0,256.0
9.15,-14464.0,-5696.0,256.0
9.1525,-14464.0,-5696.0,256.0
9.155,-14400.0,-5696.0,320.0
9.1575,-14464.0,-5696.0,320.0
9.16,-14464.0,-5696.0,384.0
9.1625,-14528.0,-5696.0,320.0
9.165,-14592.0,-5696.0,384.0
9.1675,-14656.0,-5696.0,384.0
9.17,-14720.0,-5696.0,384.0
9.1725,-14656.0,-5760.0,384.0
9.175,-14784.0,-5696.0,448.0
9.1775,-14784.0,-5696.0,384.0
9.18,-14848.0,-5696.0,320.0
9.1825,-14912.0,-5632.0,320.0
9.185,-14976.0,-5632.0,256.0
9.1875,-15040.0,-5696.0,320.0
9.19,-15040.0,-5696.0,256.0
9.1925,-15040.0,-5696.0,256.0
9.195,-15040.0,-5696.0,320.0
9.1975,-14976.0,-5696.0,256.0
9.2,-14976.0,-5760.0,320.0
9.2025,-14912.0,-5760.0,384.0
9.205,-14848.0,-5760.0,384.0
9.2075,-14784.0,-5696.0,384.0
9.21,-14784.0,-5696.0,448.0
9.2125,-14784.0,-5632.0,448.0
9.215,-14784.0,-5632.0,448.0
9.2175,-14656.0,-5632.0,448.0
9.22,-14656.0,-5632.0,448.0
9.2225,-14656.0,-5632.0,512.0
9.225,-14656.0,-5568.0,640.0
9.2275,-14656.0,-5568.0,640.0
9.23,-14656.0,-5632.0,640.0
9.2325,-14656.0,-5632.0,576.0
9.235,-14720.0,-5568.0,576.0
9.2375,-14720.0,-5632.0,640.0
9.24,-14720.0,-5632.0,576.0
9.2425,-14720.0,-5568.0,640.0
9.245,-14784.0,-5568.0,512.0
9.2475,-14848.0,-5504.0,512.0
9.25,-14848.0,-5568.0,512.0
9.2525,-14912.0,-5632.0,512.0
9.255,-14848.0,-5632.0,448.0
9.2575,-14912.0,-5632.0,448.0
9.26,-14976.0,-5632.0,512.0
9.2625,-15040.0,-5760.0,448.0
9.265,-15104.0,-5696.0,512.0
9.2675,-15104.0,-5696.0,448.0
9.27,-15104.0,-5696.0,512.0
9.2725,-15104.0,-5760.0,512.0
9.275,-15168.0,-5824.0,384.0
9.2775,-15104.0,-5824.0,448.0
9.28,-15104.0,-5760.0,448.0
9.2825,-15104.0,-5760.0,448.0
9.285,-15040.0,-5696.0,448.0
9.2875,-14976.0,-5760.0,448.0
9.29,-14912.0,-5824.0,320.0
9.2925,-14912.0,-5760.0,320.0
9.295,-14848.0,-5760.0,384.0
9.2975,-14912.0,-5696.0,320.0
9.3,-14848.0,-5760.0,256.0
9.3025,-14912.0,-5760.0,320.0
9.305,-14848.0,-5760.0,320.0
9.3075,-14784.0,-5696.0,256.0
9.31,-14784.0,-5696.0,320.0
9.3125,-14720.0,-5696.0,320.0
9.315,-14592.0,-5696.0,320.0
9.3175,-14528.0,-5696.0,384.0
9.32,-14464.0,-5760.0,448.0
9.3225,-14464.0,-5760.0,512.0
9.325,-14336.0,-5824.0,640.0
9.3275,-14272.0,-5824.0,640.0
9.33,-14208.0,-5824.0,704.0
9.3325,-14208.0,-5824.0,704.0
9.335,-14144.0,-5760.0,768.0
9.3375,-14080.0,-5696.0,832.0
9.34,-14016.0,-5696.0,768.0
9.3425,-13888.0,-5632.0,768.0
9.345,-13888.0,-5568.0,832.0
9.3475,-13888.0,-5504.0,832.0
9.35,-13760.0,-5440.0,768.0
9.3525,-13696.0,-5376.0,768.0
9.355,-13760.0,-5376.0,768.0
9.3575,-13696.0,-5376.0,768.0
9.36,-13632.0,-5312.0,896.0
9.3625,-13632.0,-5248.0,832.0
9.365,-13632.0,-5248.0,832.0
9.3675,-13632.0,-5184.0,832.0
9.37,-13568.0,-5248.0,896.0
9.3725,-13632.0,-5248.0,896.0
9.375,-13632.0,-5248.0,832.0
9.3775,-13696.0,-5312.0,896.0
9.38,-13824.0,-5376.0,960.0
9.3825,-13824.0,-5376.0,960.0
9.385,-13824.0,-5376.0,960.0
9.3875,-13824.0,-5440.0,960.0
9.39,-13888.0,-5504.0,960.0
9.3925,-13952.0,-5504.0,896.0
9.395,-14080.0,-5504.0,960.0
9.3975,-14080.0,-5376.0,1024.0
9.4,-14144.0,-5440.0,1024.0
9.4025,-14144.0,-5376.0,960.0
9.405,-14208.0,-5376.0,1024.0
9.4075,-14208.0,-5376.0,960.0
9.41,-14144.0,-5504.0,960.0
9.4125,-14208.0,-5440.0,1024.0
9.415,-14144.0,-5440.0,960.0
9.4175,-14144.0,-5440.0,1024.0
9.42,-14144.0,-5376.0,960.0
9.4225,-14144.0,-5376.0,960.0
9.425,-14208.0,-5440.0,960.0
9.4275,-14208.0,-5376.0,832.0
9.43,-14208.0,-5440.0,832.0
9.4325,-14208.0,-5440.0,896.0
9.435,-14272.0,-5440.0,768.0
9.4375,-14336.0,-5504.0,768.0
9.44,-14464.0,-5440.0,768.0
9.4425,-14464.0,-5440.0,704.0
9.445,-14528.0,-5568.0,640.0
9.4475,-14592.0,-5504.0,576.0
9.45,-14720.0,-5504.0,576.0
9.4525,-14848.0,-5568.0,576.0
9.455,-14976.0,-5568.0,576.0
9.4575,-15168.0,-5504.0,576.0
9.46,-15360.0,-5568.0,576.0
9.4625,-15488.0,-5504.0,512.0
9.465,-15616.0,-5504.0,512.0
9.4675,-15744.0,-5504.0,448.0
9.47,-15872.0,-5568.0,448.0
9.4725,-16000.0,-5504.0,384.0
9.475,-16064.0,-5568.0,320.0
9.4775,-16128.0,-5568.0,320.0
9.48,-16192.0,-5568.0,384.0
9.4825,-16256.0,-5632.0,384.0
9.485,-16320.0,-5632.0,384.0
9.4875,-16448.0,-5696.0,384.0
9.49,-16576.0,-5824.0,448.0
9.4925,-16640.0,-5760.0,448.0
9.495,-16704.0,-5824.0,384.0
9.4975,-16768.0,-5824.0,448.0
9.5,-16832.0,-5888.0,448.0
9.5025,-16896.0,-5888.0,512.0
9.505,-16896.0,-5888.0,448.0
9.5075,-17152.0,-5952.0,576.0
9.51,-17024.0,-5952.0,512.0
9.5125,-16960.0,-5952.0,512.0
9.515,-16960.0,-5888.0,512.0
9.5175,-17024.0,-5888.0,512.0
9.52,-16960.0,-5824.0,384.0
9.5225,-16960.0,-5760.0,448.0
9.525,-16896.0,-5760.0,384.0
9.5275,-16960.0,-5824.0,320.0
9.53,-16896.0,-5760.0,320.0
9.5325,-16896.0,-5696.0,320.0
9.535,-16960.0,-5632.0,192.0
9.5375,-16896.0,-5632.0,256.0
9.54,-16832.0,-5632.0,320.0
9.5425,-16896.0,-5632.0,256.0
9.545,-16832.0,-5568.0,192.0
9.5475,-16896.0,-5504.0,256.0
9.55,-16896.0,-5504.0,256.0
9.5525,-16832.0,-5440.0,320.0
9.555,-16832.0,-5376.0,384.0
9.5575,-16832.0,-5376.0,384.0
9.56,-16832.0,-5376.0,384.0
9.5625,-16832.0,-5376.0,448.0
9.565,-16768.0,-5376.0,384.0
9.5675,-16832.0,-5376.0,384.0
9.57,-16768.0,-5376.0,448.0
9.5725,-16704.0,-5376.0,448.0
9.575,-16704.0,-5440.0,512.0
9.5775,-16640.0,-5376.0,512.0
9.58,-16640.0,-5376.0,576.0
9.5825,-16576.0,-5440.0,576.0
9.585,-16576.0,-5440.0,640.0
9.5875,-16512.0,-5504.0,640.0
9.59,-16512.0,-5504.0,704.0
9.5925,-16448.0,-5504.0,768.0
9.595,-16320.0,-5440.0,832.0
9.5975,-16256.0,-5504.0,832.0
9.6,-16064.0,-5440.0,896.0
9.6025,-16064.0,-5440.0,832.0
9.605,-16000.0,-5376.0,832.0
9.6075,-15936.0,-5376.0,768.0
9.61,-15936.0,-5312.0,832.0
9.6125,-15936.0,-5248.0,896.0
9.615,-15872.0,-5184.0,960.0
9.6175,-15872.0,-5120.0,960.0
9.62,-15808.0,-5120.0,960.0
9.6225,-15808.0,-5056.0,960.0
9.625,-15744.0,-5120.0,896.0
9.6275,-15744.0,-5120.0,896.0
9.63,-15744.0,-5184.0,896.0
9.6325,-15680.0,-5120.0,896.0
9.635,-15680.0,-5120.0,896.0
9.6375,-15680.0,-5120.0,960.0
9.64,-15680.0,-5120.0,896.0
9.6425,-15616.0,-5120.0,896.0
9.645,-15680.0,-5120.0,832.0
9.6475,-15616.0,-5120.0,832.0
9.65,-15616.0,-5120.0,832.0
9.6525,-15616.0,-5056.0,768.0
9.655,-15616.0,-5120.0,832.0
9.6575,-15680.0,-5056.0,832.0
9.66,-15680.0,-5120.0,768.0
9.6625,-15680.0,-5120.0,704.0
9.665,-15616.0,-5120.0,768.0
9.6675,-15552.0,-5056.0,704.0
9.67,-15616.0,-5056.0,768.0
9.6725,-15616.0,-5056.0,704.0
9.675,-15680.0,-5184.0,704.0
9.6775,-15744.0,-5056.0,704.0
9.68,-15808.0,-5184.0,704.0
9.6825,-15808.0,-5120.0,576.0
9.685,-15808.0,-5120.0,512.0
9.6875,-15872.0,-5056.0,512.0
9.69,-15872.0,-5120.0,512.0
9.6925,-15872.0,-5184.0,512.0
9.695,-15936.0,-5120.0,576.0
9.6975,-15936.0,-5120.0,512.0
9.7,-16000.0,-5120.0,512.0
9.7025,-16000.0,-5184.0,576.0
9.705,-16000.0,-5184.0,512.0
9.7075,-16064.0,-5184.0,512.0
9.71,-16128.0,-5248.0,576.0
9.7125,-16128.0,-5248.0,640.0
9.715,-16192.0,-5184.0,576.0
9.7175,-16192.0,-5184.0,576.0
9.72,-16192.0,-5120.0,576.0
9.7225,-16128.0,-5184.0,576.0
9.725,-16192.0,-5184.0,576.0
9.7275,-16192.0,-5120.0,576.0
9.73,-16256.0,-5056.0,576.0
9.7325,-16192.0,-5056.0,512.0
9.735,-16256.0,-4992.0,512.0
9.7375,-16320.0,-4992.0,512.0
9.74,-16320.0,-5056.0,448.0
9.7425,-16320.0,-5120.0,448.0
9.745,-16320.0,-5120.0,384.0
9.7475,-16384.0,-5120.0,384.0
9.75,-16384.0,-5120.0,320.0
9.7525,-16384.0,-5120.0,320.0
9.755,-16384.0,-5120.0,256.0
9.7575,-16384.0,-5120.0,256.0
9.76,-16448.0,-5184.0,256.0
9.7625,-16384.0,-5184.0,256.0
9.765,-16384.0,-5248.0,320.0
9.7675,-16320.0,-5248.0,320.0
9.77,-16320.0,-5248.0,320.0
9.7725,-16320.0,-5248.0,256.0
9.775,-16448.0,-5248.0,320.0
9.7775,-16384.0,-5312.0,320.0
9.78,-16384.0,-5312.0,384.0
9.7825,-16384.0,-5248.0,384.0
9.785,-16448.0,-5248.0,384.0
9.7875,-16384.0,-5248.0,384.0
9.79,-16384.0,-5312.0,384.0
9.7925,-16384.0,-5312.0,320.0
9.795,-16384.0,-5312.0,320.0
9.7975,-16384.0,-5248.0,384.0
9.8,-16448.0,-5248.0,320.0
9.8025,-16384.0,-5248.0,320.0
9.805,-16384.0,-5248.0,320.0
9.8075,-16320.0,-5248.0,256.0
9.81,-16320.0,-5248.0,256.0
9.8125,-16320.0,-5312.0,320.0
9.815,-16256.0,-5312.0,320.0
9.8175,-16320.0,-5312.0,320.0
9.82,-16256.0,-5312.0,320.0
9.8225,-16256.0,-5312.0,320.0
9.825,-16192.0,-5312.0,320.0
9.8275,-16256.0,-5312.0,320.0
9.83,-16192.0,-5312.0,320.0
9.8325,-16128.0,-5248.0,256.0
9.835,-16128.0,-5184.0,320.0
9.8375,-16128.0,-5248.0,384.0
9.84,-16192.0,-5184.0,384.0
9.8425,-16192.0,-5184.0,384.0
9.845,-16128.0,-5184.0,448.0
9.8475,-16128.0,-5184.0,512.0
9.85,-16192.0,-5248.0,448.0
9.8525,-16128.0,-5248.0,448.0
9.855,-16192.0,-5248.0,448.0
9.8575,-16128.0,-5248.0,512.0
9.86,-16192.0,-5184.0,512.0
9.8625,-16256.0,-5184.0,576.0
9.865,-16256.0,-5184.0,512.0
9.8675,-16384.0,-5184.0,512.0
9.87,-16320.0,-5184.0,448.0
9.8725,-16320.0,-5184.0,448.0
9.875,-16384.0,-5248.0,576.0
9.8775,-16320.0,-5248.0,512.0
9.88,-16320.0,-5184.0,448.0
9.8825,-16256.0,-5184.0,448.0
9.885,-16256.0,-5184.0,448.0
9.8875,-16256.0,-5184.0,448.0
9.89,-16256.0,-5184.0,512.0
9.8925,-16256.0,-5184.0,512.0
9.895,-16320.0,-5184.0,448.0
9.8975,-16256.0,-5184.0,448.0
9.9,-16256.0,-5120.0,448.0
9.9025,-16320.0,-5120.0,512.0
9.905,-16256.0,-5120.0,448.0
9.9075,-16256.0,-5120.0,448.0
9.91,-16256.0,-5184.0,512.0
9.9125,-16256.0,-5184.0,576.0
9.915,-16256.0,-5248.0,576.0
9.9175,-16320.0,-5184.0,576.0
9.92,-16320.0,-5184.0,640.0
9.9225,-16256.0,-5184.0,704.0
9.925,-16320.0,-5248.0,640.0
9.9275,-16256.0,-5248.0,640.0
9.93,-16256.0,-5248.0,704.0
9.9325,-16320.0,-5184.0,640.0
9.935,-16320.0,-5184.0,640.0
9.9375,-16320.0,-5248.0,704.0
9.94,-16256.0,-5184.0,640.0
9.9425,-16256.0,-5184.0,768.0
9.945,-16192.0,-5248.0,768.0
9.9475,-16128.0,-5248.0,832.0
9.95,-16128.0,-5184.0,704.0
9.9525,-16128.0,-5120.0,704.0
9.955,-16128.0,-5120.0,704.0
9.9575,-16128.0,-5248.0,704.0
9.96,-16192.0,-5184.0,704.0
9.9625,-16128.0,-5184.0,640.0
9.965,-16128.0,-5248.0,640.0
9.9675,-16128.0,-5248.0,704.0
9.97,-16192.0,-5248.0,640.0
9.9725,-16192.0,-5120.0,576.0
9.975,-16192.0,-5248.0,704.0
9.9775,-16256.0,-5248.0,704.0
9.98,-16256.0,-5248.0,640.0
9.9825,-16256.0,-5248.0,704.0
9.985,-16256.0,-5248.0,704.0
9.9875,-16320.0,-5312.0,704.0
9.99,-16448.0,-5248.0,704.0
9.9925,-16448.0,-5248.0,768.0
9.995,-16512.0,-5248.0,704.0
9.9975,-16512.0,-5312.0,704.0
10.0,-5376.0,768.0,
10.0025,-16576.0,-5376.0,704.0
10.005,-16640.0,-5376.0,704.0
10.0075,-16704.0,-5440.0,640.0
10.01,-16832.0,-5440.0,768.0
10.0125,-16896.0,-5440.0,704.0
10.015,-16960.0,-5504.0,704.0
10.0175,-16960.0,-5504.0,768.0
10.02,-16960.0,-5568.0,768.0
10.0225,-16960.0,-5632.0,704.0
10.025,-16960.0,-5632.0,768.0
10.0275,-16960.0,-5696.0,768.0
10.03,-16960.0,-5632.0,768.0
10.0325,-17024.0,-5632.0,768.0
10.035,-17024.0,-5632.0,768.0
10.0375,-17024.0,-5632.0,704.0
10.04,-17024.0,-5696.0,704.0
10.0425,-16960.0,-5632.0,768.0
10.045,-17088.0,-5696.0,768.0
10.0475,-17088.0,-5760.0,640.0
10.05,-17152.0,-5760.0,640.0
10.0525,-17216.0,-5824.0,576.0
10.055,-17216.0,-5824.0,640.0
10.0575,-17280.0,-5824.0,704.0
10.06,-17344.0,-5824.0,704.0
10.0625,-17344.0,-5824.0,768.0
10.065,-17344.0,-5888.0,768.0
10.0675,-17472.0,-5888.0,704.0
10.07,-17600.0,-5952.0,832.0
10.0725,-17664.0,-6016.0,896.0
10.075,-17728.0,-6080.0,960.0
10.0775,-17856.0,-6144.0,1024.0
10.08,-18112.0,-6208.0,1152.0
10.0825,-18112.0,-6272.0,1152.0
10.085,-18176.0,-6272.0,1280.0
10.0875,-18240.0,-6272.0,1280.0
10.09,-18304.0,-6336.0,1280.0
10.0925,-18304.0,-6336.0,1280.0
10.095,-18304.0,-6400.0,1280.0
10.0975,-18368.0,-6400.0,1344.0
10.1,-18432.0,-6464.0,1280.0
10.1025,-18432.0,-6464.0,1280.0
10.105,-18560.0,-6464.0,1280.0
10.1075,-18496.0,-6400.0,1280.0
10.11,-18560.0,-6400.0,1216.0
10.1125,-18688.0,-6336.0,1280.0
10.115,-18688.0,-6336.0,1280.0
10.1175,-18688.0,-6464.0,1280.0
10.12,-18688.0,-6464.0,1216.0
10.1225,-18688.0,-6464.0,1216.0
10.125,-18752.0,-6400.0,1280.0
10.1275,-18816.0,-6400.0,1344.0
10.13,-18816.0,-6400.0,1344.0
10.1325,-18816.0,-6400.0,1408.0
10.135,-18816.0,-6400.0,1408.0
10.1375,-18816.0,-6336.0,1408.0
10.14,-18752.0,-6336.0,1408.0
10.1425,-18688.0,-6272.0,1472.0
10.145,-18624.0,-6272.0,1472.0
10.1475,-18624.0,-6208.0,1536.0
10.15,-18624.0,-6208.0,1472.0
10.1525,-18560.0,-6208.0,1536.0
10.155,-18560.0,-6208.0,1536.0
10.1575,-18496.0,-6144.0,1472.0
