time_stamp,acc_x,acc_y,acc_z
0.0,-15552.0,-7488.0,320.0
0.0025,-15552.0,-7360.0,192.0
0.005,-15616.0,-7296.0,192.0
0.0075,-15680.0,-7296.0,192.0
0.01,-15808.0,-7296.0,128.0
0.0125,-15808.0,-7232.0,128.0
0.015,-15936.0,-7104.0,64.0
0.0175,-16064.0,-7040.0,128.0
0.02,-16192.0,-6976.0,64.0
0.0225,-16192.0,-6976.0,-64.0
0.025,-16320.0,-6848.0,0.0
0.0275,-16320.0,-6912.0,64.0
0.03,-16448.0,-6784.0,64.0
0.0325,-16448.0,-6720.0,64.0
0.035,-16448.0,-6656.0,64.0
0.0375,-16512.0,-6592.0,128.0
0.04,-16512.0,-6528.0,192.0
0.0425,-16448.0,-6528.0,256.0
0.045,-16448.0,-6464.0,256.0
0.0475,-16384.0,-6400.0,256.0
0.05,-16384.0,-6336.0,320.0
0.0525,-16384.0,-6336.0,320.0
0.055,-16320.0,-6336.0,384.0
0.0575,-16256.0,-6272.0,320.0
0.06,-16256.0,-6272.0,448.0
0.0625,-16192.0,-6272.0,512.0
0.065,-16128.0,-6208.0,512.0
0.0675,-16128.0,-6208.0,640.0
0.07,-16000.0,-6272.0,640.0
0.0725,-15936.0,-6272.0,704.0
0.075,-15872.0,-6336.0,704.0
0.0775,-15744.0,-6400.0,768.0
0.08,-15680.0,-6464.0,896.0
0.0825,-15680.0,-6400.0,832.0
0.085,-15616.0,-6464.0,832.0
0.0875,-15616.0,-6464.0,768.0
0.09,-15680.0,-6528.0,832.0
0.0925,-15616.0,-6656.0,768.0
0.095,-15552.0,-6656.0,768.0
0.0975,-15488.0,-6592.0,640.0
0.1,-15488.0,-6656.0,704.0
0.1025,-15424.0,-6656.0,704.0
0.105,-15424.0,-6592.0,640.0
0.1075,-15424.0,-6592.0,576.0
0.11,-15424.0,-6528.0,512.0
0.1125,-15360.0,-6528.0,384.0
0.115,-15424.0,-6464.0,384.0
0.1175,-15360.0,-6400.0,384.0
0.12,-15360.0,-6400.0,384.0
0.1225,-15360.0,-6336.0,384.0
0.125,-15360.0,-6272.0,384.0
0.1275,-15360.0,-6144.0,384.0
0.13,-15296.0,-6144.0,384.0
0.1325,-15232.0,-6016.0,384.0
0.135,-15232.0,-6080.0,448.0
0.1375,-15232.0,-5952.0,448.0
0.14,-15296.0,-6016.0,448.0
0.1425,-15232.0,-5888.0,448.0
0.145,-15232.0,-5888.0,384.0
0.1475,-15296.0,-5824.0,512.0
0.15,-15296.0,-5824.0,576.0
0.1525,-15296.0,-5760.0,768.0
0.155,-15232.0,-5824.0,896.0
0.1575,-15232.0,-5824.0,1024.0
0.16,-15168.0,-5888.0,1152.0
0.1625,-15168.0,-5888.0,1088.0
0.165,-15168.0,-5952.0,1152.0
0.1675,-15168.0,-5952.0,1152.0
0.17,-15296.0,-5952.0,1280.0
0.1725,-15296.0,-6016.0,1152.0
0.175,-15296.0,-6144.0,1088.0
0.1775,-15360.0,-6144.0,1024.0
0.18,-15488.0,-6272.0,1088.0
0.1825,-15424.0,-6400.0,1024.0
0.185,-15424.0,-6592.0,1024.0
0.1875,-15488.0,-6592.0,1088.0
0.19,-15552.0,-6656.0,1088.0
0.1925,-15616.0,-6720.0,1024.0
0.195,-15680.0,-6784.0,1024.0
0.1975,-15808.0,-6784.0,960.0
0.2,-15808.0,-6784.0,896.0
0.2025,-15936.0,-6784.0,832.0
0.205,-15936.0,-6784.0,896.0
0.2075,-15936.0,-6784.0,832.0
0.21,-16000.0,-6784.0,832.0
0.2125,-16000.0,-6720.0,768.0
0.215,-16000.0,-6656.0,704.0
0.2175,-16064.0,-6592.0,704.0
0.22,-16000.0,-6464.0,768.0
0.2225,-16000.0,-6464.0,704.0
0.225,-15936.0,-6336.0,704.0
0.2275,-15936.0,-6272.0,768.0
0.23,-15872.0,-6208.0,704.0
0.2325,-15808.0,-6208.0,640.0
0.235,-15744.0,-6208.0,704.0
0.2375,-15680.0,-6208.0,640.0
0.24,-15616.0,-6272.0,512.0
0.2425,-15616.0,-6336.0,448.0
0.245,-15424.0,-6336.0,320.0
0.2475,-15424.0,-6336.0,128.0
0.25,-15424.0,-6336.0,64.0
0.2525,-15424.0,-6400.0,64.0
0.255,-15424.0,-6400.0,0.0
0.2575,-15296.0,-6400.0,-64.0
0.26,-15232.0,-6400.0,-128.0
0.2625,-15296.0,-6400.0,-128.0
0.265,-15296.0,-6400.0,-128.0
0.2675,-15168.0,-6336.0,-128.0
0.27,-15168.0,-6336.0,-128.0
0.2725,-15168.0,-6336.0,-256.0
0.275,-15168.0,-6336.0,-256.0
0.2775,-15104.0,-6272.0,-256.0
0.28,-15104.0,-6272.0,-256.0
0.2825,-15040.0,-6208.0,-256.0
0.285,-15040.0,-6208.0,-256.0
0.2875,-14976.0,-6144.0,-320.0
0.29,-14976.0,-6144.0,-320.0
0.2925,-14976.0,-6080.0,-256.0
0.295,-14912.0,-6080.0,-256.0
0.2975,-14912.0,-6080.0,-256.0
0.3,-14848.0,-6016.0,-320.0
0.3025,-14848.0,-5952.0,-384.0
0.305,-14848.0,-5824.0,-256.0
0.3075,-14848.0,-5760.0,-256.0
0.31,-14848.0,-5760.0,-320.0
0.3125,-14720.0,-5760.0,-320.0
0.315,-14720.0,-5696.0,-384.0
0.3175,-14720.0,-5632.0,-448.0
0.32,-14720.0,-5504.0,-512.0
0.3225,-14720.0,-5504.0,-640.0
0.325,-14720.0,-5440.0,-640.0
0.3275,-14848.0,-5376.0,-512.0
0.33,-14784.0,-5312.0,-640.0
0.3325,-14784.0,-5184.0,-768.0
0.335,-14784.0,-5184.0,-832.0
0.3375,-14848.0,-5120.0,-832.0
0.34,-14784.0,-5056.0,-832.0
0.3425,-14912.0,-4928.0,-960.0
0.345,-14912.0,-4928.0,-960.0
0.3475,-14912.0,-4928.0,-896.0
0.35,-14912.0,-4864.0,-1024.0
0.3525,-14912.0,-4800.0,-1024.0
0.355,-14912.0,-4736.0,-960.0
0.3575,-14912.0,-4672.0,-1024.0
0.36,-14976.0,-4672.0,-1024.0
0.3625,-14976.0,-4608.0,-1024.0
0.365,-15040.0,-4608.0,-1024.0
0.3675,-15104.0,-4544.0,-1024.0
0.37,-15104.0,-4544.0,-1088.0
0.3725,-15104.0,-4480.0,-1152.0
0.375,-15104.0,-4480.0,-1152.0
0.3775,-15168.0,-4480.0,-1152.0
0.38,-15168.0,-4416.0,-1152.0
0.3825,-15168.0,-4352.0,-1152.0
0.385,-15168.0,-4288.0,-1216.0
0.3875,-15232.0,-4288.0,-1216.0
0.39,-15232.0,-4288.0,-1152.0
0.3925,-15168.0,-4224.0,-1088.0
0.395,-15168.0,-4288.0,-960.0
0.3975,-15232.0,-4288.0,-832.0
0.4,-15040.0,-4352.0,-512.0
0.4025,-15040.0,-4416.0,-512.0
0.405,-14976.0,-4416.0,-448.0
0.4075,-15104.0,-4352.0,-192.0
0.41,-15296.0,-4416.0,0.0
0.4125,-15296.0,-4416.0,256.0
0.415,-15360.0,-4416.0,576.0
0.4175,-15424.0,-4608.0,1088.0
0.42,-15552.0,-4928.0,1408.0
0.4225,-15616.0,-5184.0,1728.0
0.425,-15744.0,-5504.0,1984.0
0.4275,-15872.0,-5888.0,2240.0
0.43,-15936.0,-6208.0,2560.0
0.4325,-16000.0,-6464.0,2752.0
0.435,-16064.0,-6656.0,2944.0
0.4375,-16128.0,-6720.0,3072.0
0.44,-16256.0,-6848.0,3264.0
0.4425,-16256.0,-6912.0,3392.0
0.445,-16320.0,-6848.0,3520.0
0.4475,-16192.0,-6784.0,3648.0
0.45,-16064.0,-6720.0,3712.0
0.4525,-15808.0,-6720.0,3776.0
0.455,-15616.0,-6720.0,3648.0
0.4575,-15488.0,-6720.0,3648.0
0.46,-15552.0,-6656.0,3392.0
0.4625,-15680.0,-6720.0,3136.0
0.465,-15872.0,-6656.0,2880.0
0.4675,-15936.0,-6656.0,2688.0
0.47,-16000.0,-6592.0,2496.0
0.4725,-16128.0,-6528.0,2240.0
0.475,-16128.0,-6528.0,2048.0
0.4775,-16128.0,-6400.0,1856.0
0.48,-16064.0,-6528.0,1408.0
0.4825,-16064.0,-6464.0,1280.0
0.485,-16000.0,-6464.0,1088.0
0.4875,-16000.0,-6464.0,1024.0
0.49,-16064.0,-6400.0,960.0
0.4925,-16064.0,-6336.0,768.0
0.495,-16064.0,-6144.0,768.0
0.4975,-16000.0,-6016.0,768.0
0.5,-16000.0,-5824.0,832.0
0.5025,-16064.0,-5696.0,896.0
0.505,-16064.0,-5568.0,832.0
0.5075,-16064.0,-5376.0,960.0
0.51,-16064.0,-5184.0,960.0
0.5125,-16000.0,-5056.0,896.0
0.515,-16000.0,-4864.0,832.0
0.5175,-16000.0,-4864.0,768.0
0.52,-15936.0,-4672.0,704.0
0.5225,-15936.0,-4608.0,704.0
0.525,-16064.0,-4480.0,640.0
0.5275,-16064.0,-4352.0,576.0
0.53,-16128.0,-4352.0,512.0
0.5325,-16128.0,-4352.0,448.0
0.535,-16128.0,-4352.0,448.0
0.5375,-16128.0,-4416.0,448.0
0.54,-16064.0,-4544.0,384.0
0.5425,-15936.0,-4608.0,320.0
0.545,-15808.0,-4800.0,256.0
0.5475,-15616.0,-4928.0,192.0
0.55,-15488.0,-4992.0,128.0
0.5525,-15424.0,-5056.0,64.0
0.555,-15296.0,-5120.0,64.0
0.5575,-15232.0,-5184.0,0.0
0.56,-15040.0,-5184.0,-128.0
0.5625,-14912.0,-5184.0,-192.0
0.565,-14912.0,-5120.0,-256.0
0.5675,-14848.0,-5184.0,-256.0
0.57,-14784.0,-5184.0,-320.0
0.5725,-14784.0,-5248.0,-320.0
0.575,-14720.0,-5184.0,-384.0
0.5775,-14656.0,-5120.0,-512.0
0.58,-14592.0,-5120.0,-512.0
0.5825,-14592.0,-5056.0,-576.0
0.585,-14528.0,-4992.0,-640.0
0.5875,-14464.0,-4928.0,-640.0
0.59,-14464.0,-4928.0,-832.0
0.5925,-14464.0,-4864.0,-832.0
0.595,-14464.0,-4864.0,-896.0
0.5975,-14464.0,-4800.0,-896.0
0.6,-14528.0,-4800.0,-960.0
0.6025,-14592.0,-4736.0,-1024.0
0.605,-14528.0,-4736.0,-1152.0
0.6075,-14464.0,-4672.0,-1216.0
0.61,-14528.0,-4608.0,-1216.0
0.6125,-14464.0,-4480.0,-1280.0
0.615,-14400.0,-4480.0,-1280.0
0.6175,-14336.0,-4480.0,-1344.0
0.62,-14336.0,-4416.0,-1472.0
0.6225,-14272.0,-4416.0,-1600.0
0.625,-14272.0,-4352.0,-1600.0
0.6275,-14272.0,-4352.0,-1664.0
0.63,-14336.0,-4352.0,-1664.0
0.6325,-14272.0,-4352.0,-1728.0
0.635,-14272.0,-4352.0,-1856.0
0.6375,-14272.0,-4416.0,-1856.0
0.64,-14208.0,-4352.0,-1856.0
0.6425,-14272.0,-4352.0,-1984.0
0.645,-14208.0,-4352.0,-2048.0
0.6475,-14144.0,-4352.0,-2048.0
0.65,-14208.0,-4480.0,-1984.0
0.6525,-14208.0,-4480.0,-2112.0
0.655,-14208.0,-4480.0,-2112.0
0.6575,-14272.0,-4544.0,-1984.0
0.66,-14336.0,-4544.0,-1984.0
0.6625,-14336.0,-4608.0,-2048.0
0.665,-14336.0,-4608.0,-2176.0
0.6675,-14464.0,-4608.0,-2176.0
0.67,-14528.0,-4608.0,-2240.0
0.6725,-14528.0,-4672.0,-2176.0
0.675,-14464.0,-4736.0,-2304.0
0.6775,-14592.0,-4800.0,-2368.0
0.68,-14528.0,-4800.0,-2432.0
0.6825,-14528.0,-4800.0,-2432.0
0.685,-14528.0,-4800.0,-2432.0
0.6875,-14592.0,-4800.0,-2560.0
0.69,-14592.0,-4864.0,-2560.0
0.6925,-14656.0,-4864.0,-2560.0
0.695,-14720.0,-4864.0,-2560.0
0.6975,-14656.0,-4864.0,-2624.0
0.7,-14656.0,-4864.0,-2688.0
0.7025,-14720.0,-4928.0,-2752.0
0.705,-14720.0,-4864.0,-2816.0
0.7075,-14656.0,-4864.0,-2816.0
0.71,-14720.0,-4864.0,-2816.0
0.7125,-14720.0,-4800.0,-2880.0
0.715,-14720.0,-4800.0,-2880.0
0.7175,-14720.0,-4800.0,-2944.0
0.72,-14848.0,-4736.0,-3008.0
0.7225,-14848.0,-4800.0,-2880.0
0.725,-14912.0,-4864.0,-2880.0
0.7275,-14848.0,-4736.0,-3008.0
0.73,-14848.0,-4736.0,-2944.0
0.7325,-14976.0,-4736.0,-2880.0
0.735,-14976.0,-4736.0,-2880.0
0.7375,-15040.0,-4736.0,-2944.0
0.74,-15104.0,-4800.0,-3008.0
0.7425,-15168.0,-4672.0,-3008.0
0.745,-15296.0,-4736.0,-3008.0
0.7475,-15360.0,-4736.0,-2944.0
0.75,-15488.0,-4736.0,-3008.0
0.7525,-15488.0,-4736.0,-3072.0
0.755,-15552.0,-4736.0,-3136.0
0.7575,-15616.0,-4672.0,-3264.0
0.76,-15680.0,-4672.0,-3264.0
0.7625,-15680.0,-4736.0,-3392.0
0.765,-15808.0,-4672.0,-3520.0
0.7675,-15872.0,-4672.0,-3520.0
0.77,-15936.0,-4672.0,-3584.0
0.7725,-16000.0,-4672.0,-3712.0
0.775,-16128.0,-4672.0,-3840.0
0.7775,-16192.0,-4672.0,-3840.0
0.78,-16256.0,-4608.0,-3904.0
0.7825,-16320.0,-4672.0,-4096.0
0.785,-16384.0,-4608.0,-4160.0
0.7875,-16448.0,-4608.0,-4288.0
0.79,-16512.0,-4608.0,-4352.0
0.7925,-16640.0,-4608.0,-4480.0
0.795,-16640.0,-4544.0,-4544.0
0.7975,-16768.0,-4608.0,-4672.0
0.8,-16896.0,-4544.0,-4800.0
0.8025,-17024.0,-4544.0,-4864.0
0.805,-17024.0,-4544.0,-4928.0
0.8075,-17152.0,-4608.0,-5056.0
0.81,-17216.0,-4544.0,-4992.0
0.8125,-17280.0,-4544.0,-5056.0
0.815,-17408.0,-4544.0,-5184.0
0.8175,-17536.0,-4480.0,-5184.0
0.82,-17600.0,-4480.0,-5120.0
0.8225,-17600.0,-4352.0,-5248.0
0.825,-17728.0,-4352.0,-5184.0
0.8275,-17728.0,-4352.0,-5248.0
0.83,-17792.0,-4288.0,-5248.0
0.8325,-17984.0,-4288.0,-5120.0
0.835,-17984.0,-4288.0,-5120.0
0.8375,-18048.0,-4288.0,-5056.0
0.84,-18112.0,-4224.0,-5056.0
0.8425,-18176.0,-4288.0,-4864.0
0.845,-18240.0,-4224.0,-4864.0
0.8475,-18240.0,-4160.0,-4800.0
0.85,-18304.0,-4160.0,-4736.0
0.8525,-18304.0,-4160.0,-4736.0
0.855,-18304.0,-4224.0,-4672.0
0.8575,-18368.0,-4160.0,-4672.0
0.86,-18304.0,-4160.0,-4608.0
0.8625,-18304.0,-4096.0,-4608.0
0.865,-18304.0,-4096.0,-4544.0
0.8675,-18304.0,-4032.0,-4544.0
0.87,-18304.0,-4032.0,-4544.0
0.8725,-18432.0,-4096.0,-4480.0
0.875,-18560.0,-4096.0,-4480.0
0.8775,-18496.0,-4160.0,-4480.0
0.88,-18432.0,-4160.0,-4352.0
0.8825,-18368.0,-4160.0,-4352.0
0.885,-18368.0,-4096.0,-4288.0
0.8875,-18240.0,-4160.0,-4288.0
0.89,-18176.0,-4096.0,-4160.0
0.8925,-18048.0,-4096.0,-4160.0
0.895,-17984.0,-4032.0,-4032.0
0.8975,-17856.0,-4032.0,-4032.0
0.9,-17792.0,-3968.0,-3904.0
0.9025,-17728.0,-3968.0,-3840.0
0.905,-17664.0,-3968.0,-3776.0
0.9075,-17536.0,-3968.0,-3776.0
0.91,-17472.0,-3968.0,-3776.0
0.9125,-17408.0,-3968.0,-3648.0
0.915,-17280.0,-3904.0,-3648.0
0.9175,-17216.0,-3968.0,-3648.0
0.92,-17152.0,-3968.0,-3712.0
0.9225,-17024.0,-3904.0,-3648.0
0.925,-16896.0,-3904.0,-3584.0
0.9275,-16896.0,-3968.0,-3520.0
0.93,-16768.0,-3968.0,-3584.0
0.9325,-16704.0,-3904.0,-3520.0
0.935,-16640.0,-3904.0,-3392.0
0.9375,-16576.0,-3904.0,-3328.0
0.94,-16512.0,-3904.0,-3264.0
0.9425,-16448.0,-3904.0,-3200.0
0.945,-16384.0,-3904.0,-3136.0
0.9475,-16384.0,-3904.0,-3136.0
0.95,-16256.0,-3904.0,-3072.0
0.9525,-16128.0,-3904.0,-3072.0
0.955,-16128.0,-3904.0,-3072.0
0.9575,-16128.0,-3904.0,-3008.0
0.96,-16000.0,-4032.0,-2880.0
0.9625,-15872.0,-4160.0,-2816.0
0.965,-15872.0,-4224.0,-2880.0
0.9675,-15808.0,-4288.0,-2816.0
0.97,-15744.0,-4288.0,-2816.0
0.9725,-15744.0,-4352.0,-2752.0
0.975,-15744.0,-4352.0,-2624.0
0.9775,-15680.0,-4352.0,-2624.0
0.98,-15680.0,-4480.0,-2496.0
0.9825,-15616.0,-4480.0,-2560.0
0.985,-15552.0,-4480.0,-2560.0
0.9875,-15552.0,-4480.0,-2624.0
0.99,-15552.0,-4480.0,-2752.0
0.9925,-15552.0,-4544.0,-2752.0
0.995,-15552.0,-4608.0,-2688.0
0.9975,-15552.0,-4672.0,-2688.0
1.0,-15552.0,-4608.0,-2752.0
1.0025,-15616.0,-4672.0,-2752.0
1.005,-15552.0,-4736.0,-2752.0
1.0075,-15552.0,-4736.0,-2752.0
1.01,-15616.0,-4736.0,-2752.0
1.0125,-15552.0,-4800.0,-2816.0
1.015,-15616.0,-4864.0,-2816.0
1.0175,-15552.0,-4864.0,-2880.0
1.02,-15616.0,-4928.0,-2816.0
1.0225,-15616.0,-4928.0,-2816.0
1.025,-15552.0,-4864.0,-2880.0
1.0275,-15552.0,-4864.0,-2880.0
1.03,-15552.0,-4992.0,-2880.0
1.0325,-15488.0,-4928.0,-2880.0
1.035,-15424.0,-4928.0,-2944.0
1.0375,-15360.0,-4992.0,-2944.0
1.04,-15360.0,-4928.0,-2816.0
1.0425,-15360.0,-4928.0,-2752.0
1.045,-15296.0,-4864.0,-2816.0
1.0475,-15296.0,-4928.0,-2816.0
1.05,-15296.0,-4928.0,-2752.0
1.0525,-15360.0,-4928.0,-2688.0
1.055,-15360.0,-4992.0,-2688.0
1.0575,-15360.0,-4928.0,-2688.0
1.06,-15360.0,-4992.0,-2560.0
1.0625,-15424.0,-4992.0,-2496.0
1.065,-15360.0,-5056.0,-2560.0
1.0675,-15360.0,-4992.0,-2560.0
1.07,-15360.0,-4992.0,-2560.0
1.0725,-15296.0,-4928.0,-2560.0
1.075,-15360.0,-4992.0,-2496.0
1.0775,-15360.0,-4992.0,-2368.0
1.08,-15360.0,-4992.0,-2368.0
1.0825,-15360.0,-4992.0,-2368.0
1.085,-15360.0,-5056.0,-2368.0
1.0875,-15360.0,-5120.0,-2368.0
1.09,-15424.0,-5120.0,-2304.0
1.0925,-15360.0,-5184.0,-2240.0
1.095,-15360.0,-5248.0,-2240.0
1.0975,-15360.0,-5184.0,-2176.0
1.1,-15424.0,-5248.0,-2176.0
1.1025,-15424.0,-5184.0,-2176.0
1.105,-15488.0,-5248.0,-2048.0
1.1075,-15552.0,-5248.0,-2048.0
1.11,-15552.0,-5312.0,-2048.0
1.1125,-15616.0,-5312.0,-2048.0
1.115,-15552.0,-5312.0,-2048.0
1.1175,-15616.0,-5248.0,-2048.0
1.12,-15488.0,-5312.0,-2112.0
1.1225,-15424.0,-5312.0,-2048.0
1.125,-15424.0,-5312.0,-2112.0
1.1275,-15424.0,-5312.0,-2112.0
1.13,-15296.0,-5248.0,-2240.0
1.1325,-15360.0,-5248.0,-2240.0
1.135,-15360.0,-5248.0,-2112.0
1.1375,-15360.0,-5248.0,-2112.0
1.14,-15232.0,-5248.0,-2240.0
1.1425,-15104.0,-5248.0,-2240.0
1.145,-15104.0,-5248.0,-2176.0
1.1475,-15040.0,-5184.0,-2112.0
1.15,-15040.0,-5120.0,-2112.0
1.1525,-15040.0,-5120.0,-2112.0
1.155,-14976.0,-5056.0,-1984.0
1.1575,-14848.0,-5056.0,-2048.0
1.16,-14848.0,-5056.0,-2048.0
1.1625,-14784.0,-4928.0,-2048.0
1.165,-14720.0,-4864.0,-1984.0
1.1675,-14656.0,-4800.0,-1984.0
1.17,-14592.0,-4800.0,-1920.0
1.1725,-14592.0,-4800.0,-1856.0
1.175,-14528.0,-4736.0,-1792.0
1.1775,-14528.0,-4672.0,-1792.0
1.18,-14464.0,-4672.0,-1792.0
1.1825,-14464.0,-4544.0,-1728.0
1.185,-14400.0,-4480.0,-1664.0
1.1875,-14400.0,-4416.0,-1728.0
1.19,-14336.0,-4416.0,-1664.0
1.1925,-14336.0,-4416.0,-1600.0
1.195,-14272.0,-4352.0,-1536.0
1.1975,-14272.0,-4352.0,-1536.0
1.2,-14272.0,-4288.0,-1472.0
1.2025,-14272.0,-4288.0,-1536.0
1.205,-14272.0,-4224.0,-1600.0
1.2075,-14272.0,-4288.0,-1664.0
1.21,-14272.0,-4288.0,-1664.0
1.2125,-14144.0,-4224.0,-1664.0
1.215,-14080.0,-4160.0,-1792.0
1.2175,-14144.0,-4160.0,-1728.0
1.22,-14144.0,-4160.0,-1664.0
1.2225,-14144.0,-4096.0,-1600.0
1.225,-14208.0,-4160.0,-1728.0
1.2275,-14208.0,-4096.0,-1728.0
1.23,-14208.0,-4096.0,-1792.0
1.2325,-14272.0,-4096.0,-1856.0
1.235,-14336.0,-4160.0,-1920.0
1.2375,-14400.0,-4160.0,-1984.0
1.24,-14464.0,-4160.0,-2048.0
1.2425,-14528.0,-4160.0,-2112.0
1.245,-14592.0,-4160.0,-2176.0
1.2475,-14656.0,-4224.0,-2304.0
1.25,-14656.0,-4288.0,-2368.0
1.2525,-14720.0,-4288.0,-2432.0
1.255,-14720.0,-4352.0,-2560.0
1.2575,-14784.0,-4352.0,-2624.0
1.26,-14848.0,-4288.0,-2688.0
1.2625,-14976.0,-4352.0,-2752.0
1.265,-15040.0,-4288.0,-2880.0
1.2675,-15104.0,-4160.0,-2944.0
1.27,-15104.0,-4160.0,-3008.0
1.2725,-15232.0,-4096.0,-3136.0
1.275,-15296.0,-4032.0,-3200.0
1.2775,-15296.0,-4032.0,-3264.0
1.28,-15424.0,-3968.0,-3264.0
1.2825,-15424.0,-3968.0,-3264.0
1.285,-15424.0,-3904.0,-3520.0
1.2875,-15424.0,-3904.0,-3456.0
1.29,-15424.0,-3840.0,-3584.0
1.2925,-15488.0,-3904.0,-3520.0
1.295,-15488.0,-3904.0,-3648.0
1.2975,-15488.0,-3840.0,-3712.0
1.3,-15488.0,-3904.0,-3840.0
1.3025,-15552.0,-3904.0,-3840.0
1.305,-15488.0,-3840.0,-3968.0
1.3075,-15424.0,-3840.0,-4032.0
1.31,-15488.0,-3840.0,-4032.0
1.3125,-15424.0,-3840.0,-4096.0
1.315,-15360.0,-3776.0,-4160.0
1.3175,-15424.0,-3776.0,-4160.0
1.32,-15424.0,-3712.0,-4288.0
1.3225,-15360.0,-3712.0,-4352.0
1.325,-15360.0,-3712.0,-4352.0
1.3275,-15296.0,-3712.0,-4416.0
1.33,-15360.0,-3712.0,-4416.0
1.3325,-15360.0,-3776.0,-4480.0
1.335,-15424.0,-3776.0,-4480.0
1.3375,-15424.0,-3712.0,-4480.0
1.34,-15488.0,-3648.0,-4544.0
1.3425,-15488.0,-3712.0,-4480.0
1.345,-15552.0,-3712.0,-4608.0
1.3475,-15552.0,-3648.0,-4608.0
1.35,-15552.0,-3648.0,-4544.0
1.3525,-15616.0,-3712.0,-4480.0
1.355,-15616.0,-3712.0,-4480.0
1.3575,-15552.0,-3712.0,-4480.0
1.36,-15616.0,-3584.0,-4480.0
1.3625,-15552.0,-3520.0,-4480.0
1.365,-15616.0,-3520.0,-4480.0
1.3675,-15680.0,-3520.0,-4416.0
1.37,-15616.0,-3520.0,-4416.0
1.3725,-15616.0,-3520.0,-4416.0
1.375,-15616.0,-3520.0,-4352.0
1.3775,-15680.0,-3584.0,-4352.0
1.38,-15680.0,-3648.0,-4288.0
1.3825,-15744.0,-3648.0,-4288.0
1.385,-15744.0,-3648.0,-4352.0
1.3875,-15808.0,-3648.0,-4352.0
1.39,-15872.0,-3712.0,-4288.0
1.3925,-15872.0,-3648.0,-4288.0
1.395,-15872.0,-3712.0,-4288.0
1.3975,-15872.0,-3712.0,-4288.0
1.4,-15936.0,-3776.0,-4288.0
1.4025,-16000.0,-3840.0,-4288.0
1.405,-16064.0,-3840.0,-4352.0
1.4075,-16064.0,-3840.0,-4288.0
1.41,-16064.0,-3840.0,-4352.0
1.4125,-16064.0,-3904.0,-4352.0
1.415,-16064.0,-3840.0,-4288.0
1.4175,-16000.0,-3904.0,-4288.0
1.42,-16064.0,-3904.0,-4224.0
1.4225,-16000.0,-3968.0,-4224.0
1.425,-15936.0,-3904.0,-4224.0
1.4275,-15936.0,-3904.0,-4288.0
1.43,-15936.0,-3904.0,-4288.0
1.4325,-15936.0,-3840.0,-4352.0
1.435,-15936.0,-3840.0,-4352.0
1.4375,-15936.0,-3904.0,-4352.0
1.44,-15872.0,-3904.0,-4352.0
1.4425,-15808.0,-3904.0,-4352.0
1.445,-15872.0,-3968.0,-4288.0
1.4475,-15872.0,-4032.0,-4160.0
1.45,-15936.0,-4096.0,-4160.0
1.4525,-15872.0,-4224.0,-4160.0
1.455,-15808.0,-4288.0,-4160.0
1.4575,-15872.0,-4288.0,-4224.0
1.46,-15936.0,-4288.0,-4096.0
1.4625,-16000.0,-4352.0,-4032.0
1.465,-15936.0,-4352.0,-4096.0
1.4675,-15936.0,-4416.0,-4032.0
1.47,-15936.0,-4416.0,-4032.0
1.4725,-15808.0,-4416.0,-4032.0
1.475,-15872.0,-4480.0,-4032.0
1.4775,-15808.0,-4416.0,-4032.0
1.48,-15808.0,-4416.0,-3968.0
1.4825,-15808.0,-4416.0,-4032.0
1.485,-15744.0,-4416.0,-4032.0
1.4875,-15680.0,-4480.0,-4032.0
1.49,-15744.0,-4480.0,-4096.0
1.4925,-15744.0,-4480.0,-4096.0
1.495,-15680.0,-4480.0,-4032.0
1.4975,-15616.0,-4480.0,-4032.0
1.5,-15552.0,-4480.0,-3968.0
1.5025,-15552.0,-4480.0,-4032.0
1.505,-15552.0,-4480.0,-3968.0
1.5075,-15616.0,-4544.0,-3904.0
1.51,-15616.0,-4608.0,-3904.0
1.5125,-15616.0,-4608.0,-3904.0
1.515,-15552.0,-4672.0,-3840.0
1.5175,-15552.0,-4672.0,-3648.0
1.52,-15552.0,-4736.0,-3520.0
1.5225,-15488.0,-4736.0,-3520.0
1.525,-15488.0,-4736.0,-3520.0
1.5275,-15360.0,-4800.0,-3392.0
1.53,-15360.0,-4800.0,-3328.0
1.5325,-15424.0,-4800.0,-3200.0
1.535,-15360.0,-4800.0,-3008.0
1.5375,-15360.0,-4800.0,-2944.0
1.54,-15296.0,-4864.0,-3008.0
1.5425,-15296.0,-4864.0,-2880.0
1.545,-15296.0,-4864.0,-2816.0
1.5475,-15232.0,-4864.0,-2816.0
1.55,-15232.0,-4864.0,-2816.0
1.5525,-15232.0,-4864.0,-2688.0
1.555,-15232.0,-4864.0,-2752.0
1.5575,-15296.0,-4800.0,-2752.0
1.56,-15232.0,-4800.0,-2816.0
1.5625,-15232.0,-4800.0,-2752.0
1.565,-15232.0,-4800.0,-2816.0
1.5675,-15296.0,-4800.0,-2752.0
1.57,-15360.0,-4800.0,-2816.0
1.5725,-15360.0,-4800.0,-2816.0
1.575,-15488.0,-4864.0,-2880.0
1.5775,-15552.0,-4864.0,-2944.0
1.58,-15616.0,-4800.0,-3008.0
1.5825,-15744.0,-4800.0,-3008.0
1.585,-15936.0,-4864.0,-3008.0
1.5875,-16000.0,-4800.0,-3072.0
1.59,-16064.0,-4800.0,-3072.0
1.5925,-16128.0,-4800.0,-3072.0
1.595,-16128.0,-4736.0,-3072.0
1.5975,-16128.0,-4736.0,-3008.0
1.6,-16192.0,-4736.0,-2816.0
1.6025,-16256.0,-4800.0,-2752.0
1.605,-16256.0,-4864.0,-2688.0
1.6075,-16256.0,-4928.0,-2752.0
1.61,-16384.0,-4928.0,-2688.0
1.6125,-16448.0,-4992.0,-2688.0
1.615,-16512.0,-4928.0,-2688.0
1.6175,-16576.0,-4992.0,-2752.0
1.62,-16640.0,-4992.0,-2752.0
1.6225,-16768.0,-4992.0,-2752.0
1.625,-16768.0,-5056.0,-2688.0
1.6275,-16896.0,-5056.0,-2816.0
1.63,-16960.0,-5120.0,-2752.0
1.6325,-17024.0,-5120.0,-2816.0
1.635,-17088.0,-5056.0,-2816.0
1.6375,-17216.0,-4992.0,-2816.0
1.64,-17280.0,-5056.0,-2816.0
1.6425,-17408.0,-5120.0,-2816.0
1.645,-17408.0,-5056.0,-2752.0
1.6475,-17472.0,-4992.0,-2880.0
1.65,-17536.0,-4992.0,-2880.0
1.6525,-17664.0,-4928.0,-2816.0
1.655,-17664.0,-4928.0,-2752.0
1.6575,-17664.0,-4928.0,-2816.0
1.66,-17664.0,-4864.0,-2752.0
1.6625,-17664.0,-4864.0,-2816.0
1.665,-17664.0,-4864.0,-2816.0
1.6675,-17664.0,-4864.0,-2752.0
1.67,-17664.0,-4864.0,-2816.0
1.6725,-17664.0,-4864.0,-2752.0
1.675,-17600.0,-4928.0,-2688.0
1.6775,-17600.0,-4928.0,-2624.0
1.68,-17600.0,-4928.0,-2624.0
1.6825,-17536.0,-4928.0,-2496.0
1.685,-17472.0,-4928.0,-2496.0
1.6875,-17536.0,-4992.0,-2368.0
1.69,-17472.0,-5056.0,-2304.0
1.6925,-17408.0,-4992.0,-2240.0
1.695,-17344.0,-4992.0,-2240.0
1.6975,-17216.0,-4992.0,-2176.0
1.7,-17152.0,-5056.0,-2048.0
1.7025,-17024.0,-4992.0,-1920.0
1.705,-16896.0,-5056.0,-1920.0
1.7075,-16768.0,-5120.0,-1728.0
1.71,-16704.0,-5120.0,-1664.0
1.7125,-16576.0,-5120.0,-1600.0
1.715,-16512.0,-5184.0,-1536.0
1.7175,-16320.0,-5248.0,-1472.0
1.72,-16192.0,-5184.0,-1344.0
1.7225,-16128.0,-5248.0,-1344.0
1.725,-16064.0,-5312.0,-1216.0
1.7275,-15936.0,-5312.0,-1216.0
1.73,-15872.0,-5248.0,-1152.0
1.7325,-15808.0,-5184.0,-1152.0
1.735,-15680.0,-5248.0,-1088.0
1.7375,-15680.0,-5184.0,-1088.0
1.74,-15680.0,-5248.0,-1088.0
1.7425,-15488.0,-5248.0,-1152.0
1.745,-15424.0,-5248.0,-1152.0
1.7475,-15424.0,-5184.0,-1152.0
1.75,-15424.0,-5184.0,-1088.0
1.7525,-15424.0,-5248.0,-1088.0
1.755,-15360.0,-5184.0,-1088.0
1.7575,-15296.0,-5184.0,-1024.0
1.76,-15296.0,-5120.0,-960.0
1.7625,-15168.0,-5056.0,-960.0
1.765,-15040.0,-4992.0,-960.0
1.7675,-15040.0,-4928.0,-768.0
1.77,-14976.0,-4992.0,-768.0
1.7725,-14976.0,-4928.0,-768.0
1.775,-14912.0,-4864.0,-832.0
1.7775,-14848.0,-4864.0,-768.0
1.78,-14848.0,-4800.0,-704.0
1.7825,-14848.0,-4672.0,-768.0
1.785,-14784.0,-4672.0,-768.0
1.7875,-14848.0,-4608.0,-832.0
1.79,-14848.0,-4480.0,-768.0
1.7925,-14912.0,-4480.0,-768.0
1.795,-14784.0,-4544.0,-704.0
1.7975,-14720.0,-4416.0,-640.0
1.8,-14720.0,-4352.0,-576.0
1.8025,-14784.0,-4352.0,-512.0
1.805,-14784.0,-4416.0,-448.0
1.8075,-14784.0,-4416.0,-384.0
1.81,-14848.0,-4480.0,-320.0
1.8125,-14848.0,-4480.0,-256.0
1.815,-14912.0,-4608.0,-256.0
1.8175,-14976.0,-4672.0,-128.0
1.82,-15104.0,-4672.0,-64.0
1.8225,-15104.0,-4736.0,0.0
1.825,-15168.0,-4800.0,64.0
1.8275,-15168.0,-4928.0,128.0
1.83,-15168.0,-4928.0,128.0
1.8325,-15232.0,-4992.0,320.0
1.835,-15296.0,-5120.0,384.0
1.8375,-15296.0,-5248.0,384.0
1.84,-15424.0,-5248.0,576.0
1.8425,-15360.0,-5312.0,640.0
1.845,-15360.0,-5312.0,640.0
1.8475,-15296.0,-5312.0,512.0
1.85,-15296.0,-5312.0,512.0
1.8525,-15232.0,-5248.0,576.0
1.855,-15232.0,-5248.0,448.0
1.8575,-15104.0,-5184.0,384.0
1.86,-15040.0,-5120.0,320.0
1.8625,-15040.0,-4992.0,320.0
1.865,-14976.0,-4864.0,320.0
1.8675,-14976.0,-4736.0,320.0
1.87,-14976.0,-4544.0,320.0
1.8725,-14976.0,-4416.0,448.0
1.875,-14848.0,-4416.0,512.0
1.8775,-14912.0,-4544.0,640.0
1.88,-14976.0,-4672.0,640.0
1.8825,-15040.0,-4736.0,768.0
1.885,-15104.0,-4864.0,832.0
1.8875,-15232.0,-4928.0,896.0
1.89,-15296.0,-4864.0,1024.0
1.8925,-15296.0,-4800.0,1024.0
1.895,-15360.0,-4736.0,1024.0
1.8975,-15360.0,-4480.0,1088.0
1.9,-15424.0,-4352.0,1088.0
1.9025,-15424.0,-4288.0,1088.0
1.905,-15424.0,-4224.0,1152.0
1.9075,-15424.0,-4224.0,1216.0
1.91,-15424.0,-4224.0,1216.0
1.9125,-15424.0,-4224.0,1280.0
1.915,-15424.0,-4288.0,1280.0
1.9175,-15360.0,-4288.0,1216.0
1.92,-15296.0,-4352.0,1152.0
1.9225,-15296.0,-4352.0,1024.0
1.925,-15360.0,-4416.0,1088.0
1.9275,-15360.0,-4544.0,1088.0
1.93,-15360.0,-4544.0,960.0
1.9325,-15360.0,-4480.0,832.0
1.935,-15296.0,-4480.0,768.0
1.9375,-15296.0,-4416.0,704.0
1.94,-15360.0,-4480.0,768.0
1.9425,-15360.0,-4480.0,704.0
1.945,-15360.0,-4480.0,640.0
1.9475,-15424.0,-4480.0,576.0
1.95,-15360.0,-4480.0,512.0
1.9525,-15360.0,-4480.0,384.0
1.955,-15360.0,-4416.0,384.0
1.9575,-15360.0,-4416.0,320.0
1.96,-15360.0,-4480.0,256.0
1.9625,-15424.0,-4480.0,192.0
1.965,-15488.0,-4416.0,192.0
1.9675,-15488.0,-4480.0,128.0
1.97,-15616.0,-4544.0,64.0
1.9725,-15616.0,-4544.0,64.0
1.975,-15680.0,-4480.0,-64.0
1.9775,-15808.0,-4544.0,-128.0
1.98,-15872.0,-4544.0,-192.0
1.9825,-15936.0,-4608.0,-128.0
1.985,-16000.0,-4608.0,-192.0
1.9875,-16064.0,-4608.0,-256.0
1.99,-16128.0,-4608.0,-320.0
1.9925,-16128.0,-4608.0,-384.0
1.995,-16128.0,-4608.0,-320.0
1.9975,-16128.0,-4608.0,-256.0
2.0,-16256.0,-4672.0,-192.0
2.0025,-16320.0,-4672.0,-256.0
2.005,-16320.0,-4544.0,-256.0
2.0075,-16320.0,-4544.0,-64.0
2.01,-16320.0,-4544.0,-64.0
2.0125,-16384.0,-4544.0,0.0
2.015,-16320.0,-4544.0,0.0
2.0175,-16256.0,-4480.0,-64.0
2.02,-16192.0,-4416.0,-128.0
2.0225,-16192.0,-4416.0,-64.0
2.025,-16064.0,-4416.0,-128.0
2.0275,-16000.0,-4416.0,-192.0
2.03,-15936.0,-4352.0,-192.0
2.0325,-15808.0,-4416.0,-320.0
2.035,-15744.0,-4480.0,-384.0
2.0375,-15808.0,-4480.0,-448.0
2.04,-15744.0,-4480.0,-320.0
2.0425,-15680.0,-4480.0,-448.0
2.045,-15680.0,-4480.0,-448.0
2.0475,-15616.0,-4480.0,-512.0
2.05,-15616.0,-4480.0,-512.0
2.0525,-15616.0,-4480.0,-448.0
2.055,-15616.0,-4480.0,-384.0
2.0575,-15552.0,-4480.0,-384.0
2.06,-15552.0,-4480.0,-384.0
2.0625,-15488.0,-4416.0,-256.0
2.065,-15488.0,-4416.0,-192.0
2.0675,-15424.0,-4416.0,-64.0
2.07,-15360.0,-4416.0,0.0
2.0725,-15296.0,-4416.0,128.0
2.075,-15296.0,-4416.0,128.0
2.0775,-15232.0,-4416.0,256.0
2.08,-15168.0,-4480.0,384.0
2.0825,-15040.0,-4416.0,384.0
2.085,-15040.0,-4416.0,512.0
2.0875,-14848.0,-4352.0,512.0
2.09,-14784.0,-4288.0,512.0
2.0925,-14720.0,-4288.0,448.0
2.095,-14720.0,-4224.0,576.0
2.0975,-14720.0,-4224.0,576.0
2.1,-14592.0,-4160.0,576.0
2.1025,-14592.0,-4096.0,576.0
2.105,-14592.0,-3968.0,576.0
2.1075,-14528.0,-3904.0,512.0
2.11,-14592.0,-3904.0,576.0
2.1125,-14592.0,-3840.0,640.0
2.115,-14656.0,-3776.0,576.0
2.1175,-14656.0,-3776.0,448.0
2.12,-14656.0,-3712.0,384.0
2.1225,-14720.0,-3648.0,320.0
2.125,-14784.0,-3648.0,256.0
2.1275,-14848.0,-3584.0,256.0
2.13,-14912.0,-3648.0,192.0
2.1325,-14976.0,-3648.0,128.0
2.135,-14976.0,-3648.0,64.0
2.1375,-15168.0,-3648.0,128.0
2.14,-15296.0,-3776.0,128.0
2.1425,-15360.0,-3840.0,128.0
2.145,-15424.0,-3840.0,64.0
2.1475,-15616.0,-3904.0,64.0
2.15,-15680.0,-3968.0,-128.0
2.1525,-15808.0,-3968.0,-128.0
2.155,-15936.0,-3904.0,-192.0
2.1575,-16000.0,-3840.0,-128.0
2.16,-16192.0,-3776.0,0.0
2.1625,-16320.0,-3712.0,64.0
2.165,-16384.0,-3712.0,128.0
2.1675,-16448.0,-3776.0,64.0
2.17,-16576.0,-3904.0,128.0
2.1725,-16576.0,-3904.0,128.0
2.175,-16640.0,-4032.0,64.0
2.1775,-16640.0,-4096.0,0.0
2.18,-16768.0,-4224.0,128.0
2.1825,-16832.0,-4288.0,64.0
2.185,-16896.0,-4288.0,128.0
2.1875,-16896.0,-4352.0,128.0
2.19,-16960.0,-4416.0,128.0
2.1925,-16960.0,-4416.0,128.0
2.195,-17024.0,-4416.0,128.0
2.1975,-17024.0,-4480.0,192.0
2.2,-17024.0,-4480.0,192.0
2.2025,-17088.0,-4416.0,192.0
2.205,-17088.0,-4480.0,320.0
2.2075,-17152.0,-4480.0,192.0
2.21,-17216.0,-4416.0,192.0
2.2125,-17216.0,-4352.0,192.0
2.215,-17280.0,-4352.0,192.0
2.2175,-17280.0,-4352.0,192.0
2.22,-17280.0,-4288.0,192.0
2.2225,-17216.0,-4288.0,192.0
2.225,-17152.0,-4352.0,192.0
2.2275,-17088.0,-4288.0,128.0
2.23,-17024.0,-4352.0,192.0
2.2325,-16896.0,-4288.0,192.0
2.235,-16768.0,-4352.0,256.0
2.2375,-16704.0,-4352.0,256.0
2.24,-16448.0,-4352.0,320.0
2.2425,-16256.0,-4352.0,384.0
2.245,-16192.0,-4416.0,320.0
2.2475,-16064.0,-4480.0,448.0
2.25,-16000.0,-4544.0,448.0
2.2525,-15872.0,-4672.0,640.0
2.255,-15808.0,-4608.0,704.0
2.2575,-15744.0,-4672.0,640.0
2.26,-15680.0,-4736.0,768.0
2.2625,-15680.0,-4864.0,896.0
2.265,-15616.0,-4864.0,960.0
2.2675,-15552.0,-4928.0,1088.0
2.27,-15424.0,-4992.0,1216.0
2.2725,-15360.0,-5056.0,1344.0
2.275,-15296.0,-5120.0,1408.0
2.2775,-15104.0,-5184.0,1536.0
2.28,-14976.0,-5312.0,1664.0
2.2825,-14848.0,-5376.0,1728.0
2.285,-14656.0,-5376.0,1920.0
2.2875,-14592.0,-5440.0,2048.0
2.29,-14464.0,-5504.0,2176.0
2.2925,-14336.0,-5504.0,2432.0
2.295,-14208.0,-5568.0,2560.0
2.2975,-14080.0,-5568.0,2688.0
2.3,-13888.0,-5568.0,2624.0
2.3025,-13760.0,-5504.0,2688.0
2.305,-13632.0,-5568.0,2624.0
2.3075,-13504.0,-5568.0,2688.0
2.31,-13312.0,-5632.0,2560.0
2.3125,-13184.0,-5632.0,2496.0
2.315,-13120.0,-5568.0,2432.0
2.3175,-13056.0,-5632.0,2368.0
2.32,-12864.0,-5504.0,2176.0
2.3225,-12800.0,-5568.0,1984.0
2.325,-12800.0,-5504.0,1856.0
2.3275,-12736.0,-5504.0,1728.0
2.33,-12672.0,-5440.0,1664.0
2.3325,-12736.0,-5376.0,1600.0
2.335,-12672.0,-5312.0,1600.0
2.3375,-12672.0,-5312.0,1344.0
2.34,-12672.0,-5312.0,1280.0
2.3425,-12736.0,-5248.0,1280.0
2.345,-12736.0,-5248.0,1024.0
2.3475,-12864.0,-5184.0,960.0
2.35,-12992.0,-5184.0,896.0
2.3525,-13056.0,-5184.0,832.0
2.355,-13184.0,-5184.0,704.0
2.3575,-13248.0,-5248.0,704.0
2.36,-13440.0,-5248.0,704.0
2.3625,-13568.0,-5248.0,640.0
2.365,-13696.0,-5248.0,640.0
2.3675,-13888.0,-5312.0,704.0
2.37,-14080.0,-5312.0,704.0
2.3725,-14144.0,-5312.0,768.0
2.375,-14272.0,-5376.0,832.0
2.3775,-14400.0,-5440.0,768.0
2.38,-14528.0,-5504.0,768.0
2.3825,-14720.0,-5504.0,768.0
2.385,-14912.0,-5568.0,768.0
2.3875,-15040.0,-5568.0,768.0
2.39,-15232.0,-5632.0,896.0
2.3925,-15360.0,-5696.0,1024.0
2.395,-15424.0,-5760.0,1024.0
2.3975,-15616.0,-5824.0,1024.0
2.4,-16000.0,-5888.0,1024.0
2.4025,-16128.0,-5952.0,1024.0
2.405,-16256.0,-5952.0,832.0
2.4075,-16448.0,-6016.0,768.0
2.41,-16640.0,-6080.0,704.0
2.4125,-16832.0,-6144.0,640.0
2.415,-16960.0,-6144.0,512.0
2.4175,-17088.0,-6080.0,448.0
2.42,-17216.0,-6144.0,384.0
2.4225,-17344.0,-6080.0,192.0
2.425,-17408.0,-6144.0,192.0
2.4275,-17536.0,-6208.0,128.0
2.43,-17664.0,-6144.0,-64.0
2.4325,-17728.0,-6208.0,-128.0
2.435,-17984.0,-6208.0,-128.0
2.4375,-18176.0,-6336.0,-64.0
2.44,-18432.0,-6336.0,-64.0
2.4425,-18688.0,-6336.0,-64.0
2.445,-18944.0,-6336.0,0.0
2.4475,-19136.0,-6400.0,64.0
2.45,-19328.0,-6400.0,256.0
2.4525,-19392.0,-6464.0,320.0
2.455,-19328.0,-6400.0,384.0
2.4575,-19200.0,-6400.0,384.0
2.46,-19008.0,-6400.0,512.0
2.4625,-18880.0,-6336.0,576.0
2.465,-18624.0,-6336.0,576.0
2.4675,-18432.0,-6272.0,576.0
2.47,-18176.0,-6272.0,576.0
2.4725,-17920.0,-6272.0,576.0
2.475,-17728.0,-6208.0,512.0
2.4775,-17472.0,-6144.0,448.0
2.48,-17088.0,-5952.0,320.0
2.4825,-16832.0,-5888.0,192.0
2.485,-16576.0,-5760.0,192.0
2.4875,-16384.0,-5696.0,256.0
2.49,-16064.0,-5632.0,192.0
2.4925,-15808.0,-5440.0,64.0
2.495,-15616.0,-5376.0,128.0
2.4975,-15360.0,-5248.0,128.0
2.5,-15168.0,-5120.0,64.0
2.5025,-14912.0,-4992.0,0.0
2.505,-14784.0,-4864.0,0.0
2.5075,-14656.0,-4736.0,64.0
2.51,-14464.0,-4672.0,64.0
2.5125,-14336.0,-4544.0,128.0
2.515,-14272.0,-4544.0,128.0
2.5175,-14144.0,-4480.0,128.0
2.52,-14016.0,-4416.0,192.0
2.5225,-14016.0,-4480.0,320.0
2.525,-13888.0,-4480.0,256.0
2.5275,-13824.0,-4480.0,320.0
2.53,-13760.0,-4416.0,320.0
2.5325,-13696.0,-4480.0,256.0
2.535,-13696.0,-4544.0,256.0
2.5375,-13696.0,-4480.0,192.0
2.54,-13632.0,-4480.0,128.0
2.5425,-13568.0,-4480.0,128.0
2.545,-13504.0,-4480.0,64.0
2.5475,-13504.0,-4480.0,0.0
2.55,-13440.0,-4480.0,-64.0
2.5525,-13440.0,-4480.0,-128.0
2.555,-13440.0,-4416.0,-256.0
2.5575,-13504.0,-4416.0,-384.0
2.56,-13504.0,-4352.0,-512.0
2.5625,-13504.0,-4352.0,-512.0
2.565,-13440.0,-4352.0,-640.0
2.5675,-13504.0,-4288.0,-704.0
2.57,-13568.0,-4288.0,-704.0
2.5725,-13504.0,-4416.0,-704.0
2.575,-13504.0,-4416.0,-896.0
2.5775,-13504.0,-4416.0,-960.0
2.58,-13632.0,-4416.0,-896.0
2.5825,-13632.0,-4416.0,-832.0
2.585,-13632.0,-4544.0,-832.0
2.5875,-13632.0,-4608.0,-896.0
2.59,-13696.0,-4800.0,-832.0
2.5925,-13760.0,-4864.0,-768.0
2.595,-13888.0,-4928.0,-704.0
2.5975,-13952.0,-4992.0,-576.0
2.6,-14080.0,-4992.0,-640.0
2.6025,-14208.0,-5120.0,-640.0
2.605,-14336.0,-5120.0,-768.0
2.6075,-14272.0,-5120.0,-704.0
2.61,-14400.0,-5184.0,-768.0
2.6125,-14528.0,-5184.0,-704.0
2.615,-14528.0,-5184.0,-704.0
2.6175,-14528.0,-5184.0,-768.0
2.62,-14592.0,-5120.0,-704.0
2.6225,-14592.0,-5184.0,-768.0
2.625,-14656.0,-5184.0,-704.0
2.6275,-14656.0,-5120.0,-768.0
2.63,-14784.0,-5120.0,-768.0
2.6325,-14784.0,-5120.0,-768.0
2.635,-14848.0,-5120.0,-768.0
2.6375,-14848.0,-5120.0,-768.0
2.64,-15040.0,-5184.0,-768.0
2.6425,-15040.0,-5184.0,-704.0
2.645,-15168.0,-5248.0,-768.0
2.6475,-15232.0,-5248.0,-576.0
2.65,-15360.0,-5312.0,-512.0
2.6525,-15360.0,-5376.0,-512.0
2.655,-15488.0,-5376.0,-512.0
2.6575,-15552.0,-5376.0,-448.0
2.66,-15680.0,-5312.0,-320.0
2.6625,-15680.0,-5312.0,-320.0
2.665,-15680.0,-5248.0,-256.0
2.6675,-15744.0,-5312.0,-192.0
2.67,-15744.0,-5312.0,-128.0
2.6725,-15744.0,-5312.0,-128.0
2.675,-15744.0,-5248.0,-64.0
2.6775,-15744.0,-5248.0,-64.0
2.68,-15744.0,-5312.0,-64.0
2.6825,-15744.0,-5312.0,-64.0
2.685,-15808.0,-5376.0,-128.0
2.6875,-15872.0,-5312.0,-256.0
2.69,-15808.0,-5312.0,-256.0
2.6925,-15808.0,-5312.0,-256.0
2.695,-15808.0,-5376.0,-448.0
2.6975,-15744.0,-5440.0,-448.0
2.7,-15744.0,-5504.0,-576.0
2.7025,-15616.0,-5440.0,-640.0
2.705,-15552.0,-5504.0,-704.0
2.7075,-15552.0,-5568.0,-832.0
2.71,-15424.0,-5632.0,-832.0
2.7125,-15360.0,-5696.0,-832.0
2.715,-15232.0,-5952.0,-768.0
2.7175,-15104.0,-6080.0,-704.0
2.72,-15104.0,-6464.0,-768.0
2.7225,-15168.0,-6592.0,-832.0
2.725,-15232.0,-6720.0,-896.0
2.7275,-15424.0,-6784.0,-768.0
2.73,-15552.0,-6912.0,-768.0
2.7325,-15744.0,-7040.0,-640.0
2.735,-15808.0,-7040.0,-512.0
2.7375,-15936.0,-6976.0,-384.0
2.74,-16064.0,-6976.0,-320.0
2.7425,-16192.0,-6976.0,-192.0
2.745,-16256.0,-6848.0,-64.0
2.7475,-16320.0,-6784.0,-64.0
2.75,-16384.0,-6720.0,-64.0
2.7525,-16448.0,-6720.0,-128.0
2.755,-16512.0,-6528.0,-256.0
2.7575,-16448.0,-6400.0,-384.0
2.76,-16448.0,-6272.0,-384.0
2.7625,-16320.0,-6080.0,-512.0
2.765,-16256.0,-5952.0,-576.0
2.7675,-16192.0,-5824.0,-576.0
2.77,-16128.0,-5760.0,-704.0
2.7725,-16064.0,-5632.0,-768.0
2.775,-16000.0,-5568.0,-768.0
2.7775,-15936.0,-5440.0,-768.0
2.78,-15872.0,-5376.0,-832.0
2.7825,-15808.0,-5312.0,-768.0
2.785,-15680.0,-5248.0,-768.0
2.7875,-15744.0,-5120.0,-704.0
2.79,-15680.0,-5120.0,-768.0
2.7925,-15616.0,-5056.0,-704.0
2.795,-15616.0,-5056.0,-704.0
2.7975,-15552.0,-4992.0,-704.0
2.8,-15488.0,-5056.0,-640.0
2.8025,-15424.0,-5120.0,-576.0
2.805,-15360.0,-5184.0,-576.0
2.8075,-15360.0,-5248.0,-576.0
2.81,-15424.0,-5312.0,-448.0
2.8125,-15424.0,-5312.0,-320.0
2.815,-15488.0,-5376.0,-256.0
2.8175,-15424.0,-5376.0,-128.0
2.82,-15424.0,-5440.0,-64.0
2.8225,-15488.0,-5312.0,-64.0
2.825,-15488.0,-5312.0,0.0
2.8275,-15552.0,-5248.0,64.0
2.83,-15680.0,-5248.0,128.0
2.8325,-15744.0,-5184.0,128.0
2.835,-15744.0,-5248.0,128.0
2.8375,-15744.0,-5184.0,128.0
2.84,-15744.0,-5184.0,128.0
2.8425,-15808.0,-5248.0,192.0
2.845,-15872.0,-5312.0,256.0
2.8475,-15936.0,-5376.0,320.0
2.85,-15936.0,-5440.0,448.0
2.8525,-16000.0,-5504.0,448.0
2.855,-16000.0,-5632.0,384.0
2.8575,-16064.0,-5696.0,448.0
2.86,-16128.0,-5696.0,512.0
2.8625,-16000.0,-5760.0,448.0
2.865,-16064.0,-5824.0,320.0
2.8675,-16064.0,-5888.0,256.0
2.87,-16128.0,-5952.0,256.0
2.8725,-16064.0,-5952.0,192.0
2.875,-16064.0,-6016.0,128.0
2.8775,-16000.0,-6016.0,64.0
2.88,-16000.0,-6080.0,64.0
2.8825,-15936.0,-6144.0,0.0
2.885,-16000.0,-6080.0,-64.0
2.8875,-16000.0,-6080.0,-128.0
2.89,-16064.0,-6080.0,-192.0
2.8925,-16000.0,-6080.0,-256.0
2.895,-15936.0,-6016.0,-320.0
2.8975,-16000.0,-5952.0,-256.0
2.9,-16064.0,-5888.0,-320.0
2.9025,-16064.0,-5824.0,-320.0
2.905,-16064.0,-5760.0,-384.0
2.9075,-16064.0,-5696.0,-320.0
2.91,-16000.0,-5632.0,-384.0
2.9125,-16000.0,-5568.0,-320.0
2.915,-16000.0,-5504.0,-256.0
2.9175,-16064.0,-5568.0,-256.0
2.92,-16000.0,-5568.0,-128.0
2.9225,-16000.0,-5504.0,0.0
2.925,-16064.0,-5504.0,64.0
2.9275,-16064.0,-5568.0,192.0
2.93,-16064.0,-5504.0,192.0
2.9325,-16064.0,-5568.0,192.0
2.935,-16128.0,-5568.0,128.0
2.9375,-16128.0,-5568.0,128.0
2.94,-16064.0,-5632.0,128.0
2.9425,-16064.0,-5632.0,128.0
2.945,-16000.0,-5632.0,192.0
2.9475,-16064.0,-5696.0,128.0
2.95,-16064.0,-5632.0,64.0
2.9525,-16000.0,-5696.0,64.0
2.955,-15936.0,-5760.0,0.0
2.9575,-15936.0,-5760.0,0.0
2.96,-15872.0,-5760.0,-128.0
2.9625,-15808.0,-5824.0,-256.0
2.965,-15808.0,-5888.0,-256.0
2.9675,-15872.0,-5888.0,-256.0
2.97,-15744.0,-5824.0,-384.0
2.9725,-15744.0,-5888.0,-448.0
2.975,-15744.0,-5952.0,-320.0
2.9775,-15680.0,-5888.0,-320.0
2.98,-15552.0,-5888.0,-448.0
2.9825,-15616.0,-5888.0,-448.0
2.985,-15680.0,-5888.0,-448.0
2.9875,-15616.0,-5888.0,-384.0
2.99,-15488.0,-5888.0,-320.0
2.9925,-15488.0,-5824.0,-384.0
2.995,-15424.0,-5824.0,-320.0
2.9975,-15360.0,-5824.0,-320.0
3.0,-15424.0,-5760.0,-320.0
3.0025,-15296.0,-5824.0,-320.0
3.005,-15296.0,-5760.0,-256.0
3.0075,-15296.0,-5760.0,-256.0
3.01,-15232.0,-5760.0,-192.0
3.0125,-15168.0,-5696.0,-192.0
3.015,-15168.0,-5696.0,-192.0
3.0175,-15168.0,-5696.0,-192.0
3.02,-15232.0,-5760.0,-128.0
3.0225,-15104.0,-5824.0,-64.0
3.025,-15104.0,-5824.0,0.0
3.0275,-15104.0,-5824.0,64.0
3.03,-15040.0,-5824.0,192.0
3.0325,-15040.0,-5952.0,256.0
3.035,-15104.0,-5952.0,256.0
3.0375,-15104.0,-5952.0,256.0
3.04,-15040.0,-6016.0,448.0
3.0425,-14976.0,-6080.0,384.0
3.045,-14912.0,-6080.0,192.0
3.0475,-14912.0,-6080.0,192.0
3.05,-14976.0,-6080.0,192.0
3.0525,-14912.0,-6080.0,128.0
3.055,-14912.0,-6080.0,-64.0
3.0575,-14848.0,-6016.0,-128.0
3.06,-14912.0,-6080.0,-128.0
3.0625,-14912.0,-6080.0,-192.0
3.065,-14912.0,-6016.0,-192.0
3.0675,-14912.0,-6016.0,-320.0
3.07,-14912.0,-5952.0,-320.0
3.0725,-14912.0,-5952.0,-384.0
3.075,-14912.0,-5952.0,-384.0
3.0775,-14912.0,-5952.0,-384.0
3.08,-14848.0,-5952.0,-384.0
3.0825,-14912.0,-5888.0,-448.0
3.085,-14912.0,-5888.0,-448.0
3.0875,-14976.0,-5888.0,-448.0
3.09,-15040.0,-5824.0,-320.0
3.0925,-15040.0,-5824.0,-192.0
3.095,-15104.0,-5888.0,-192.0
3.0975,-15168.0,-5888.0,-192.0
3.1,-15232.0,-5952.0,-128.0
3.1025,-15168.0,-6016.0,-64.0
3.105,-15232.0,-5952.0,64.0
3.1075,-15232.0,-6016.0,128.0
3.11,-15296.0,-6016.0,128.0
3.1125,-15360.0,-5952.0,0.0
3.115,-15296.0,-5888.0,0.0
3.1175,-15296.0,-5824.0,64.0
3.12,-15232.0,-5888.0,-64.0
3.1225,-15296.0,-5952.0,-128.0
3.125,-15296.0,-5952.0,-192.0
3.1275,-15296.0,-5952.0,-320.0
3.13,-15296.0,-5952.0,-384.0
3.1325,-15360.0,-6016.0,-448.0
3.135,-15360.0,-5952.0,-512.0
3.1375,-15424.0,-5952.0,-576.0
3.14,-15424.0,-6016.0,-576.0
3.1425,-15360.0,-5952.0,-640.0
3.145,-15360.0,-6016.0,-512.0
3.1475,-15360.0,-5952.0,-512.0
3.15,-15296.0,-5952.0,-512.0
3.1525,-15296.0,-5952.0,-384.0
3.155,-15360.0,-6016.0,-384.0
3.1575,-15360.0,-6080.0,-384.0
3.16,-15360.0,-6080.0,-384.0
3.1625,-15296.0,-6080.0,-384.0
3.165,-15296.0,-6144.0,-320.0
3.1675,-15296.0,-6144.0,-320.0
3.17,-15296.0,-6016.0,-320.0
3.1725,-15232.0,-6080.0,-256.0
3.175,-15296.0,-6144.0,-256.0
3.1775,-15296.0,-6016.0,-384.0
3.18,-15296.0,-5952.0,-320.0
3.1825,-15296.0,-5952.0,-320.0
3.185,-15296.0,-5952.0,-256.0
3.1875,-15296.0,-5824.0,-320.0
3.19,-15232.0,-5760.0,-320.0
3.1925,-15296.0,-5760.0,-320.0
3.195,-15296.0,-5632.0,-320.0
3.1975,-15232.0,-5632.0,-320.0
3.2,-15296.0,-5632.0,-256.0
3.2025,-15232.0,-5632.0,-320.0
3.205,-15168.0,-5696.0,-384.0
3.2075,-15232.0,-5696.0,-256.0
3.21,-15232.0,-5760.0,-256.0
3.2125,-15168.0,-5696.0,-256.0
3.215,-15168.0,-5760.0,-320.0
3.2175,-15104.0,-5824.0,-192.0
3.22,-15104.0,-5696.0,-192.0
3.2225,-15104.0,-5696.0,-320.0
3.225,-15104.0,-5696.0,-320.0
3.2275,-15104.0,-5696.0,-384.0
3.23,-15104.0,-5696.0,-320.0
3.2325,-15104.0,-5696.0,-384.0
3.235,-15104.0,-5760.0,-448.0
3.2375,-15168.0,-5632.0,-384.0
3.24,-15040.0,-5632.0,-448.0
3.2425,-15040.0,-5632.0,-384.0
3.245,-14976.0,-5632.0,-384.0
3.2475,-15040.0,-5568.0,-384.0
3.25,-15040.0,-5568.0,-384.0
3.2525,-14976.0,-5568.0,-448.0
3.255,-14976.0,-5504.0,-448.0
3.2575,-15040.0,-5568.0,-512.0
3.26,-14976.0,-5568.0,-448.0
3.2625,-14976.0,-5568.0,-512.0
3.265,-15040.0,-5568.0,-512.0
3.2675,-15040.0,-5632.0,-512.0
3.27,-15040.0,-5632.0,-448.0
3.2725,-15040.0,-5696.0,-384.0
3.275,-15104.0,-5760.0,-320.0
3.2775,-15104.0,-5760.0,-256.0
3.28,-15168.0,-5952.0,-128.0
3.2825,-15168.0,-5952.0,0.0
3.285,-15168.0,-6016.0,-64.0
3.2875,-15232.0,-5952.0,-128.0
3.29,-15296.0,-5952.0,-64.0
3.2925,-15360.0,-5952.0,-128.0
3.295,-15296.0,-5952.0,-256.0
3.2975,-15296.0,-5952.0,-192.0
3.3,-15424.0,-6016.0,-192.0
3.3025,-15360.0,-6016.0,-256.0
3.305,-15424.0,-6016.0,-192.0
3.3075,-15424.0,-5952.0,-256.0
3.31,-15424.0,-5952.0,-384.0
3.3125,-15360.0,-5952.0,-384.0
3.315,-15360.0,-5952.0,-448.0
3.3175,-15360.0,-5888.0,-576.0
3.32,-15424.0,-5952.0,-576.0
3.3225,-15360.0,-5952.0,-576.0
3.325,-15360.0,-5888.0,-576.0
3.3275,-15296.0,-5952.0,-576.0
3.33,-15360.0,-5888.0,-576.0
3.3325,-15296.0,-5952.0,-576.0
3.335,-15360.0,-5952.0,-576.0
3.3375,-15360.0,-5952.0,-512.0
3.34,-15360.0,-5952.0,-512.0
3.3425,-15360.0,-5952.0,-576.0
3.345,-15424.0,-6016.0,-512.0
3.3475,-15424.0,-6016.0,-448.0
3.35,-15424.0,-6016.0,-384.0
3.3525,-15488.0,-6016.0,-320.0
3.355,-15424.0,-6016.0,-192.0
3.3575,-15488.0,-6016.0,-128.0
3.36,-15488.0,-6016.0,-128.0
3.3625,-15488.0,-6080.0,64.0
3.365,-15552.0,-6144.0,128.0
3.3675,-15424.0,-6080.0,128.0
3.37,-15488.0,-6144.0,64.0
3.3725,-15552.0,-6208.0,128.0
3.375,-15552.0,-6144.0,128.0
3.3775,-15616.0,-6144.0,128.0
3.38,-15616.0,-6080.0,128.0
3.3825,-15552.0,-6080.0,64.0
3.385,-15552.0,-6080.0,0.0
3.3875,-15552.0,-6080.0,-64.0
3.39,-15552.0,-6080.0,-64.0
3.3925,-15488.0,-5952.0,-192.0
3.395,-15488.0,-5952.0,-256.0
3.3975,-15488.0,-5952.0,-256.0
3.4,-15424.0,-5888.0,-320.0
3.4025,-15424.0,-5952.0,-384.0
3.405,-15488.0,-5952.0,-448.0
3.4075,-15488.0,-5888.0,-448.0
3.41,-15552.0,-5888.0,-448.0
3.4125,-15488.0,-5888.0,-384.0
3.415,-15424.0,-5888.0,-320.0
3.4175,-15424.0,-5888.0,-320.0
3.42,-15424.0,-5824.0,-320.0
3.4225,-15424.0,-5888.0,-256.0
3.425,-15424.0,-5888.0,-192.0
3.4275,-15424.0,-5888.0,-64.0
3.43,-15424.0,-5952.0,0.0
3.4325,-15360.0,-6016.0,0.0
3.435,-15360.0,-5952.0,0.0
3.4375,-15424.0,-5952.0,0.0
3.44,-15488.0,-5952.0,-64.0
3.4425,-15488.0,-5952.0,-64.0
3.445,-15488.0,-5888.0,-128.0
3.4475,-15424.0,-5952.0,-192.0
3.45,-15488.0,-5888.0,-64.0
3.4525,-15424.0,-5824.0,-192.0
3.455,-15360.0,-5824.0,-256.0
3.4575,-15424.0,-5760.0,-256.0
3.46,-15424.0,-5760.0,-320.0
3.4625,-15360.0,-5696.0,-384.0
3.465,-15424.0,-5696.0,-448.0
3.4675,-15296.0,-5632.0,-384.0
3.47,-15296.0,-5632.0,-384.0
3.4725,-15296.0,-5568.0,-384.0
3.475,-15232.0,-5568.0,-384.0
3.4775,-15232.0,-5632.0,-384.0
3.48,-15168.0,-5632.0,-320.0
3.4825,-15232.0,-5696.0,-256.0
3.485,-15232.0,-5760.0,-256.0
3.4875,-15232.0,-5824.0,-192.0
3.49,-15168.0,-5888.0,-192.0
3.4925,-15232.0,-5888.0,-192.0
3.495,-15232.0,-5888.0,-128.0
3.4975,-15296.0,-5952.0,-64.0
3.5,-15296.0,-5952.0,-64.0
3.5025,-15296.0,-5952.0,-64.0
3.505,-15232.0,-5888.0,0.0
3.5075,-15232.0,-5824.0,-64.0
3.51,-15232.0,-5824.0,-64.0
3.5125,-15296.0,-5824.0,0.0
3.515,-15360.0,-5760.0,0.0
3.5175,-15424.0,-5696.0,-64.0
3.52,-15488.0,-5632.0,-128.0
3.5225,-15488.0,-5632.0,-128.0
3.525,-15488.0,-5568.0,-320.0
3.5275,-15552.0,-5568.0,-256.0
3.53,-15552.0,-5632.0,-256.0
3.5325,-15616.0,-5568.0,-320.0
3.535,-15552.0,-5504.0,-384.0
3.5375,-15616.0,-5632.0,-384.0
3.54,-15616.0,-5504.0,-448.0
3.5425,-15616.0,-5568.0,-384.0
3.545,-15616.0,-5568.0,-448.0
3.5475,-15616.0,-5568.0,-384.0
3.55,-15616.0,-5568.0,-448.0
3.5525,-15616.0,-5568.0,-512.0
3.555,-15616.0,-5568.0,-448.0
3.5575,-15616.0,-5568.0,-512.0
3.56,-15552.0,-5568.0,-448.0
3.5625,-15552.0,-5632.0,-384.0
3.565,-15616.0,-5632.0,-384.0
3.5675,-15616.0,-5696.0,-384.0
3.57,-15616.0,-5632.0,-448.0
3.5725,-15616.0,-5632.0,-384.0
3.575,-15616.0,-5632.0,-320.0
3.5775,-15552.0,-5696.0,-320.0
3.58,-15616.0,-5760.0,-320.0
3.5825,-15616.0,-5824.0,-320.0
3.585,-15616.0,-5824.0,-320.0
3.5875,-15680.0,-5888.0,-320.0
3.59,-15616.0,-5888.0,-256.0
3.5925,-15680.0,-5888.0,-256.0
3.595,-15680.0,-5888.0,-192.0
3.5975,-15616.0,-5888.0,-256.0
3.6,-15552.0,-5952.0,-320.0
3.6025,-15616.0,-6016.0,-320.0
3.605,-15616.0,-5952.0,-320.0
3.6075,-15552.0,-6080.0,-384.0
3.61,-15552.0,-5952.0,-448.0
3.6125,-15488.0,-6016.0,-448.0
3.615,-15488.0,-5952.0,-448.0
3.6175,-15488.0,-5888.0,-448.0
3.62,-15360.0,-5888.0,-512.0
3.6225,-15360.0,-5888.0,-512.0
3.625,-15296.0,-5888.0,-512.0
3.6275,-15296.0,-5888.0,-576.0
3.63,-15296.0,-5888.0,-512.0
3.6325,-15232.0,-5888.0,-512.0
3.635,-15296.0,-5888.0,-512.0
3.6375,-15232.0,-5888.0,-448.0
3.64,-15296.0,-5888.0,-448.0
3.6425,-15296.0,-5888.0,-448.0
3.645,-15296.0,-5888.0,-384.0
3.6475,-15232.0,-5888.0,-320.0
3.65,-15232.0,-5888.0,-320.0
3.6525,-15296.0,-5888.0,-256.0
3.655,-15232.0,-5952.0,-256.0
3.6575,-15296.0,-6016.0,-256.0
3.66,-15232.0,-5952.0,-192.0
3.6625,-15232.0,-5952.0,-192.0
3.665,-15232.0,-5952.0,-192.0
3.6675,-15168.0,-5952.0,-192.0
3.67,-15232.0,-5952.0,-256.0
3.6725,-15232.0,-5952.0,-192.0
3.675,-15232.0,-5952.0,-192.0
3.6775,-15232.0,-5952.0,-256.0
3.68,-15232.0,-5952.0,-384.0
3.6825,-15232.0,-5888.0,-384.0
3.685,-15168.0,-5824.0,-448.0
3.6875,-15168.0,-5888.0,-512.0
3.69,-15232.0,-5888.0,-448.0
3.6925,-15168.0,-5888.0,-448.0
3.695,-15104.0,-5824.0,-576.0
3.6975,-15040.0,-5824.0,-512.0
3.7,-15168.0,-5824.0,-448.0
3.7025,-15040.0,-5824.0,-512.0
3.705,-15040.0,-5824.0,-512.0
3.7075,-15104.0,-5824.0,-512.0
3.71,-15104.0,-5824.0,-576.0
3.7125,-15104.0,-5760.0,-576.0
3.715,-15040.0,-5760.0,-512.0
3.7175,-15104.0,-5696.0,-512.0
3.72,-15104.0,-5760.0,-512.0
3.7225,-15040.0,-5760.0,-512.0
3.725,-15104.0,-5760.0,-512.0
3.7275,-15104.0,-5824.0,-512.0
3.73,-15104.0,-5824.0,-448.0
3.7325,-15040.0,-5824.0,-448.0
3.735,-15104.0,-5824.0,-384.0
3.7375,-15104.0,-5824.0,-384.0
3.74,-15104.0,-5824.0,-320.0
3.7425,-15104.0,-5760.0,-320.0
3.745,-15168.0,-5760.0,-384.0
3.7475,-15168.0,-5824.0,-384.0
3.75,-15232.0,-5824.0,-256.0
3.7525,-15232.0,-5824.0,-320.0
3.755,-15232.0,-5760.0,-320.0
3.7575,-15232.0,-5824.0,-384.0
3.76,-15232.0,-5824.0,-384.0
3.7625,-15296.0,-5824.0,-384.0
3.765,-15360.0,-5760.0,-384.0
3.7675,-15296.0,-5696.0,-448.0
3.77,-15296.0,-5696.0,-384.0
3.7725,-15296.0,-5696.0,-384.0
3.775,-15296.0,-5760.0,-512.0
3.7775,-15296.0,-5696.0,-576.0
3.78,-15296.0,-5632.0,-640.0
3.7825,-15296.0,-5632.0,-640.0
3.785,-15296.0,-5632.0,-576.0
3.7875,-15232.0,-5568.0,-512.0
3.79,-15296.0,-5696.0,-576.0
3.7925,-15296.0,-5696.0,-512.0
3.795,-15296.0,-5696.0,-448.0
3.7975,-15296.0,-5696.0,-448.0
3.8,-15296.0,-5696.0,-512.0
3.8025,-15360.0,-5760.0,-448.0
3.805,-15424.0,-5696.0,-448.0
3.8075,-15360.0,-5696.0,-512.0
3.81,-15424.0,-5632.0,-448.0
3.8125,-15360.0,-5632.0,-384.0
3.815,-15424.0,-5632.0,-384.0
3.8175,-15424.0,-5632.0,-448.0
3.82,-15424.0,-5696.0,-384.0
3.8225,-15424.0,-5696.0,-384.0
3.825,-15488.0,-5696.0,-320.0
3.8275,-15424.0,-5632.0,-320.0
3.83,-15488.0,-5632.0,-320.0
3.8325,-15552.0,-5632.0,-384.0
3.835,-15616.0,-5696.0,-384.0
3.8375,-15616.0,-5696.0,-448.0
3.84,-15552.0,-5696.0,-512.0
3.8425,-15488.0,-5760.0,-512.0
3.845,-15488.0,-5696.0,-512.0
3.8475,-15552.0,-5632.0,-384.0
3.85,-15488.0,-5696.0,-512.0
3.8525,-15488.0,-5696.0,-512.0
3.855,-15488.0,-5696.0,-640.0
3.8575,-15488.0,-5696.0,-576.0
3.86,-15552.0,-5696.0,-448.0
3.8625,-15552.0,-5632.0,-512.0
3.865,-15488.0,-5632.0,-512.0
3.8675,-15488.0,-5632.0,-576.0
3.87,-15488.0,-5568.0,-576.0
3.8725,-15488.0,-5568.0,-512.0
3.875,-15488.0,-5568.0,-576.0
3.8775,-15552.0,-5568.0,-448.0
3.88,-15552.0,-5504.0,-448.0
3.8825,-15616.0,-5504.0,-384.0
3.885,-15552.0,-5504.0,-384.0
3.8875,-15552.0,-5504.0,-448.0
3.89,-15616.0,-5504.0,-320.0
3.8925,-15552.0,-5440.0,-320.0
3.895,-15488.0,-5504.0,-320.0
3.8975,-15488.0,-5504.0,-256.0
3.9,-15488.0,-5504.0,-256.0
3.9025,-15424.0,-5504.0,-192.0
3.905,-15488.0,-5504.0,-192.0
3.9075,-15488.0,-5568.0,-192.0
3.91,-15488.0,-5568.0,-192.0
3.9125,-15488.0,-5504.0,-192.0
3.915,-15488.0,-5504.0,-192.0
3.9175,-15424.0,-5568.0,-192.0
3.92,-15488.0,-5504.0,-128.0
3.9225,-15488.0,-5504.0,-128.0
3.925,-15488.0,-5504.0,-256.0
3.9275,-15488.0,-5568.0,-320.0
3.93,-15424.0,-5504.0,-256.0
3.9325,-15488.0,-5568.0,-192.0
3.935,-15488.0,-5568.0,-192.0
3.9375,-15488.0,-5632.0,-256.0
3.94,-15424.0,-5632.0,-384.0
3.9425,-15552.0,-5632.0,-384.0
3.945,-15488.0,-5632.0,-384.0
3.9475,-15552.0,-5632.0,-320.0
3.95,-15488.0,-5568.0,-320.0
3.9525,-15488.0,-5568.0,-384.0
3.955,-15488.0,-5632.0,-384.0
3.9575,-15488.0,-5632.0,-384.0
3.96,-15424.0,-5632.0,-384.0
3.9625,-15424.0,-5632.0,-448.0
3.965,-15488.0,-5632.0,-320.0
3.9675,-15488.0,-5632.0,-320.0
3.97,-15488.0,-5632.0,-320.0
3.9725,-15488.0,-5632.0,-256.0
3.975,-15424.0,-5632.0,-256.0
3.9775,-15424.0,-5632.0,-192.0
3.98,-15360.0,-5632.0,-128.0
3.9825,-15360.0,-5632.0,-128.0
3.985,-15296.0,-5632.0,-128.0
3.9875,-15360.0,-5632.0,-64.0
3.99,-15360.0,-5632.0,0.0
3.9925,-15360.0,-5696.0,0.0
3.995,-15360.0,-5632.0,-64.0
3.9975,-15296.0,-5632.0,-64.0
4.0,-15360.0,-5632.0,-64.0
4.0025,-15360.0,-5696.0,0.0
4.005,-15296.0,-5696.0,0.0
4.0075,-15232.0,-5696.0,0.0
4.01,-15296.0,-5760.0,64.0
4.0125,-15424.0,-5824.0,64.0
4.015,-15424.0,-5824.0,0.0
4.0175,-15360.0,-5824.0,-64.0
4.02,-15360.0,-5760.0,-128.0
4.0225,-15424.0,-5760.0,-64.0
4.025,-15488.0,-5760.0,-128.0
4.0275,-15424.0,-5760.0,-128.0
4.03,-15360.0,-5760.0,-192.0
4.0325,-15360.0,-5696.0,-192.0
4.035,-15360.0,-5696.0,-256.0
4.0375,-15360.0,-5760.0,-256.0
4.04,-15296.0,-5696.0,-256.0
4.0425,-15296.0,-5632.0,-192.0
4.045,-15296.0,-5632.0,-192.0
4.0475,-15296.0,-5696.0,-256.0
4.05,-15296.0,-5760.0,-256.0
4.0525,-15296.0,-5760.0,-320.0
4.055,-15296.0,-5760.0,-256.0
4.0575,-15296.0,-5760.0,-320.0
4.06,-15232.0,-5760.0,-320.0
4.0625,-15232.0,-5696.0,-256.0
4.065,-15232.0,-5696.0,-192.0
4.0675,-15296.0,-5632.0,-128.0
4.07,-15232.0,-5760.0,-128.0
4.0725,-15296.0,-5760.0,-128.0
4.075,-15232.0,-5760.0,-128.0
4.0775,-15296.0,-5760.0,-64.0
4.08,-15296.0,-5824.0,0.0
4.0825,-15296.0,-5760.0,0.0
4.085,-15232.0,-5696.0,0.0
4.0875,-15232.0,-5760.0,0.0
4.09,-15232.0,-5760.0,0.0
4.0925,-15232.0,-5760.0,64.0
4.095,-15296.0,-5760.0,64.0
4.0975,-15232.0,-5888.0,0.0
4.1,-15232.0,-5760.0,-64.0
4.1025,-15296.0,-5824.0,-64.0
4.105,-15296.0,-5824.0,-128.0
4.1075,-15296.0,-5760.0,-192.0
4.11,-15296.0,-5760.0,-192.0
4.1125,-15296.0,-5824.0,-192.0
4.115,-15296.0,-5824.0,-320.0
4.1175,-15360.0,-5824.0,-320.0
4.12,-15360.0,-5760.0,-320.0
4.1225,-15424.0,-5760.0,-320.0
4.125,-15424.0,-5696.0,-256.0
4.1275,-15360.0,-5760.0,-256.0
4.13,-15360.0,-5760.0,-256.0
4.1325,-15360.0,-5760.0,-192.0
4.135,-15360.0,-5824.0,-192.0
4.1375,-15424.0,-5760.0,-256.0
4.14,-15424.0,-5760.0,-192.0
4.1425,-15488.0,-5824.0,-256.0
4.145,-15424.0,-5760.0,-256.0
4.1475,-15424.0,-5696.0,-256.0
4.15,-15488.0,-5760.0,-128.0
4.1525,-15552.0,-5760.0,-128.0
4.155,-15488.0,-5760.0,-256.0
4.1575,-15616.0,-5760.0,-192.0
4.16,-15616.0,-5760.0,-192.0
4.1625,-15552.0,-5696.0,-256.0
4.165,-15616.0,-5760.0,-320.0
4.1675,-15616.0,-5760.0,-256.0
4.17,-15552.0,-5760.0,-256.0
4.1725,-15552.0,-5696.0,-192.0
4.175,-15552.0,-5696.0,-192.0
4.1775,-15552.0,-5760.0,-128.0
4.18,-15488.0,-5696.0,-192.0
4.1825,-15424.0,-5696.0,-256.0
4.185,-15488.0,-5824.0,-256.0
4.1875,-15424.0,-5824.0,-256.0
4.19,-15424.0,-5824.0,-320.0
4.1925,-15424.0,-5888.0,-256.0
4.195,-15424.0,-5824.0,-384.0
4.1975,-15424.0,-5888.0,-384.0
4.2,-15360.0,-5824.0,-384.0
4.2025,-15360.0,-5888.0,-448.0
4.205,-15424.0,-5824.0,-384.0
4.2075,-15360.0,-5888.0,-448.0
4.21,-15360.0,-5888.0,-512.0
4.2125,-15360.0,-5824.0,-448.0
4.215,-15360.0,-5824.0,-512.0
4.2175,-15296.0,-5760.0,-576.0
4.22,-15296.0,-5696.0,-576.0
4.2225,-15232.0,-5760.0,-576.0
4.225,-15360.0,-5760.0,-704.0
4.2275,-15360.0,-5696.0,-640.0
4.23,-15424.0,-5696.0,-640.0
4.2325,-15424.0,-5696.0,-640.0
4.235,-15424.0,-5696.0,-576.0
4.2375,-15488.0,-5696.0,-640.0
4.24,-15488.0,-5696.0,-512.0
4.2425,-15488.0,-5696.0,-448.0
4.245,-15488.0,-5632.0,-448.0
4.2475,-15488.0,-5696.0,-448.0
4.25,-15488.0,-5696.0,-384.0
4.2525,-15488.0,-5696.0,-448.0
4.255,-15488.0,-5696.0,-512.0
4.2575,-15552.0,-5696.0,-384.0
4.26,-15488.0,-5632.0,-448.0
4.2625,-15552.0,-5696.0,-448.0
4.265,-15552.0,-5760.0,-384.0
4.2675,-15552.0,-5760.0,-320.0
4.27,-15616.0,-5760.0,-384.0
4.2725,-15616.0,-5760.0,-384.0
4.275,-15552.0,-5760.0,-448.0
4.2775,-15552.0,-5696.0,-448.0
4.28,-15552.0,-5760.0,-448.0
4.2825,-15616.0,-5696.0,-512.0
4.285,-15616.0,-5760.0,-576.0
4.2875,-15552.0,-5760.0,-640.0
4.29,-15616.0,-5824.0,-704.0
4.2925,-15616.0,-5824.0,-640.0
4.295,-15552.0,-5824.0,-640.0
4.2975,-15552.0,-5824.0,-704.0
4.3,-15488.0,-5760.0,-768.0
4.3025,-15552.0,-5824.0,-704.0
4.305,-15424.0,-5760.0,-704.0
4.3075,-15424.0,-5696.0,-640.0
4.31,-15424.0,-5760.0,-768.0
4.3125,-15360.0,-5696.0,-896.0
4.315,-15360.0,-5760.0,-832.0
4.3175,-15232.0,-5696.0,-832.0
4.32,-15232.0,-5696.0,-768.0
4.3225,-15232.0,-5696.0,-704.0
4.325,-15168.0,-5632.0,-768.0
4.3275,-15104.0,-5632.0,-704.0
4.33,-15104.0,-5696.0,-640.0
4.3325,-15040.0,-5632.0,-768.0
4.335,-15104.0,-5632.0,-768.0
4.3375,-15104.0,-5632.0,-768.0
4.34,-15104.0,-5568.0,-768.0
4.3425,-15104.0,-5568.0,-704.0
4.345,-15040.0,-5632.0,-704.0
4.3475,-15040.0,-5568.0,-704.0
4.35,-15104.0,-5568.0,-704.0
4.3525,-15040.0,-5504.0,-704.0
4.355,-15040.0,-5504.0,-704.0
4.3575,-14976.0,-5440.0,-768.0
4.36,-14976.0,-5504.0,-832.0
4.3625,-14976.0,-5504.0,-896.0
4.365,-14976.0,-5504.0,-896.0
4.3675,-15104.0,-5568.0,-896.0
4.37,-15104.0,-5568.0,-896.0
4.3725,-15104.0,-5632.0,-832.0
4.375,-15232.0,-5696.0,-832.0
4.3775,-15232.0,-5696.0,-896.0
4.38,-15296.0,-5760.0,-896.0
4.3825,-15296.0,-5760.0,-832.0
4.385,-15296.0,-5760.0,-960.0
4.3875,-15296.0,-5696.0,-960.0
4.39,-15360.0,-5760.0,-832.0
4.3925,-15424.0,-5824.0,-832.0
4.395,-15360.0,-5760.0,-832.0
4.3975,-15488.0,-5888.0,-896.0
4.4,-15552.0,-5952.0,-832.0
4.4025,-15488.0,-6016.0,-832.0
4.405,-15552.0,-5888.0,-832.0
4.4075,-15552.0,-5952.0,-832.0
4.41,-15552.0,-5952.0,-832.0
4.4125,-15616.0,-5952.0,-832.0
4.415,-15616.0,-5952.0,-896.0
4.4175,-15552.0,-5952.0,-896.0
4.42,-15552.0,-5952.0,-896.0
4.4225,-15552.0,-5952.0,-768.0
4.425,-15488.0,-5952.0,-832.0
4.4275,-15488.0,-5952.0,-768.0
4.43,-15488.0,-5952.0,-768.0
4.4325,-15424.0,-5888.0,-768.0
4.435,-15424.0,-5888.0,-768.0
4.4375,-15424.0,-5888.0,-704.0
4.44,-15424.0,-5952.0,-704.0
4.4425,-15488.0,-5952.0,-768.0
4.445,-15424.0,-5888.0,-704.0
4.4475,-15360.0,-5888.0,-640.0
4.45,-15360.0,-5824.0,-576.0
4.4525,-15360.0,-5824.0,-576.0
4.455,-15424.0,-5760.0,-640.0
4.4575,-15360.0,-5696.0,-640.0
4.46,-15360.0,-5696.0,-704.0
4.4625,-15360.0,-5696.0,-704.0
4.465,-15360.0,-5760.0,-640.0
4.4675,-15360.0,-5696.0,-512.0
4.47,-15424.0,-5760.0,-576.0
4.4725,-15424.0,-5760.0,-512.0
4.475,-15424.0,-5760.0,-448.0
4.4775,-15424.0,-5696.0,-448.0
4.48,-15424.0,-5696.0,-320.0
4.4825,-15552.0,-5696.0,-320.0
4.485,-15552.0,-5760.0,-320.0
4.4875,-15552.0,-5760.0,-320.0
4.49,-15488.0,-5696.0,-384.0
4.4925,-15488.0,-5760.0,-320.0
4.495,-15488.0,-5760.0,-256.0
4.4975,-15488.0,-5696.0,-256.0
4.5,-15488.0,-5696.0,-320.0
4.5025,-15488.0,-5632.0,-384.0
4.505,-15488.0,-5568.0,-256.0
4.5075,-15488.0,-5568.0,-192.0
4.51,-15488.0,-5632.0,-256.0
4.5125,-15488.0,-5632.0,-256.0
4.515,-15424.0,-5504.0,-256.0
4.5175,-15424.0,-5632.0,-256.0
4.52,-15424.0,-5632.0,-256.0
4.5225,-15424.0,-5632.0,-256.0
4.525,-15424.0,-5568.0,-320.0
4.5275,-15424.0,-5568.0,-320.0
4.53,-15360.0,-5568.0,-256.0
4.5325,-15360.0,-5504.0,-256.0
4.535,-15360.0,-5568.0,-192.0
4.5375,-15360.0,-5568.0,-128.0
4.54,-15360.0,-5568.0,-128.0
4.5425,-15360.0,-5504.0,-128.0
4.545,-15360.0,-5504.0,-64.0
4.5475,-15360.0,-5504.0,-64.0
4.55,-15424.0,-5504.0,0.0
4.5525,-15424.0,-5568.0,-64.0
4.555,-15360.0,-5568.0,-64.0
4.5575,-15424.0,-5568.0,0.0
4.56,-15424.0,-5632.0,-64.0
4.5625,-15424.0,-5632.0,-64.0
4.565,-15360.0,-5632.0,-64.0
4.5675,-15424.0,-5632.0,-64.0
4.57,-15424.0,-5632.0,0.0
4.5725,-15424.0,-5696.0,-64.0
4.575,-15424.0,-5696.0,0.0
4.5775,-15424.0,-5760.0,0.0
4.58,-15488.0,-5696.0,64.0
4.5825,-15424.0,-5696.0,-64.0
4.585,-15424.0,-5696.0,-64.0
4.5875,-15424.0,-5696.0,-64.0
4.59,-15424.0,-5696.0,-128.0
4.5925,-15424.0,-5696.0,-128.0
4.595,-15424.0,-5696.0,-64.0
4.5975,-15360.0,-5760.0,-64.0
4.6,-15360.0,-5760.0,-128.0
4.6025,-15360.0,-5760.0,-128.0
4.605,-15296.0,-5760.0,-64.0
4.6075,-15296.0,-5760.0,-128.0
4.61,-15296.0,-5824.0,-64.0
4.6125,-15232.0,-5824.0,-128.0
4.615,-15168.0,-5760.0,-128.0
4.6175,-15232.0,-5824.0,-128.0
4.62,-15168.0,-5824.0,-192.0
4.6225,-15168.0,-5824.0,-128.0
4.625,-15168.0,-5760.0,-128.0
4.6275,-15168.0,-5760.0,-128.0
4.63,-15168.0,-5824.0,-128.0
4.6325,-15168.0,-5824.0,-128.0
4.635,-15296.0,-5824.0,-128.0
4.6375,-15296.0,-5824.0,-128.0
4.64,-15296.0,-5760.0,-64.0
4.6425,-15296.0,-5760.0,-128.0
4.645,-15296.0,-5760.0,-128.0
4.6475,-15232.0,-5760.0,-192.0
4.65,-15168.0,-5760.0,-128.0
4.6525,-15296.0,-5696.0,-64.0
4.655,-15296.0,-5696.0,-128.0
4.6575,-15296.0,-5696.0,-128.0
4.66,-15296.0,-5696.0,-128.0
4.6625,-15360.0,-5696.0,-64.0
4.665,-15296.0,-5696.0,-128.0
4.6675,-15360.0,-5696.0,-128.0
4.67,-15296.0,-5760.0,-64.0
4.6725,-15360.0,-5760.0,-64.0
4.675,-15360.0,-5824.0,-128.0
4.6775,-15360.0,-5824.0,-128.0
4.68,-15360.0,-5760.0,-128.0
4.6825,-15296.0,-5760.0,-192.0
4.685,-15296.0,-5824.0,-192.0
4.6875,-15232.0,-5760.0,-192.0
4.69,-15232.0,-5824.0,-192.0
4.6925,-15296.0,-5888.0,-192.0
4.695,-15296.0,-5824.0,-256.0
4.6975,-15296.0,-5888.0,-256.0
4.7,-15296.0,-5888.0,-192.0
4.7025,-15232.0,-5888.0,-320.0
4.705,-15232.0,-5952.0,-256.0
4.7075,-15232.0,-5888.0,-320.0
4.71,-15232.0,-5888.0,-320.0
4.7125,-15296.0,-5888.0,-320.0
4.715,-15296.0,-5824.0,-320.0
4.7175,-15296.0,-5888.0,-320.0
4.72,-15296.0,-5824.0,-320.0
4.7225,-15296.0,-5952.0,-320.0
4.725,-15296.0,-5888.0,-384.0
4.7275,-15296.0,-5888.0,-448.0
4.73,-15360.0,-5888.0,-448.0
4.7325,-15360.0,-5888.0,-384.0
4.735,-15360.0,-5888.0,-320.0
4.7375,-15296.0,-5888.0,-320.0
4.74,-15360.0,-5952.0,-320.0
4.7425,-15360.0,-5952.0,-320.0
4.745,-15360.0,-5952.0,-320.0
4.7475,-15424.0,-5888.0,-384.0
4.75,-15360.0,-5824.0,-384.0
4.7525,-15360.0,-5888.0,-384.0
4.755,-15424.0,-5888.0,-320.0
4.7575,-15424.0,-5888.0,-320.0
4.76,-15424.0,-5824.0,-448.0
4.7625,-15424.0,-5824.0,-448.0
4.765,-15360.0,-5824.0,-448.0
4.7675,-15424.0,-5888.0,-448.0
4.77,-15488.0,-5888.0,-512.0
4.7725,-15424.0,-5824.0,-448.0
4.775,-15488.0,-5824.0,-512.0
4.7775,-15488.0,-5888.0,-512.0
4.78,-15488.0,-5824.0,-384.0
4.7825,-15488.0,-5824.0,-512.0
4.785,-15488.0,-5824.0,-512.0
4.7875,-15488.0,-5824.0,-512.0
4.79,-15488.0,-5760.0,-512.0
4.7925,-15488.0,-5760.0,-576.0
4.795,-15552.0,-5824.0,-576.0
4.7975,-15616.0,-5824.0,-512.0
4.8,-15680.0,-5824.0,-640.0
4.8025,-15616.0,-5760.0,-704.0
4.805,-15680.0,-5760.0,-640.0
4.8075,-15616.0,-5824.0,-640.0
4.81,-15680.0,-5888.0,-576.0
4.8125,-15680.0,-5888.0,-640.0
4.815,-15680.0,-5888.0,-640.0
4.8175,-15616.0,-5888.0,-640.0
4.82,-15680.0,-5888.0,-576.0
4.8225,-15680.0,-5888.0,-576.0
4.825,-15616.0,-5952.0,-576.0
4.8275,-15616.0,-5888.0,-512.0
4.83,-15616.0,-6016.0,-512.0
4.8325,-15552.0,-5952.0,-512.0
4.835,-15552.0,-6016.0,-448.0
4.8375,-15552.0,-5952.0,-448.0
4.84,-15552.0,-6080.0,-384.0
4.8425,-15552.0,-6080.0,-448.0
4.845,-15552.0,-6080.0,-448.0
4.8475,-15552.0,-6016.0,-512.0
4.85,-15552.0,-6080.0,-512.0
4.8525,-15552.0,-6080.0,-576.0
4.855,-15552.0,-6080.0,-512.0
4.8575,-15552.0,-6016.0,-576.0
4.86,-15488.0,-6080.0,-640.0
4.8625,-15488.0,-6080.0,-640.0
4.865,-15488.0,-6016.0,-576.0
4.8675,-15424.0,-6016.0,-640.0
4.87,-15424.0,-6080.0,-704.0
4.8725,-15488.0,-6016.0,-704.0
4.875,-15360.0,-6016.0,-704.0
4.8775,-15360.0,-6016.0,-704.0
4.88,-15360.0,-5952.0,-640.0
4.8825,-15360.0,-5952.0,-640.0
4.885,-15360.0,-5952.0,-640.0
4.8875,-15296.0,-5952.0,-640.0
4.89,-15296.0,-5952.0,-640.0
4.8925,-15296.0,-5952.0,-640.0
4.895,-15360.0,-5952.0,-512.0
4.8975,-15296.0,-5952.0,-512.0
4.9,-15232.0,-5952.0,-640.0
4.9025,-15296.0,-5888.0,-640.0
4.905,-15296.0,-5952.0,-512.0
4.9075,-15360.0,-5952.0,-512.0
4.91,-15296.0,-5888.0,-512.0
4.9125,-15424.0,-5952.0,-512.0
4.915,-15360.0,-5952.0,-448.0
4.9175,-15360.0,-5952.0,-448.0
4.92,-15360.0,-6016.0,-384.0
4.9225,-15360.0,-6016.0,-384.0
4.925,-15360.0,-6016.0,-448.0
4.9275,-15296.0,-6016.0,-448.0
4.93,-15296.0,-5952.0,-448.0
4.9325,-15296.0,-5952.0,-448.0
4.935,-15232.0,-5888.0,-512.0
4.9375,-15296.0,-5888.0,-512.0
4.94,-15296.0,-5888.0,-512.0
4.9425,-15232.0,-5888.0,-512.0
4.945,-15232.0,-5952.0,-512.0
4.9475,-15232.0,-5952.0,-576.0
4.95,-15232.0,-5952.0,-576.0
4.9525,-15168.0,-5952.0,-640.0
4.955,-15168.0,-5888.0,-704.0
4.9575,-15168.0,-5888.0,-640.0
4.96,-15168.0,-5760.0,-640.0
4.9625,-15104.0,-5760.0,-704.0
4.965,-15104.0,-5760.0,-704.0
4.9675,-15168.0,-5760.0,-576.0
4.97,-15104.0,-5760.0,-576.0
4.9725,-15104.0,-5760.0,-640.0
4.975,-15104.0,-5696.0,-576.0
4.9775,-15232.0,-5696.0,-512.0
4.98,-15168.0,-5696.0,-512.0
4.9825,-15104.0,-5696.0,-512.0
4.985,-15104.0,-5696.0,-512.0
4.9875,-15168.0,-5696.0,-448.0
4.99,-15168.0,-5696.0,-512.0
4.9925,-15168.0,-5696.0,-448.0
4.995,-15168.0,-5696.0,-448.0
4.9975,-15168.0,-5696.0,-512.0
5.0,-15168.0,-5632.0,-448.0
5.0025,-15232.0,-5632.0,-448.0
5.005,-15232.0,-5696.0,-320.0
5.0075,-15232.0,-5760.0,-384.0
5.01,-15232.0,-5696.0,-320.0
5.0125,-15168.0,-5696.0,-256.0
5.015,-15168.0,-5696.0,-384.0
5.0175,-15168.0,-5696.0,-320.0
5.02,-15168.0,-5696.0,-320.0
5.0225,-15168.0,-5696.0,-320.0
5.025,-15168.0,-5696.0,-320.0
5.0275,-15168.0,-5760.0,-320.0
5.03,-15168.0,-5760.0,-384.0
5.0325,-15168.0,-5760.0,-448.0
5.035,-15232.0,-5696.0,-512.0
5.0375,-15296.0,-5696.0,-448.0
5.04,-15232.0,-5696.0,-448.0
5.0425,-15232.0,-5696.0,-448.0
5.045,-15232.0,-5696.0,-512.0
5.0475,-15296.0,-5696.0,-448.0
5.05,-15296.0,-5632.0,-448.0
5.0525,-15296.0,-5696.0,-512.0
5.055,-15232.0,-5696.0,-384.0
5.0575,-15296.0,-5696.0,-384.0
5.06,-15296.0,-5696.0,-384.0
5.0625,-15296.0,-5696.0,-384.0
5.065,-15360.0,-5696.0,-384.0
5.0675,-15360.0,-5696.0,-320.0
5.07,-15360.0,-5696.0,-256.0
5.0725,-15296.0,-5696.0,-320.0
5.075,-15360.0,-5632.0,-320.0
5.0775,-15360.0,-5696.0,-320.0
5.08,-15360.0,-5696.0,-256.0
5.0825,-15360.0,-5632.0,-320.0
5.085,-15360.0,-5632.0,-256.0
5.0875,-15296.0,-5696.0,-320.0
5.09,-15296.0,-5632.0,-256.0
5.0925,-15232.0,-5632.0,-256.0
5.095,-15232.0,-5632.0,-256.0
5.0975,-15232.0,-5632.0,-192.0
5.1,-15232.0,-5568.0,-192.0
5.1025,-15232.0,-5632.0,-192.0
5.105,-15232.0,-5632.0,-256.0
5.1075,-15232.0,-5632.0,-256.0
5.11,-15168.0,-5632.0,-320.0
5.1125,-15232.0,-5568.0,-320.0
5.115,-15168.0,-5632.0,-256.0
5.1175,-15168.0,-5632.0,-192.0
5.12,-15232.0,-5632.0,-128.0
5.1225,-15168.0,-5504.0,-192.0
5.125,-15168.0,-5568.0,-256.0
5.1275,-15168.0,-5632.0,-192.0
5.13,-15168.0,-5568.0,-128.0
5.1325,-15168.0,-5568.0,-128.0
5.135,-15104.0,-5632.0,-128.0
5.1375,-15104.0,-5632.0,-128.0
5.14,-15104.0,-5632.0,-64.0
5.1425,-15104.0,-5568.0,-128.0
5.145,-15104.0,-5568.0,-192.0
5.1475,-15104.0,-5568.0,-192.0
5.15,-15104.0,-5568.0,-192.0
5.1525,-15040.0,-5568.0,-192.0
5.155,-15104.0,-5568.0,-256.0
5.1575,-15168.0,-5568.0,-256.0
5.16,-15232.0,-5568.0,-320.0
5.1625,-15168.0,-5568.0,-320.0
5.165,-15168.0,-5568.0,-384.0
5.1675,-15168.0,-5568.0,-320.0
5.17,-15168.0,-5568.0,-320.0
5.1725,-15168.0,-5568.0,-320.0
5.175,-15168.0,-5632.0,-320.0
5.1775,-15168.0,-5568.0,-256.0
5.18,-15168.0,-5568.0,-256.0
5.1825,-15232.0,-5568.0,-256.0
5.185,-15232.0,-5568.0,-256.0
5.1875,-15232.0,-5568.0,-192.0
5.19,-15296.0,-5632.0,-192.0
5.1925,-15296.0,-5568.0,-192.0
5.195,-15296.0,-5632.0,-192.0
5.1975,-15360.0,-5632.0,-192.0
5.2,-15360.0,-5568.0,-64.0
5.2025,-15424.0,-5568.0,-64.0
5.205,-15424.0,-5568.0,-128.0
5.2075,-15424.0,-5632.0,-64.0
5.21,-15424.0,-5568.0,-64.0
5.2125,-15424.0,-5632.0,-192.0
5.215,-15488.0,-5632.0,-192.0
5.2175,-15552.0,-5696.0,-256.0
5.22,-15552.0,-5696.0,-192.0
5.2225,-15488.0,-5696.0,-320.0
5.225,-15552.0,-5696.0,-256.0
5.2275,-15616.0,-5696.0,-256.0
5.23,-15616.0,-5696.0,-256.0
5.2325,-15616.0,-5632.0,-384.0
5.235,-15616.0,-5632.0,-448.0
5.2375,-15616.0,-5568.0,-384.0
5.24,-15616.0,-5632.0,-384.0
5.2425,-15680.0,-5696.0,-384.0
5.245,-15552.0,-5696.0,-320.0
5.2475,-15616.0,-5696.0,-384.0
5.25,-15552.0,-5696.0,-384.0
5.2525,-15552.0,-5760.0,-384.0
5.255,-15552.0,-5824.0,-320.0
5.2575,-15616.0,-5824.0,-320.0
5.26,-15616.0,-5824.0,-320.0
5.2625,-15616.0,-5760.0,-256.0
5.265,-15552.0,-5824.0,-320.0
5.2675,-15552.0,-5824.0,-320.0
5.27,-15616.0,-5888.0,-320.0
5.2725,-15616.0,-5824.0,-192.0
5.275,-15616.0,-5888.0,-256.0
5.2775,-15616.0,-5888.0,-320.0
5.28,-15552.0,-5952.0,-128.0
5.2825,-15552.0,-5888.0,-128.0
5.285,-15488.0,-5888.0,-192.0
5.2875,-15552.0,-5888.0,-192.0
5.29,-15552.0,-5952.0,-192.0
5.2925,-15552.0,-5952.0,-256.0
5.295,-15552.0,-5952.0,-256.0
5.2975,-15488.0,-5888.0,-320.0
5.3,-15424.0,-5888.0,-256.0
5.3025,-15424.0,-5888.0,-320.0
5.305,-15424.0,-5952.0,-320.0
5.3075,-15424.0,-6016.0,-256.0
5.31,-15424.0,-6080.0,-320.0
5.3125,-15488.0,-6016.0,-320.0
5.315,-15424.0,-6016.0,-384.0
5.3175,-15488.0,-6016.0,-320.0
5.32,-15424.0,-6016.0,-320.0
5.3225,-15360.0,-6016.0,-256.0
5.325,-15360.0,-5952.0,-320.0
5.3275,-15360.0,-5952.0,-320.0
5.33,-15360.0,-6016.0,-320.0
5.3325,-15296.0,-6080.0,-384.0
5.335,-15296.0,-6016.0,-320.0
5.3375,-15296.0,-5952.0,-384.0
5.34,-15296.0,-6016.0,-320.0
5.3425,-15296.0,-6016.0,-320.0
5.345,-15232.0,-6080.0,-384.0
5.3475,-15232.0,-6080.0,-320.0
5.35,-15232.0,-6080.0,-384.0
5.3525,-15296.0,-6080.0,-320.0
5.355,-15232.0,-6080.0,-320.0
5.3575,-15296.0,-6144.0,-256.0
5.36,-15296.0,-6080.0,-320.0
5.3625,-15296.0,-6080.0,-320.0
5.365,-15296.0,-6080.0,-384.0
5.3675,-15360.0,-6080.0,-320.0
5.37,-15296.0,-6080.0,-320.0
5.3725,-15296.0,-6080.0,-448.0
5.375,-15360.0,-6080.0,-448.0
5.3775,-15360.0,-6144.0,-320.0
5.38,-15360.0,-6144.0,-320.0
5.3825,-15296.0,-6144.0,-320.0
5.385,-15360.0,-6144.0,-320.0
5.3875,-15360.0,-6144.0,-320.0
5.39,-15296.0,-6144.0,-384.0
5.3925,-15296.0,-6208.0,-384.0
5.395,-15296.0,-6208.0,-384.0
5.3975,-15232.0,-6208.0,-384.0
5.4,-15232.0,-6208.0,-384.0
5.4025,-15232.0,-6208.0,-448.0
5.405,-15232.0,-6208.0,-448.0
5.4075,-15168.0,-6144.0,-448.0
5.41,-15232.0,-6144.0,-448.0
5.4125,-15232.0,-6144.0,-448.0
5.415,-15232.0,-6144.0,-512.0
5.4175,-15232.0,-6144.0,-512.0
5.42,-15232.0,-6080.0,-448.0
5.4225,-15168.0,-6080.0,-448.0
5.425,-15168.0,-6144.0,-512.0
5.4275,-15232.0,-6144.0,-512.0
5.43,-15232.0,-6080.0,-576.0
5.4325,-15232.0,-6080.0,-512.0
5.435,-15232.0,-6080.0,-576.0
5.4375,-15232.0,-6080.0,-576.0
5.44,-15296.0,-6144.0,-512.0
5.4425,-15360.0,-6144.0,-512.0
5.445,-15360.0,-6144.0,-512.0
5.4475,-15296.0,-6080.0,-576.0
5.45,-15296.0,-6144.0,-640.0
5.4525,-15360.0,-6144.0,-640.0
5.455,-15296.0,-6144.0,-704.0
5.4575,-15296.0,-6080.0,-704.0
5.46,-15296.0,-6080.0,-704.0
5.4625,-15296.0,-6080.0,-768.0
5.465,-15296.0,-6144.0,-704.0
5.4675,-15360.0,-6144.0,-704.0
5.47,-15424.0,-6080.0,-640.0
5.4725,-15424.0,-6144.0,-704.0
5.475,-15424.0,-6080.0,-768.0
5.4775,-15424.0,-6080.0,-768.0
5.48,-15424.0,-6144.0,-704.0
5.4825,-15424.0,-6080.0,-640.0
5.485,-15424.0,-6016.0,-640.0
5.4875,-15488.0,-6080.0,-640.0
5.49,-15552.0,-6016.0,-576.0
5.4925,-15552.0,-6080.0,-576.0
5.495,-15488.0,-6016.0,-576.0
5.4975,-15552.0,-6016.0,-448.0
5.5,-15488.0,-5952.0,-576.0
5.5025,-15488.0,-5952.0,-576.0
5.505,-15552.0,-5952.0,-576.0
5.5075,-15552.0,-5952.0,-512.0
5.51,-15552.0,-5952.0,-512.0
5.5125,-15552.0,-5952.0,-512.0
5.515,-15616.0,-5952.0,-576.0
5.5175,-15552.0,-5952.0,-512.0
5.52,-15552.0,-5824.0,-512.0
5.5225,-15488.0,-5824.0,-576.0
5.525,-15488.0,-5824.0,-576.0
5.5275,-15488.0,-5824.0,-576.0
5.53,-15552.0,-5824.0,-576.0
5.5325,-15552.0,-5760.0,-640.0
5.535,-15488.0,-5696.0,-640.0
5.5375,-15488.0,-5760.0,-576.0
5.54,-15552.0,-5760.0,-512.0
5.5425,-15488.0,-5824.0,-448.0
5.545,-15552.0,-5824.0,-384.0
5.5475,-15552.0,-5824.0,-384.0
5.55,-15616.0,-5888.0,-384.0
5.5525,-15616.0,-5824.0,-384.0
5.555,-15616.0,-5760.0,-320.0
5.5575,-15616.0,-5760.0,-320.0
5.56,-15680.0,-5760.0,-256.0
5.5625,-15616.0,-5760.0,-320.0
5.565,-15680.0,-5760.0,-320.0
5.5675,-15616.0,-5824.0,-384.0
5.57,-15680.0,-5824.0,-384.0
5.5725,-15616.0,-5696.0,-384.0
5.575,-15680.0,-5696.0,-448.0
5.5775,-15680.0,-5696.0,-448.0
5.58,-15744.0,-5760.0,-512.0
5.5825,-15680.0,-5760.0,-448.0
5.585,-15680.0,-5696.0,-448.0
5.5875,-15744.0,-5696.0,-448.0
5.59,-15680.0,-5696.0,-384.0
5.5925,-15744.0,-5632.0,-320.0
5.595,-15808.0,-5696.0,-320.0
5.5975,-15808.0,-5696.0,-320.0
5.6,-15808.0,-5824.0,-320.0
5.6025,-15744.0,-5824.0,-256.0
5.605,-15744.0,-5696.0,-384.0
5.6075,-15680.0,-5760.0,-384.0
5.61,-15744.0,-5824.0,-192.0
5.6125,-15680.0,-5824.0,-192.0
5.615,-15680.0,-5760.0,-256.0
5.6175,-15808.0,-5760.0,-192.0
5.62,-15808.0,-5760.0,-128.0
5.6225,-15808.0,-5760.0,-128.0
5.625,-15744.0,-5760.0,-192.0
5.6275,-15744.0,-5760.0,-128.0
5.63,-15808.0,-5824.0,-128.0
5.6325,-15808.0,-5760.0,-128.0
5.635,-15808.0,-5760.0,-192.0
5.6375,-15808.0,-5824.0,-128.0
5.64,-15744.0,-5824.0,-128.0
5.6425,-15808.0,-5760.0,-192.0
5.645,-15744.0,-5696.0,-192.0
5.6475,-15744.0,-5632.0,-192.0
5.65,-15680.0,-5568.0,-192.0
5.6525,-15680.0,-5632.0,-256.0
5.655,-15680.0,-5632.0,-320.0
5.6575,-15680.0,-5632.0,-320.0
5.66,-15680.0,-5696.0,-384.0
5.6625,-15552.0,-5696.0,-384.0
5.665,-15552.0,-5632.0,-384.0
5.6675,-15616.0,-5504.0,-448.0
5.67,-15616.0,-5568.0,-384.0
5.6725,-15616.0,-5632.0,-384.0
5.675,-15616.0,-5568.0,-384.0
5.6775,-15616.0,-5504.0,-448.0
5.68,-15616.0,-5504.0,-320.0
5.6825,-15680.0,-5504.0,-320.0
5.685,-15680.0,-5504.0,-192.0
5.6875,-15616.0,-5440.0,-192.0
5.69,-15616.0,-5504.0,-256.0
5.6925,-15680.0,-5440.0,-128.0
5.695,-15680.0,-5440.0,-192.0
5.6975,-15680.0,-5504.0,-192.0
5.7,-15680.0,-5440.0,-192.0
5.7025,-15680.0,-5568.0,-192.0
5.705,-15744.0,-5568.0,-128.0
5.7075,-15744.0,-5504.0,-128.0
5.71,-15808.0,-5504.0,-128.0
5.7125,-15808.0,-5568.0,-64.0
5.715,-15872.0,-5568.0,-128.0
5.7175,-15872.0,-5504.0,-128.0
5.72,-15808.0,-5504.0,-128.0
5.7225,-15808.0,-5504.0,-192.0
5.725,-15872.0,-5504.0,-256.0
5.7275,-15872.0,-5504.0,-256.0
5.73,-15872.0,-5504.0,-256.0
5.7325,-15808.0,-5504.0,-320.0
5.735,-15808.0,-5504.0,-320.0
5.7375,-15808.0,-5504.0,-320.0
5.74,-15808.0,-5440.0,-256.0
5.7425,-15808.0,-5440.0,-192.0
5.745,-15872.0,-5440.0,-128.0
5.7475,-15872.0,-5440.0,-64.0
5.75,-15808.0,-5312.0,0.0
5.7525,-15808.0,-5312.0,64.0
5.755,-15744.0,-5312.0,64.0
5.7575,-15744.0,-5312.0,128.0
5.76,-15680.0,-5312.0,128.0
5.7625,-15680.0,-5312.0,192.0
5.765,-15616.0,-5376.0,192.0
5.7675,-15552.0,-5312.0,256.0
5.77,-15488.0,-5312.0,384.0
5.7725,-15424.0,-5248.0,448.0
5.775,-15360.0,-5184.0,448.0
5.7775,-15360.0,-5248.0,448.0
5.78,-15296.0,-5248.0,448.0
5.7825,-15232.0,-5248.0,384.0
5.785,-15168.0,-5312.0,704.0
5.7875,-15168.0,-5312.0,704.0
5.79,-15040.0,-5312.0,704.0
5.7925,-15040.0,-5248.0,768.0
5.795,-15040.0,-5312.0,768.0
5.7975,-14976.0,-5312.0,896.0
5.8,-14912.0,-5248.0,960.0
5.8025,-14848.0,-5248.0,1088.0
5.805,-14784.0,-5248.0,1088.0
5.8075,-14720.0,-5248.0,1088.0
5.81,-14720.0,-5184.0,1216.0
5.8125,-14592.0,-5184.0,1280.0
5.815,-14592.0,-5120.0,1408.0
5.8175,-14464.0,-5120.0,1408.0
5.82,-14464.0,-5120.0,1280.0
5.8225,-14464.0,-5120.0,1408.0
5.825,-14464.0,-5056.0,1344.0
5.8275,-14464.0,-4992.0,1280.0
5.83,-14528.0,-4992.0,1280.0
5.8325,-14464.0,-4992.0,1280.0
5.835,-14528.0,-4992.0,1280.0
5.8375,-14592.0,-4928.0,1344.0
5.84,-14720.0,-4928.0,1344.0
5.8425,-14720.0,-4928.0,1408.0
5.845,-14784.0,-4928.0,1344.0
5.8475,-14912.0,-4864.0,1408.0
5.85,-14976.0,-4928.0,1472.0
5.8525,-15104.0,-4928.0,1472.0
5.855,-15104.0,-4928.0,1408.0
5.8575,-15232.0,-4928.0,1408.0
5.86,-15360.0,-4928.0,1600.0
5.8625,-15488.0,-4992.0,1472.0
5.865,-15552.0,-4928.0,1536.0
5.8675,-15616.0,-4992.0,1600.0
5.87,-15744.0,-4992.0,1728.0
5.8725,-15744.0,-5056.0,1792.0
5.875,-15744.0,-5120.0,1920.0
5.8775,-15808.0,-5120.0,1920.0
5.88,-15808.0,-5056.0,1920.0
5.8825,-15872.0,-5056.0,1984.0
5.885,-15808.0,-5120.0,2112.0
5.8875,-15744.0,-5120.0,2112.0
5.89,-15744.0,-5120.0,2112.0
5.8925,-15680.0,-5120.0,2112.0
5.895,-15616.0,-5120.0,2048.0
5.8975,-15616.0,-5056.0,2048.0
5.9,-15616.0,-5120.0,2048.0
5.9025,-15552.0,-5120.0,2112.0
5.905,-15552.0,-5120.0,2048.0
5.9075,-15424.0,-5120.0,2112.0
5.91,-15424.0,-5056.0,2048.0
5.9125,-15424.0,-4992.0,2048.0
5.915,-15360.0,-5056.0,2048.0
5.9175,-15296.0,-5120.0,2048.0
5.92,-15296.0,-5120.0,2112.0
5.9225,-15232.0,-5120.0,2112.0
5.925,-15168.0,-5184.0,2112.0
5.9275,-15104.0,-5120.0,2112.0
5.93,-15040.0,-5184.0,2112.0
5.9325,-15040.0,-5184.0,2112.0
5.935,-15040.0,-5120.0,2112.0
5.9375,-14848.0,-5184.0,2048.0
5.94,-14784.0,-5184.0,2048.0
5.9425,-14720.0,-5248.0,2112.0
5.945,-14720.0,-5248.0,2112.0
5.9475,-14656.0,-5312.0,2240.0
5.95,-14528.0,-5248.0,2240.0
5.9525,-14464.0,-5312.0,2240.0
5.955,-14400.0,-5248.0,2240.0
5.9575,-14336.0,-5184.0,2368.0
5.96,-14208.0,-5248.0,2432.0
5.9625,-14144.0,-5120.0,2432.0
5.965,-14080.0,-5184.0,2368.0
5.9675,-14080.0,-5120.0,2368.0
5.97,-14080.0,-5184.0,2368.0
5.9725,-14016.0,-5184.0,2304.0
5.975,-13888.0,-5184.0,2304.0
5.9775,-13888.0,-5184.0,2240.0
5.98,-13824.0,-5184.0,2240.0
5.9825,-13824.0,-5184.0,2176.0
5.985,-13824.0,-5184.0,2112.0
5.9875,-13824.0,-5184.0,2048.0
5.99,-13824.0,-5248.0,2112.0
5.9925,-13888.0,-5184.0,2048.0
5.995,-13952.0,-5184.0,1984.0
5.9975,-14016.0,-5184.0,1920.0
6.0,-14272.0,-5248.0,1792.0
6.0025,-14272.0,-5248.0,1792.0
6.005,-14464.0,-5248.0,1728.0
6.0075,-14592.0,-5312.0,1792.0
6.01,-14656.0,-5312.0,1728.0
6.0125,-14848.0,-5376.0,1600.0
6.015,-14976.0,-5376.0,1600.0
6.0175,-15104.0,-5376.0,1600.0
6.02,-15232.0,-5440.0,1536.0
6.0225,-15360.0,-5376.0,1344.0
6.025,-15552.0,-5440.0,1408.0
6.0275,-15744.0,-5440.0,1216.0
6.03,-15872.0,-5504.0,1216.0
6.0325,-16000.0,-5568.0,1088.0
6.035,-16128.0,-5568.0,1024.0
6.0375,-16320.0,-5568.0,1024.0
6.04,-16448.0,-5568.0,960.0
6.0425,-16640.0,-5568.0,832.0
6.045,-16704.0,-5568.0,768.0
6.0475,-16832.0,-5568.0,640.0
6.05,-16960.0,-5568.0,576.0
6.0525,-16960.0,-5568.0,512.0
6.055,-17088.0,-5568.0,512.0
6.0575,-17152.0,-5568.0,384.0
6.06,-17280.0,-5568.0,256.0
6.0625,-17408.0,-5568.0,128.0
6.065,-17408.0,-5632.0,64.0
6.0675,-17536.0,-5632.0,0.0
6.07,-17600.0,-5632.0,0.0
6.0725,-17664.0,-5632.0,-64.0
6.075,-17664.0,-5696.0,-64.0
6.0775,-17728.0,-5696.0,-64.0
6.08,-17728.0,-5760.0,64.0
6.0825,-17728.0,-5696.0,64.0
6.085,-17728.0,-5632.0,64.0
6.0875,-17664.0,-5632.0,64.0
6.09,-17664.0,-5632.0,64.0
6.0925,-17664.0,-5632.0,64.0
6.095,-17600.0,-5632.0,128.0
6.0975,-17408.0,-5632.0,0.0
6.1,-17280.0,-5568.0,-64.0
6.1025,-17152.0,-5440.0,-64.0
6.105,-17024.0,-5504.0,-64.0
6.1075,-16832.0,-5504.0,0.0
6.11,-16640.0,-5440.0,-64.0
6.1125,-16448.0,-5376.0,-128.0
6.115,-16256.0,-5248.0,-128.0
6.1175,-16064.0,-5248.0,-192.0
6.12,-15872.0,-5248.0,-128.0
6.1225,-15744.0,-5184.0,-128.0
6.125,-15488.0,-5120.0,-128.0
6.1275,-15296.0,-5056.0,-256.0
6.13,-15104.0,-4992.0,-256.0
6.1325,-15040.0,-4928.0,-256.0
6.135,-14848.0,-4928.0,-320.0
6.1375,-14720.0,-4864.0,-384.0
6.14,-14592.0,-4800.0,-384.0
6.1425,-14464.0,-4736.0,-320.0
6.145,-14272.0,-4800.0,-256.0
6.1475,-14208.0,-4736.0,-320.0
6.15,-14144.0,-4672.0,-256.0
6.1525,-14080.0,-4672.0,-192.0
6.155,-14016.0,-4672.0,-192.0
6.1575,-14016.0,-4672.0,-192.0
6.16,-14016.0,-4608.0,-128.0
6.1625,-13952.0,-4608.0,-192.0
6.165,-13888.0,-4608.0,-128.0
6.1675,-13888.0,-4608.0,-128.0
6.17,-13824.0,-4608.0,-128.0
6.1725,-13760.0,-4672.0,-64.0
6.175,-13696.0,-4608.0,-128.0
6.1775,-13760.0,-4672.0,-64.0
6.18,-13696.0,-4672.0,64.0
6.1825,-13696.0,-4608.0,-128.0
6.185,-13696.0,-4672.0,-128.0
6.1875,-13696.0,-4736.0,-192.0
6.19,-13696.0,-4736.0,-192.0
6.1925,-13824.0,-4800.0,-128.0
6.195,-13824.0,-4800.0,-128.0
6.1975,-13824.0,-4800.0,-128.0
6.2,-13824.0,-4864.0,-192.0
6.2025,-13952.0,-4864.0,-128.0
6.205,-14016.0,-4928.0,-128.0
6.2075,-14016.0,-4864.0,-192.0
6.21,-14144.0,-4928.0,-256.0
6.2125,-14208.0,-4864.0,-320.0
6.215,-14272.0,-4864.0,-384.0
6.2175,-14336.0,-4928.0,-512.0
6.22,-14400.0,-4928.0,-576.0
6.2225,-14464.0,-4928.0,-704.0
6.225,-14528.0,-4928.0,-832.0
6.2275,-14592.0,-4992.0,-832.0
6.23,-14784.0,-4992.0,-960.0
6.2325,-14848.0,-4992.0,-1024.0
6.235,-14976.0,-4992.0,-1088.0
6.2375,-15104.0,-4928.0,-1088.0
6.24,-15360.0,-5056.0,-1152.0
6.2425,-15552.0,-5056.0,-1088.0
6.245,-15616.0,-5120.0,-1088.0
6.2475,-15680.0,-5120.0,-1152.0
6.25,-15744.0,-5056.0,-1088.0
6.2525,-15808.0,-5056.0,-960.0
6.255,-15936.0,-5056.0,-960.0
6.2575,-15936.0,-5056.0,-1024.0
6.26,-16000.0,-4992.0,-960.0
6.2625,-16000.0,-5056.0,-832.0
6.265,-16064.0,-5120.0,-896.0
6.2675,-16064.0,-5184.0,-960.0
6.27,-16128.0,-5120.0,-1024.0
6.2725,-16192.0,-5120.0,-1024.0
6.275,-16256.0,-5120.0,-960.0
6.2775,-16256.0,-5120.0,-1024.0
6.28,-16320.0,-5120.0,-1024.0
6.2825,-16448.0,-5120.0,-1088.0
6.285,-16512.0,-5056.0,-1024.0
6.2875,-16512.0,-5056.0,-1024.0
6.29,-16576.0,-5056.0,-896.0
6.2925,-16576.0,-5056.0,-960.0
6.295,-16576.0,-5120.0,-960.0
6.2975,-16640.0,-5056.0,-960.0
6.3,-16704.0,-5056.0,-896.0
6.3025,-16704.0,-4992.0,-832.0
6.305,-16704.0,-4992.0,-832.0
6.3075,-16704.0,-4992.0,-768.0
6.31,-16640.0,-4992.0,-768.0
6.3125,-16704.0,-4928.0,-768.0
6.315,-16704.0,-4928.0,-768.0
6.3175,-16768.0,-4928.0,-768.0
6.32,-16896.0,-4992.0,-768.0
6.3225,-16960.0,-4928.0,-768.0
6.325,-16960.0,-4992.0,-896.0
6.3275,-17024.0,-4928.0,-896.0
6.33,-16960.0,-4864.0,-960.0
6.3325,-16960.0,-4928.0,-960.0
6.335,-17088.0,-4864.0,-896.0
6.3375,-17024.0,-4928.0,-1024.0
6.34,-17024.0,-4864.0,-1024.0
6.3425,-17088.0,-4864.0,-960.0
6.345,-17024.0,-4800.0,-832.0
6.3475,-17024.0,-4800.0,-960.0
6.35,-17024.0,-4800.0,-896.0
6.3525,-16960.0,-4864.0,-896.0
6.355,-16896.0,-4800.0,-832.0
6.3575,-16896.0,-4800.0,-832.0
6.36,-16832.0,-4800.0,-832.0
6.3625,-16768.0,-4800.0,-704.0
6.365,-16704.0,-4800.0,-704.0
6.3675,-16640.0,-4864.0,-704.0
6.37,-16640.0,-4864.0,-768.0
6.3725,-16576.0,-4864.0,-768.0
6.375,-16512.0,-4928.0,-768.0
6.3775,-16448.0,-4992.0,-768.0
6.38,-16384.0,-4928.0,-704.0
6.3825,-16320.0,-4928.0,-640.0
6.385,-16256.0,-4992.0,-640.0
6.3875,-16192.0,-4928.0,-640.0
6.39,-16064.0,-4992.0,-576.0
6.3925,-16000.0,-4992.0,-640.0
6.395,-15872.0,-4992.0,-576.0
6.3975,-15808.0,-5056.0,-640.0
6.4,-15744.0,-5184.0,-512.0
6.4025,-15680.0,-5184.0,-448.0
6.405,-15616.0,-5184.0,-384.0
6.4075,-15552.0,-5184.0,-256.0
6.41,-15552.0,-5184.0,-192.0
6.4125,-15424.0,-5120.0,-128.0
6.415,-15360.0,-5184.0,-64.0
6.4175,-15296.0,-5120.0,-64.0
6.42,-15232.0,-5184.0,0.0
6.4225,-15232.0,-5184.0,64.0
6.425,-15104.0,-5184.0,64.0
6.4275,-15168.0,-5120.0,128.0
6.43,-15168.0,-5184.0,192.0
6.4325,-15104.0,-5184.0,128.0
6.435,-15040.0,-5120.0,192.0
6.4375,-15104.0,-5120.0,320.0
6.44,-15040.0,-5120.0,384.0
6.4425,-14976.0,-5056.0,384.0
6.445,-14912.0,-5056.0,384.0
6.4475,-14848.0,-4992.0,448.0
6.45,-14784.0,-5056.0,384.0
6.4525,-14656.0,-4992.0,384.0
6.455,-14592.0,-4992.0,448.0
6.4575,-14528.0,-4992.0,384.0
6.46,-14528.0,-4992.0,384.0
6.4625,-14464.0,-4992.0,448.0
6.465,-14400.0,-4992.0,512.0
6.4675,-14336.0,-4992.0,384.0
6.47,-14272.0,-4928.0,448.0
6.4725,-14208.0,-4992.0,384.0
6.475,-14208.0,-4928.0,320.0
6.4775,-14208.0,-4992.0,256.0
6.48,-14208.0,-4928.0,320.0
6.4825,-14208.0,-4928.0,192.0
6.485,-14208.0,-4928.0,256.0
6.4875,-14272.0,-4864.0,320.0
6.49,-14336.0,-4992.0,192.0
6.4925,-14272.0,-4928.0,192.0
6.495,-14336.0,-4928.0,256.0
6.4975,-14400.0,-4928.0,320.0
6.5,-14464.0,-4864.0,448.0
6.5025,-14528.0,-4928.0,448.0
6.505,-14464.0,-4992.0,512.0
6.5075,-14464.0,-4992.0,448.0
6.51,-14528.0,-5056.0,512.0
6.5125,-14592.0,-5056.0,448.0
6.515,-14592.0,-5120.0,512.0
6.5175,-14656.0,-5056.0,448.0
6.52,-14720.0,-5120.0,448.0
6.5225,-14784.0,-5120.0,448.0
6.525,-14848.0,-5184.0,448.0
6.5275,-14912.0,-5248.0,384.0
6.53,-14976.0,-5248.0,448.0
6.5325,-15040.0,-5248.0,448.0
6.535,-15040.0,-5312.0,384.0
6.5375,-15104.0,-5376.0,384.0
6.54,-15296.0,-5376.0,384.0
6.5425,-15424.0,-5376.0,320.0
6.545,-15488.0,-5376.0,384.0
6.5475,-15616.0,-5440.0,320.0
6.55,-15680.0,-5440.0,320.0
6.5525,-15808.0,-5440.0,320.0
6.555,-15872.0,-5440.0,320.0
6.5575,-15936.0,-5440.0,320.0
6.56,-16128.0,-5504.0,384.0
6.5625,-16256.0,-5504.0,384.0
6.565,-16256.0,-5504.0,320.0
6.5675,-16320.0,-5504.0,320.0
6.57,-16448.0,-5504.0,384.0
6.5725,-16448.0,-5504.0,320.0
6.575,-16512.0,-5440.0,320.0
6.5775,-16576.0,-5440.0,384.0
6.58,-16576.0,-5440.0,448.0
6.5825,-16640.0,-5440.0,448.0
6.585,-16704.0,-5376.0,448.0
6.5875,-16768.0,-5376.0,512.0
6.59,-16832.0,-5440.0,512.0
6.5925,-16960.0,-5440.0,448.0
6.595,-17024.0,-5376.0,448.0
6.5975,-17152.0,-5440.0,512.0
6.6,-17152.0,-5440.0,576.0
6.6025,-17216.0,-5440.0,640.0
6.605,-17216.0,-5504.0,640.0
6.6075,-17152.0,-5504.0,768.0
6.61,-17152.0,-5504.0,704.0
6.6125,-17088.0,-5504.0,768.0
6.615,-17024.0,-5440.0,896.0
6.6175,-17024.0,-5504.0,896.0
6.62,-16960.0,-5504.0,960.0
6.6225,-16832.0,-5504.0,960.0
6.625,-16704.0,-5504.0,960.0
6.6275,-16704.0,-5440.0,960.0
6.63,-16576.0,-5440.0,1024.0
6.6325,-16448.0,-5504.0,1024.0
6.635,-16512.0,-5376.0,960.0
6.6375,-16448.0,-5376.0,960.0
6.64,-16384.0,-5376.0,1024.0
6.6425,-16320.0,-5376.0,960.0
6.645,-16256.0,-5312.0,960.0
6.6475,-16192.0,-5376.0,896.0
6.65,-16128.0,-5312.0,960.0
6.6525,-16192.0,-5184.0,896.0
6.655,-16128.0,-5184.0,960.0
6.6575,-16064.0,-5120.0,960.0
6.66,-16064.0,-5056.0,960.0
6.6625,-16000.0,-5120.0,960.0
6.665,-16064.0,-5120.0,1088.0
6.6675,-16064.0,-5120.0,1152.0
6.67,-16000.0,-5120.0,1216.0
6.6725,-16000.0,-5120.0,1280.0
6.675,-16000.0,-5056.0,1408.0
6.6775,-16000.0,-5056.0,1472.0
6.68,-15936.0,-5056.0,1536.0
6.6825,-15936.0,-4992.0,1600.0
6.685,-15936.0,-5056.0,1600.0
6.6875,-15872.0,-5056.0,1728.0
6.69,-15808.0,-5056.0,1728.0
6.6925,-15808.0,-5056.0,1664.0
6.695,-15744.0,-5056.0,1728.0
6.6975,-15744.0,-5056.0,1664.0
6.7,-15616.0,-4992.0,1600.0
6.7025,-15552.0,-5056.0,1536.0
6.705,-15552.0,-4992.0,1472.0
6.7075,-15488.0,-4992.0,1536.0
6.71,-15424.0,-4992.0,1472.0
6.7125,-15296.0,-5056.0,1408.0
6.715,-15296.0,-5056.0,1344.0
6.7175,-15232.0,-4992.0,1280.0
6.72,-15168.0,-4928.0,1152.0
6.7225,-15104.0,-4992.0,1088.0
6.725,-15040.0,-4992.0,1088.0
6.7275,-15104.0,-4992.0,1152.0
6.73,-15104.0,-4928.0,1088.0
6.7325,-15040.0,-4928.0,1088.0
6.735,-15104.0,-4928.0,1152.0
6.7375,-15104.0,-4992.0,1216.0
6.74,-15104.0,-4864.0,1152.0
6.7425,-15104.0,-4864.0,1216.0
6.745,-15104.0,-4800.0,1280.0
6.7475,-15040.0,-4800.0,1216.0
6.75,-14976.0,-4864.0,1216.0
6.7525,-14976.0,-4800.0,1344.0
6.755,-15040.0,-4800.0,1344.0
6.7575,-15168.0,-4800.0,1344.0
6.76,-15104.0,-4864.0,1344.0
6.7625,-15168.0,-4864.0,1344.0
6.765,-15232.0,-4928.0,1344.0
6.7675,-15296.0,-4928.0,1280.0
6.77,-15296.0,-4928.0,1344.0
6.7725,-15360.0,-4992.0,1280.0
6.775,-15424.0,-4992.0,1280.0
6.7775,-15424.0,-5056.0,1216.0
6.78,-15488.0,-5056.0,1088.0
6.7825,-15552.0,-5120.0,1152.0
6.785,-15552.0,-5120.0,1024.0
6.7875,-15552.0,-5120.0,1088.0
6.79,-15552.0,-5184.0,1088.0
6.7925,-15552.0,-5120.0,960.0
6.795,-15680.0,-5120.0,1024.0
6.7975,-15680.0,-5184.0,896.0
6.8,-15680.0,-5184.0,832.0
6.8025,-15744.0,-5248.0,832.0
6.805,-15680.0,-5184.0,768.0
6.8075,-15680.0,-5184.0,832.0
6.81,-15680.0,-5120.0,704.0
6.8125,-15680.0,-5120.0,704.0
6.815,-15680.0,-5184.0,640.0
6.8175,-15744.0,-5184.0,704.0
6.82,-15680.0,-5184.0,768.0
6.8225,-15680.0,-5184.0,640.0
6.825,-15744.0,-5184.0,640.0
6.8275,-15680.0,-5248.0,576.0
6.83,-15744.0,-5184.0,640.0
6.8325,-15744.0,-5248.0,704.0
6.835,-15616.0,-5248.0,640.0
6.8375,-15680.0,-5376.0,640.0
6.84,-15680.0,-5312.0,640.0
6.8425,-15744.0,-5312.0,640.0
6.845,-15744.0,-5312.0,512.0
6.8475,-15744.0,-5376.0,512.0
6.85,-15808.0,-5376.0,512.0
6.8525,-15808.0,-5376.0,512.0
6.855,-15744.0,-5440.0,448.0
6.8575,-15744.0,-5440.0,448.0
6.86,-15744.0,-5440.0,448.0
6.8625,-15680.0,-5440.0,448.0
6.865,-15680.0,-5504.0,512.0
6.8675,-15616.0,-5440.0,448.0
6.87,-15680.0,-5504.0,448.0
6.8725,-15680.0,-5568.0,448.0
6.875,-15616.0,-5504.0,384.0
6.8775,-15616.0,-5568.0,448.0
6.88,-15680.0,-5632.0,448.0
6.8825,-15680.0,-5632.0,448.0
6.885,-15680.0,-5632.0,320.0
6.8875,-15680.0,-5632.0,448.0
6.89,-15680.0,-5632.0,512.0
6.8925,-15552.0,-5632.0,384.0
6.895,-15488.0,-5632.0,384.0
6.8975,-15552.0,-5696.0,384.0
6.9,-15488.0,-5696.0,448.0
6.9025,-15360.0,-5632.0,320.0
6.905,-15296.0,-5568.0,384.0
6.9075,-15168.0,-5568.0,320.0
6.91,-15104.0,-5504.0,320.0
6.9125,-15104.0,-5568.0,256.0
6.915,-15104.0,-5568.0,256.0
6.9175,-15040.0,-5504.0,256.0
6.92,-15040.0,-5504.0,256.0
6.9225,-14976.0,-5504.0,256.0
6.925,-14912.0,-5504.0,320.0
6.9275,-14976.0,-5504.0,320.0
6.93,-14848.0,-5504.0,256.0
6.9325,-14848.0,-5376.0,320.0
6.935,-14848.0,-5440.0,256.0
6.9375,-14848.0,-5376.0,256.0
6.94,-14848.0,-5376.0,320.0
6.9425,-14912.0,-5248.0,320.0
6.945,-14912.0,-5312.0,384.0
6.9475,-14912.0,-5248.0,256.0
6.95,-14976.0,-5248.0,320.0
6.9525,-14976.0,-5248.0,384.0
6.955,-14976.0,-5248.0,384.0
6.9575,-14976.0,-5312.0,320.0
6.96,-15040.0,-5248.0,256.0
6.9625,-15168.0,-5248.0,256.0
6.965,-15168.0,-5312.0,320.0
6.9675,-15296.0,-5376.0,320.0
6.97,-15296.0,-5376.0,384.0
6.9725,-15360.0,-5312.0,320.0
6.975,-15360.0,-5312.0,320.0
6.9775,-15488.0,-5312.0,384.0
6.98,-15616.0,-5376.0,448.0
6.9825,-15552.0,-5312.0,384.0
6.985,-15616.0,-5376.0,320.0
6.9875,-15616.0,-5376.0,320.0
6.99,-15680.0,-5312.0,320.0
6.9925,-15744.0,-5312.0,320.0
6.995,-15744.0,-5248.0,192.0
6.9975,-15744.0,-5248.0,256.0
7.0,-15808.0,-5248.0,256.0
7.0025,-15808.0,-5248.0,192.0
7.005,-15872.0,-5248.0,128.0
7.0075,-15936.0,-5248.0,192.0
7.01,-15936.0,-5248.0,192.0
7.0125,-15872.0,-5248.0,256.0
7.015,-15936.0,-5184.0,256.0
7.0175,-15936.0,-5120.0,256.0
7.02,-15936.0,-5120.0,256.0
7.0225,-15936.0,-5056.0,256.0
7.025,-15936.0,-5056.0,320.0
7.0275,-15936.0,-5056.0,256.0
7.03,-15872.0,-4992.0,192.0
7.0325,-15872.0,-5056.0,128.0
7.035,-15872.0,-4992.0,128.0
7.0375,-15872.0,-4992.0,128.0
7.04,-15936.0,-4992.0,128.0
7.0425,-15872.0,-4992.0,128.0
7.045,-15872.0,-4928.0,128.0
7.0475,-15808.0,-4992.0,64.0
7.05,-15872.0,-4928.0,128.0
7.0525,-15808.0,-4864.0,192.0
7.055,-15744.0,-4864.0,192.0
7.0575,-15744.0,-4800.0,256.0
7.06,-15744.0,-4864.0,256.0
7.0625,-15744.0,-4928.0,320.0
7.065,-15616.0,-4864.0,256.0
7.0675,-15616.0,-4928.0,256.0
7.07,-15616.0,-4928.0,320.0
7.0725,-15552.0,-4864.0,384.0
7.075,-15488.0,-4864.0,448.0
7.0775,-15424.0,-4800.0,384.0
7.08,-15360.0,-4864.0,384.0
7.0825,-15360.0,-4864.0,384.0
7.085,-15296.0,-4864.0,384.0
7.0875,-15296.0,-4800.0,320.0
7.09,-15296.0,-4736.0,384.0
7.0925,-15232.0,-4800.0,384.0
7.095,-15232.0,-4736.0,384.0
7.0975,-15232.0,-4736.0,384.0
7.1,-15232.0,-4736.0,384.0
7.1025,-15168.0,-4736.0,384.0
7.105,-15168.0,-4736.0,448.0
7.1075,-15168.0,-4672.0,512.0
7.11,-15104.0,-4736.0,576.0
7.1125,-15168.0,-4672.0,512.0
7.115,-15104.0,-4672.0,384.0
7.1175,-15040.0,-4672.0,384.0
7.12,-15040.0,-4672.0,448.0
7.1225,-14976.0,-4672.0,448.0
7.125,-14976.0,-4672.0,448.0
7.1275,-14976.0,-4672.0,384.0
7.13,-14976.0,-4736.0,448.0
7.1325,-14912.0,-4800.0,512.0
7.135,-14912.0,-4736.0,576.0
7.1375,-14912.0,-4736.0,512.0
7.14,-14784.0,-4736.0,384.0
7.1425,-14784.0,-4672.0,448.0
7.145,-14848.0,-4736.0,512.0
7.1475,-14848.0,-4672.0,576.0
7.15,-14720.0,-4736.0,512.0
7.1525,-14720.0,-4736.0,576.0
7.155,-14720.0,-4800.0,640.0
7.1575,-14720.0,-4736.0,704.0
7.16,-14784.0,-4672.0,640.0
7.1625,-14784.0,-4672.0,704.0
7.165,-14784.0,-4672.0,768.0
7.1675,-14848.0,-4672.0,768.0
7.17,-14848.0,-4608.0,768.0
7.1725,-14912.0,-4608.0,832.0
7.175,-14848.0,-4608.0,832.0
7.1775,-14848.0,-4672.0,832.0
7.18,-14912.0,-4672.0,832.0
7.1825,-14848.0,-4672.0,832.0
7.185,-14848.0,-4672.0,832.0
7.1875,-14912.0,-4672.0,832.0
7.19,-14912.0,-4672.0,768.0
7.1925,-14976.0,-4672.0,704.0
7.195,-14912.0,-4672.0,704.0
7.1975,-14912.0,-4608.0,704.0
7.2,-14976.0,-4672.0,768.0
7.2025,-14912.0,-4608.0,704.0
7.205,-14912.0,-4608.0,640.0
7.2075,-14976.0,-4544.0,768.0
7.21,-14976.0,-4608.0,768.0
7.2125,-14912.0,-4480.0,640.0
7.215,-14912.0,-4480.0,704.0
7.2175,-14912.0,-4480.0,704.0
7.22,-14912.0,-4480.0,832.0
7.2225,-14976.0,-4480.0,896.0
7.225,-14912.0,-4352.0,768.0
7.2275,-14912.0,-4416.0,896.0
7.23,-14912.0,-4416.0,832.0
7.2325,-14848.0,-4416.0,896.0
7.235,-14912.0,-4480.0,768.0
7.2375,-14912.0,-4416.0,832.0
7.24,-14912.0,-4416.0,960.0
7.2425,-14912.0,-4416.0,960.0
7.245,-14912.0,-4416.0,960.0
7.2475,-14976.0,-4352.0,960.0
7.25,-14976.0,-4416.0,1024.0
7.2525,-14976.0,-4416.0,960.0
7.255,-14976.0,-4416.0,1024.0
7.2575,-14976.0,-4352.0,1088.0
7.26,-14912.0,-4416.0,1088.0
7.2625,-14912.0,-4416.0,1152.0
7.265,-14848.0,-4480.0,1088.0
7.2675,-14784.0,-4416.0,1088.0
7.27,-14720.0,-4416.0,1088.0
7.2725,-14656.0,-4352.0,1024.0
7.275,-14592.0,-4352.0,1088.0
7.2775,-14528.0,-4352.0,1088.0
7.28,-14400.0,-4288.0,1088.0
7.2825,-14336.0,-4224.0,1024.0
7.285,-14272.0,-4288.0,1088.0
7.2875,-14272.0,-4224.0,1152.0
7.29,-14208.0,-4224.0,1216.0
7.2925,-14208.0,-4160.0,1280.0
7.295,-14144.0,-4160.0,1152.0
7.2975,-14144.0,-4096.0,1216.0
7.3,-14144.0,-4160.0,1280.0
7.3025,-14144.0,-4096.0,1280.0
7.305,-14208.0,-4096.0,1216.0
7.3075,-14144.0,-4032.0,1152.0
7.31,-14144.0,-4096.0,1152.0
7.3125,-14208.0,-4032.0,1216.0
7.315,-14208.0,-4032.0,1280.0
7.3175,-14144.0,-4096.0,1216.0
7.32,-14208.0,-4096.0,1216.0
7.3225,-14208.0,-4096.0,1024.0
7.325,-14272.0,-4096.0,1152.0
7.3275,-14272.0,-4032.0,1216.0
7.33,-14400.0,-4096.0,1216.0
7.3325,-14400.0,-4160.0,1152.0
7.335,-14400.0,-4160.0,1216.0
7.3375,-14336.0,-4160.0,1152.0
7.34,-14336.0,-4160.0,1152.0
7.3425,-14400.0,-4160.0,1216.0
7.345,-14336.0,-4160.0,1216.0
7.3475,-14400.0,-4224.0,1152.0
7.35,-14400.0,-4224.0,1216.0
7.3525,-14336.0,-4224.0,1152.0
7.355,-14400.0,-4224.0,1216.0
7.3575,-14400.0,-4224.0,1216.0
7.36,-14464.0,-4224.0,1216.0
7.3625,-14464.0,-4224.0,1088.0
7.365,-14464.0,-4224.0,1024.0
7.3675,-14464.0,-4288.0,1088.0
7.37,-14464.0,-4224.0,1024.0
7.3725,-14464.0,-4224.0,896.0
7.375,-14464.0,-4224.0,960.0
7.3775,-14464.0,-4224.0,1088.0
7.38,-14528.0,-4224.0,1024.0
7.3825,-14464.0,-4160.0,1024.0
7.385,-14336.0,-4160.0,960.0
7.3875,-14336.0,-4224.0,960.0
7.39,-14272.0,-4160.0,960.0
7.3925,-14208.0,-4224.0,896.0
7.395,-14272.0,-4160.0,896.0
7.3975,-14208.0,-4160.0,896.0
7.4,-14144.0,-4160.0,896.0
7.4025,-14144.0,-4032.0,960.0
7.405,-14144.0,-3968.0,1024.0
7.4075,-14144.0,-3968.0,1024.0
7.41,-14080.0,-3968.0,960.0
7.4125,-14144.0,-3904.0,1024.0
7.415,-14144.0,-3968.0,1024.0
7.4175,-14080.0,-3968.0,1024.0
7.42,-14144.0,-3904.0,1024.0
7.4225,-14144.0,-3904.0,1024.0
7.425,-14208.0,-3904.0,1024.0
7.4275,-14208.0,-3904.0,1024.0
7.43,-14144.0,-3904.0,1024.0
7.4325,-14208.0,-3968.0,1088.0
7.435,-14208.0,-3968.0,1152.0
7.4375,-14272.0,-3904.0,1152.0
7.44,-14336.0,-3904.0,1152.0
7.4425,-14272.0,-3968.0,1088.0
7.445,-14336.0,-3968.0,1216.0
7.4475,-14336.0,-4032.0,1216.0
7.45,-14272.0,-3968.0,1216.0
7.4525,-14208.0,-4032.0,1088.0
7.455,-14208.0,-3968.0,1152.0
7.4575,-14208.0,-3968.0,1152.0
7.46,-14272.0,-4032.0,1088.0
7.4625,-14272.0,-4096.0,1088.0
7.465,-14208.0,-4096.0,1024.0
7.4675,-14208.0,-4096.0,1024.0
7.47,-14144.0,-4096.0,1024.0
7.4725,-14144.0,-4096.0,960.0
7.475,-14080.0,-4096.0,960.0
7.4775,-14080.0,-4096.0,1024.0
7.48,-14080.0,-4096.0,1024.0
7.4825,-14080.0,-4096.0,960.0
7.485,-14016.0,-4096.0,1024.0
7.4875,-14016.0,-4160.0,1024.0
7.49,-13952.0,-4096.0,960.0
7.4925,-13888.0,-4032.0,960.0
7.495,-13888.0,-4096.0,960.0
7.4975,-13952.0,-4096.0,896.0
7.5,-13952.0,-4032.0,1024.0
7.5025,-13952.0,-4032.0,1024.0
7.505,-13888.0,-4096.0,960.0
7.5075,-13888.0,-4032.0,960.0
7.51,-13824.0,-4032.0,1024.0
7.5125,-13760.0,-3968.0,1024.0
7.515,-13760.0,-3968.0,1024.0
7.5175,-13760.0,-3968.0,1024.0
7.52,-13632.0,-3968.0,1088.0
7.5225,-13632.0,-3968.0,1088.0
7.525,-13568.0,-3968.0,1088.0
7.5275,-13568.0,-3904.0,1152.0
7.53,-13504.0,-3840.0,1088.0
7.5325,-13632.0,-3904.0,1088.0
7.535,-13568.0,-3904.0,1152.0
7.5375,-13568.0,-3840.0,1088.0
7.54,-13632.0,-3904.0,1216.0
7.5425,-13632.0,-3904.0,1344.0
7.545,-13696.0,-3968.0,1216.0
7.5475,-13696.0,-3968.0,1216.0
7.55,-13760.0,-4032.0,1280.0
7.5525,-13760.0,-3968.0,1280.0
7.555,-13760.0,-3968.0,1280.0
7.5575,-13824.0,-3968.0,1216.0
7.56,-13888.0,-3968.0,1280.0
7.5625,-13888.0,-4032.0,1344.0
7.565,-13824.0,-3968.0,1344.0
7.5675,-13888.0,-3968.0,1216.0
7.57,-13952.0,-4032.0,1280.0
7.5725,-14016.0,-4032.0,1280.0
7.575,-14016.0,-4032.0,1152.0
7.5775,-14080.0,-4032.0,1152.0
7.58,-14144.0,-4032.0,1216.0
7.5825,-14208.0,-4096.0,1216.0
7.585,-14272.0,-4096.0,1216.0
7.5875,-14336.0,-4096.0,1280.0
7.59,-14400.0,-4096.0,1344.0
7.5925,-14464.0,-4160.0,1344.0
7.595,-14400.0,-4096.0,1344.0
7.5975,-14464.0,-4160.0,1344.0
7.6,-14656.0,-4224.0,1408.0
7.6025,-14720.0,-4288.0,1408.0
7.605,-14720.0,-4288.0,1536.0
7.6075,-14656.0,-4288.0,1472.0
7.61,-14720.0,-4224.0,1408.0
7.6125,-14784.0,-4224.0,1472.0
7.615,-14848.0,-4224.0,1472.0
7.6175,-14784.0,-4224.0,1408.0
7.62,-14848.0,-4224.0,1216.0
7.6225,-14912.0,-4160.0,1216.0
7.625,-15040.0,-4160.0,1344.0
7.6275,-15104.0,-4224.0,1344.0
7.63,-15168.0,-4224.0,1408.0
7.6325,-15232.0,-4224.0,1408.0
7.635,-15424.0,-4224.0,1408.0
7.6375,-15488.0,-4224.0,1344.0
7.64,-15552.0,-4352.0,1280.0
7.6425,-15616.0,-4288.0,1280.0
7.645,-15680.0,-4288.0,1280.0
7.6475,-15744.0,-4352.0,1408.0
7.65,-15808.0,-4352.0,1408.0
7.6525,-15936.0,-4416.0,1408.0
7.655,-16000.0,-4352.0,1472.0
7.6575,-16064.0,-4416.0,1536.0
7.66,-16192.0,-4352.0,1600.0
7.6625,-16192.0,-4416.0,1664.0
7.665,-16256.0,-4416.0,1728.0
7.6675,-16320.0,-4416.0,1728.0
7.67,-16384.0,-4416.0,1664.0
7.6725,-16448.0,-4480.0,1792.0
7.675,-16576.0,-4480.0,1856.0
7.6775,-16704.0,-4544.0,1920.0
7.68,-16896.0,-4544.0,1984.0
7.6825,-17024.0,-4544.0,1984.0
7.685,-17216.0,-4544.0,2048.0
7.6875,-17408.0,-4544.0,2048.0
7.69,-17472.0,-4544.0,2240.0
7.6925,-17536.0,-4544.0,2176.0
7.695,-17600.0,-4544.0,2240.0
7.6975,-17600.0,-4480.0,2176.0
7.7,-17536.0,-4416.0,2112.0
7.7025,-17536.0,-4416.0,2112.0
7.705,-17536.0,-4480.0,2112.0
7.7075,-17536.0,-4480.0,2112.0
7.71,-17536.0,-4480.0,2176.0
7.7125,-17408.0,-4416.0,2048.0
7.715,-17472.0,-4416.0,1984.0
7.7175,-17408.0,-4352.0,1856.0
7.72,-17408.0,-4352.0,1856.0
7.7225,-17408.0,-4288.0,1856.0
7.725,-17280.0,-4288.0,1856.0
7.7275,-17216.0,-4224.0,1792.0
7.73,-17216.0,-4160.0,1856.0
7.7325,-17152.0,-4096.0,1920.0
7.735,-17152.0,-4096.0,1920.0
7.7375,-17088.0,-4096.0,1920.0
7.74,-17152.0,-4032.0,1920.0
7.7425,-17088.0,-3968.0,2048.0
7.745,-17088.0,-3968.0,2112.0
7.7475,-17088.0,-3904.0,2176.0
7.75,-17024.0,-3904.0,2176.0
7.7525,-16960.0,-3904.0,2240.0
7.755,-16896.0,-3968.0,2240.0
7.7575,-16896.0,-3904.0,2304.0
7.76,-16832.0,-3968.0,2368.0
7.7625,-16768.0,-3968.0,2368.0
7.765,-16704.0,-3968.0,2432.0
7.7675,-16768.0,-3968.0,2496.0
7.77,-16768.0,-4032.0,2560.0
7.7725,-16704.0,-4032.0,2496.0
7.775,-16704.0,-3968.0,2496.0
7.7775,-16640.0,-4032.0,2432.0
7.78,-16640.0,-4032.0,2432.0
7.7825,-16576.0,-4032.0,2368.0
7.785,-16512.0,-4032.0,2304.0
7.7875,-16512.0,-3968.0,2304.0
7.79,-16512.0,-3968.0,2304.0
7.7925,-16512.0,-3968.0,2240.0
7.795,-16512.0,-3968.0,2176.0
7.7975,-16512.0,-4032.0,2048.0
7.8,-16512.0,-4032.0,2048.0
7.8025,-16576.0,-4032.0,2048.0
7.805,-16512.0,-4032.0,2048.0
7.8075,-16512.0,-4032.0,1920.0
7.81,-16448.0,-4032.0,1984.0
7.8125,-16384.0,-4032.0,1920.0
7.815,-16384.0,-4032.0,1856.0
7.8175,-16384.0,-4032.0,1856.0
7.82,-16320.0,-4032.0,1792.0
7.8225,-16320.0,-3968.0,1728.0
7.825,-16384.0,-3968.0,1728.0
7.8275,-16384.0,-3904.0,1728.0
7.83,-16384.0,-3904.0,1664.0
7.8325,-16320.0,-3904.0,1600.0
7.835,-16448.0,-3968.0,1600.0
7.8375,-16512.0,-3904.0,1600.0
7.84,-16640.0,-4032.0,1728.0
7.8425,-16704.0,-4096.0,1664.0
7.845,-16704.0,-4032.0,1728.0
7.8475,-16704.0,-4032.0,1664.0
7.85,-16704.0,-4096.0,1664.0
7.8525,-16704.0,-4096.0,1600.0
7.855,-16640.0,-4096.0,1536.0
7.8575,-16640.0,-4160.0,1472.0
7.86,-16640.0,-4096.0,1472.0
7.8625,-16640.0,-4096.0,1536.0
7.865,-16640.0,-4096.0,1472.0
7.8675,-16640.0,-4096.0,1472.0
7.87,-16640.0,-4032.0,1472.0
7.8725,-16576.0,-4032.0,1408.0
7.875,-16576.0,-4096.0,1408.0
7.8775,-16576.0,-4032.0,1408.0
7.88,-16512.0,-4032.0,1344.0
7.8825,-16512.0,-3968.0,1280.0
7.885,-16448.0,-3968.0,1280.0
7.8875,-16512.0,-3968.0,1344.0
7.89,-16512.0,-3904.0,1344.0
7.8925,-16576.0,-3904.0,1408.0
7.895,-16576.0,-3904.0,1408.0
7.8975,-16576.0,-3968.0,1472.0
7.9,-16640.0,-3840.0,1536.0
7.9025,-16640.0,-3904.0,1536.0
7.905,-16704.0,-3904.0,1600.0
7.9075,-16640.0,-3904.0,1600.0
7.91,-16640.0,-3904.0,1600.0
7.9125,-16640.0,-3904.0,1664.0
7.915,-16704.0,-3968.0,1664.0
7.9175,-16576.0,-3968.0,1728.0
7.92,-16640.0,-4032.0,1792.0
7.9225,-16704.0,-4032.0,1728.0
7.925,-16640.0,-3968.0,1728.0
7.9275,-16640.0,-3968.0,1664.0
7.93,-16704.0,-4032.0,1664.0
7.9325,-16704.0,-4032.0,1600.0
7.935,-16768.0,-4032.0,1600.0
7.9375,-16768.0,-4032.0,1536.0
7.94,-16768.0,-3968.0,1536.0
7.9425,-16768.0,-4032.0,1536.0
7.945,-16768.0,-3968.0,1472.0
7.9475,-16768.0,-3968.0,1472.0
7.95,-16768.0,-3968.0,1536.0
7.9525,-16832.0,-3904.0,1472.0
7.955,-16832.0,-3968.0,1472.0
7.9575,-16768.0,-3904.0,1472.0
7.96,-16832.0,-3840.0,1536.0
7.9625,-16832.0,-3776.0,1536.0
7.965,-16832.0,-3840.0,1472.0
7.9675,-16896.0,-3840.0,1408.0
7.97,-16960.0,-3840.0,1408.0
7.9725,-16960.0,-3776.0,1472.0
7.975,-16896.0,-3840.0,1408.0
7.9775,-16960.0,-3840.0,1472.0
7.98,-16896.0,-3776.0,1472.0
7.9825,-16896.0,-3776.0,1536.0
7.985,-16896.0,-3712.0,1536.0
7.9875,-16832.0,-3712.0,1600.0
7.99,-16896.0,-3776.0,1600.0
7.9925,-16960.0,-3776.0,1600.0
7.995,-16896.0,-3840.0,1600.0
7.9975,-16960.0,-3840.0,1664.0
8.0,-16960.0,-3840.0,1664.0
8.0025,-17024.0,-3776.0,1600.0
8.005,-16960.0,-3776.0,1664.0
8.0075,-16960.0,-3776.0,1728.0
8.01,-17024.0,-3776.0,1664.0
8.0125,-17088.0,-3712.0,1728.0
8.015,-17152.0,-3712.0,1728.0
8.0175,-17152.0,-3648.0,1728.0
8.02,-17216.0,-3712.0,1728.0
8.0225,-17280.0,-3648.0,1792.0
8.025,-17280.0,-3648.0,1856.0
8.0275,-17344.0,-3584.0,1856.0
8.03,-17344.0,-3648.0,1792.0
8.0325,-17408.0,-3584.0,1856.0
8.035,-17344.0,-3584.0,1792.0
8.0375,-17408.0,-3584.0,1792.0
8.04,-17344.0,-3584.0,1856.0
8.0425,-17344.0,-3584.0,1856.0
8.045,-17344.0,-3584.0,1920.0
8.0475,-17280.0,-3584.0,1920.0
8.05,-17216.0,-3520.0,1920.0
8.0525,-17216.0,-3520.0,1920.0
8.055,-17216.0,-3456.0,1984.0
8.0575,-17152.0,-3520.0,1920.0
8.06,-17152.0,-3520.0,1984.0
8.0625,-17152.0,-3520.0,1984.0
8.065,-17152.0,-3456.0,1984.0
8.0675,-17088.0,-3520.0,2048.0
8.07,-17088.0,-3520.0,2048.0
8.0725,-17024.0,-3520.0,1984.0
8.075,-17024.0,-3520.0,2048.0
8.0775,-16960.0,-3456.0,2048.0
8.08,-17024.0,-3520.0,2112.0
8.0825,-16960.0,-3392.0,2112.0
8.085,-16896.0,-3392.0,2112.0
8.0875,-16896.0,-3392.0,2176.0
8.09,-16832.0,-3328.0,2240.0
8.0925,-16768.0,-3328.0,2304.0
8.095,-16768.0,-3264.0,2240.0
8.0975,-16768.0,-3200.0,2176.0
8.1,-16832.0,-3264.0,2304.0
8.1025,-16832.0,-3264.0,2304.0
8.105,-16768.0,-3264.0,2304.0
8.1075,-16832.0,-3264.0,2304.0
8.11,-16832.0,-3264.0,2304.0
8.1125,-16832.0,-3264.0,2304.0
8.115,-16896.0,-3264.0,2304.0
8.1175,-16960.0,-3200.0,2304.0
8.12,-16960.0,-3328.0,2304.0
8.1225,-16960.0,-3200.0,2304.0
8.125,-16960.0,-3200.0,2304.0
8.1275,-16960.0,-3200.0,2304.0
8.13,-16960.0,-3264.0,2368.0
8.1325,-16960.0,-3200.0,2368.0
8.135,-16896.0,-3264.0,2304.0
8.1375,-16832.0,-3264.0,2368.0
8.14,-16896.0,-3264.0,2304.0
8.1425,-16896.0,-3264.0,2304.0
8.145,-16896.0,-3264.0,2304.0
8.1475,-16832.0,-3328.0,2304.0
8.15,-16832.0,-3264.0,2304.0
8.1525,-16832.0,-3264.0,2240.0
8.155,-16832.0,-3264.0,2240.0
8.1575,-16896.0,-3264.0,2304.0
8.16,-16960.0,-3264.0,2304.0
8.1625,-17024.0,-3200.0,2176.0
8.165,-17024.0,-3200.0,2112.0
8.1675,-17088.0,-3264.0,2176.0
8.17,-17216.0,-3264.0,2176.0
8.1725,-17280.0,-3200.0,2112.0
8.175,-17280.0,-3200.0,2048.0
8.1775,-17344.0,-3200.0,2112.0
8.18,-17472.0,-3200.0,2112.0
8.1825,-17472.0,-3264.0,2112.0
8.185,-17536.0,-3200.0,2048.0
8.1875,-17536.0,-3200.0,2048.0
8.19,-17536.0,-3136.0,2048.0
8.1925,-17536.0,-3200.0,2048.0
8.195,-17536.0,-3264.0,2048.0
8.1975,-17536.0,-3264.0,2112.0
8.2,-17536.0,-3264.0,2112.0
8.2025,-17472.0,-3328.0,2112.0
8.205,-17536.0,-3328.0,2112.0
8.2075,-17472.0,-3328.0,2112.0
8.21,-17536.0,-3328.0,2112.0
8.2125,-17472.0,-3328.0,2176.0
8.215,-17408.0,-3328.0,2240.0
8.2175,-17408.0,-3328.0,2176.0
8.22,-17344.0,-3264.0,2176.0
8.2225,-17280.0,-3264.0,2176.0
8.225,-17280.0,-3264.0,2176.0
8.2275,-17216.0,-3264.0,2112.0
8.23,-17216.0,-3264.0,2240.0
8.2325,-17216.0,-3328.0,2240.0
8.235,-17152.0,-3264.0,2176.0
8.2375,-17152.0,-3264.0,2112.0
8.24,-17088.0,-3264.0,2112.0
8.2425,-17152.0,-3264.0,2112.0
8.245,-17152.0,-3264.0,2048.0
8.2475,-17088.0,-3200.0,1920.0
8.25,-17088.0,-3200.0,1984.0
8.2525,-17088.0,-3200.0,2112.0
8.255,-17088.0,-3200.0,2112.0
8.2575,-17024.0,-3200.0,1984.0
8.26,-17088.0,-3200.0,2112.0
8.2625,-17088.0,-3200.0,2176.0
8.265,-17152.0,-3200.0,2176.0
8.2675,-17088.0,-3264.0,2176.0
8.27,-17152.0,-3200.0,2112.0
8.2725,-17152.0,-3264.0,2112.0
8.275,-17216.0,-3200.0,2112.0
8.2775,-17216.0,-3200.0,2112.0
8.28,-17152.0,-3200.0,2112.0
8.2825,-17216.0,-3264.0,2112.0
8.285,-17280.0,-3200.0,2112.0
8.2875,-17344.0,-3264.0,2048.0
8.29,-17344.0,-3264.0,2112.0
8.2925,-17408.0,-3328.0,2048.0
8.295,-17472.0,-3328.0,2048.0
8.2975,-17472.0,-3392.0,2112.0
8.3,-17536.0,-3328.0,1984.0
8.3025,-17536.0,-3392.0,2048.0
8.305,-17472.0,-3392.0,2112.0
8.3075,-17536.0,-3456.0,2112.0
8.31,-17536.0,-3520.0,2112.0
8.3125,-17536.0,-3520.0,2240.0
8.315,-17536.0,-3520.0,2240.0
8.3175,-17472.0,-3456.0,2112.0
8.32,-17408.0,-3456.0,2240.0
8.3225,-17408.0,-3392.0,2304.0
8.325,-17280.0,-3392.0,2176.0
8.3275,-17152.0,-3328.0,2048.0
8.33,-17088.0,-3328.0,1984.0
8.3325,-17152.0,-3264.0,1920.0
8.335,-17152.0,-3264.0,1920.0
8.3375,-17088.0,-3264.0,1856.0
8.34,-16960.0,-3200.0,1792.0
8.3425,-17024.0,-3264.0,1856.0
8.345,-17024.0,-3328.0,1856.0
8.3475,-16960.0,-3264.0,1792.0
8.35,-17024.0,-3328.0,1856.0
8.3525,-17024.0,-3328.0,1856.0
8.355,-17088.0,-3328.0,1920.0
8.3575,-17024.0,-3328.0,1984.0
8.36,-17088.0,-3328.0,1984.0
8.3625,-17088.0,-3328.0,1984.0
8.365,-17152.0,-3264.0,2048.0
8.3675,-17088.0,-3264.0,2048.0
8.37,-17088.0,-3328.0,1920.0
8.3725,-17088.0,-3328.0,1920.0
8.375,-17024.0,-3328.0,1920.0
8.3775,-17024.0,-3392.0,1984.0
8.38,-17088.0,-3392.0,1984.0
8.3825,-17024.0,-3392.0,2048.0
8.385,-17088.0,-3392.0,1984.0
8.3875,-17088.0,-3392.0,2048.0
8.39,-17152.0,-3456.0,1920.0
8.3925,-17024.0,-3456.0,1984.0
8.395,-17152.0,-3392.0,1984.0
8.3975,-17088.0,-3392.0,2048.0
8.4,-17088.0,-3456.0,1984.0
8.4025,-17088.0,-3520.0,1984.0
8.405,-17088.0,-3456.0,1856.0
8.4075,-17088.0,-3456.0,1984.0
8.41,-17088.0,-3520.0,1984.0
8.4125,-17088.0,-3520.0,1856.0
8.415,-17088.0,-3584.0,1856.0
8.4175,-17216.0,-3648.0,1920.0
8.42,-17152.0,-3584.0,1920.0
8.4225,-17152.0,-3648.0,1920.0
8.425,-17152.0,-3648.0,1920.0
8.4275,-17216.0,-3648.0,1856.0
8.43,-17216.0,-3648.0,1856.0
8.4325,-17216.0,-3712.0,1920.0
8.435,-17216.0,-3776.0,1920.0
8.4375,-17216.0,-3776.0,1856.0
8.44,-17216.0,-3776.0,1792.0
8.4425,-17216.0,-3776.0,1792.0
8.445,-17152.0,-3776.0,1856.0
8.4475,-17152.0,-3712.0,1792.0
8.45,-17152.0,-3776.0,1792.0
8.4525,-17088.0,-3776.0,1728.0
8.455,-17152.0,-3776.0,1664.0
8.4575,-17152.0,-3776.0,1728.0
8.46,-17152.0,-3776.0,1664.0
8.4625,-17152.0,-3776.0,1664.0
8.465,-17152.0,-3840.0,1664.0
8.4675,-17152.0,-3840.0,1536.0
8.47,-17152.0,-3776.0,1536.0
8.4725,-17088.0,-3776.0,1600.0
8.475,-17088.0,-3776.0,1600.0
8.4775,-17024.0,-3840.0,1536.0
8.48,-17024.0,-3840.0,1600.0
8.4825,-17024.0,-3840.0,1536.0
8.485,-17024.0,-3840.0,1536.0
8.4875,-17088.0,-3840.0,1600.0
8.49,-17024.0,-3840.0,1600.0
8.4925,-16960.0,-3840.0,1536.0
8.495,-16960.0,-3840.0,1536.0
8.4975,-17024.0,-3840.0,1600.0
8.5,-17024.0,-3840.0,1664.0
8.5025,-16960.0,-3840.0,1600.0
8.505,-16960.0,-3840.0,1600.0
8.5075,-16960.0,-3840.0,1536.0
8.51,-16960.0,-3776.0,1600.0
8.5125,-17024.0,-3776.0,1536.0
8.515,-17024.0,-3776.0,1600.0
8.5175,-17088.0,-3776.0,1600.0
8.52,-17088.0,-3776.0,1600.0
8.5225,-17152.0,-3776.0,1536.0
8.525,-17152.0,-3840.0,1600.0
8.5275,-17088.0,-3840.0,1664.0
8.53,-17088.0,-3776.0,1600.0
8.5325,-17024.0,-3776.0,1600.0
8.535,-17088.0,-3712.0,1600.0
8.5375,-17088.0,-3776.0,1536.0
8.54,-17088.0,-3776.0,1600.0
8.5425,-17024.0,-3776.0,1536.0
8.545,-17024.0,-3712.0,1600.0
8.5475,-17024.0,-3776.0,1536.0
8.55,-17024.0,-3776.0,1536.0
8.5525,-16960.0,-3776.0,1472.0
8.555,-17024.0,-3840.0,1472.0
8.5575,-17024.0,-3776.0,1472.0
8.56,-17088.0,-3840.0,1472.0
8.5625,-17024.0,-3776.0,1472.0
8.565,-17024.0,-3776.0,1472.0
8.5675,-17024.0,-3776.0,1536.0
8.57,-17088.0,-3840.0,1600.0
8.5725,-17152.0,-3776.0,1600.0
8.575,-17088.0,-3840.0,1472.0
8.5775,-17152.0,-3840.0,1536.0
8.58,-17152.0,-3840.0,1664.0
8.5825,-17216.0,-3840.0,1664.0
8.585,-17152.0,-3904.0,1600.0
8.5875,-17088.0,-3904.0,1600.0
8.59,-17088.0,-3840.0,1600.0
8.5925,-17152.0,-3904.0,1600.0
8.595,-17152.0,-3904.0,1600.0
8.5975,-17088.0,-3968.0,1600.0
8.6,-17088.0,-3904.0,1600.0
8.6025,-16960.0,-3904.0,1536.0
8.605,-16960.0,-3904.0,1472.0
8.6075,-16960.0,-3968.0,1472.0
8.61,-16960.0,-3968.0,1472.0
8.6125,-16896.0,-4032.0,1536.0
8.615,-16896.0,-4032.0,1472.0
8.6175,-16768.0,-4032.0,1472.0
8.62,-16832.0,-4032.0,1408.0
8.6225,-16768.0,-4032.0,1344.0
8.625,-16768.0,-3968.0,1472.0
8.6275,-16768.0,-4032.0,1472.0
8.63,-16768.0,-4032.0,1408.0
8.6325,-16704.0,-4032.0,1472.0
8.635,-16768.0,-4032.0,1536.0
8.6375,-16768.0,-4032.0,1536.0
8.64,-16704.0,-4032.0,1600.0
8.6425,-16576.0,-4032.0,1536.0
8.645,-16576.0,-3968.0,1472.0
8.6475,-16576.0,-3968.0,1408.0
8.65,-16576.0,-4032.0,1536.0
8.6525,-16576.0,-3968.0,1536.0
8.655,-16704.0,-3904.0,1600.0
8.6575,-16640.0,-3968.0,1600.0
8.66,-16640.0,-3904.0,1536.0
8.6625,-16704.0,-3904.0,1600.0
8.665,-16704.0,-3904.0,1664.0
8.6675,-16704.0,-3840.0,1728.0
8.67,-16640.0,-3904.0,1728.0
8.6725,-16576.0,-3904.0,1728.0
8.675,-16640.0,-3904.0,1728.0
8.6775,-16576.0,-3904.0,1728.0
8.68,-16576.0,-3904.0,1728.0
8.6825,-16576.0,-3968.0,1728.0
8.685,-16576.0,-3904.0,1728.0
8.6875,-16512.0,-3968.0,1728.0
8.69,-16512.0,-3904.0,1664.0
8.6925,-16448.0,-3968.0,1664.0
8.695,-16320.0,-3968.0,1664.0
8.6975,-16320.0,-3968.0,1600.0
8.7,-16256.0,-3904.0,1600.0
8.7025,-16192.0,-3904.0,1600.0
8.705,-16192.0,-3904.0,1600.0
8.7075,-16128.0,-3904.0,1600.0
8.71,-16064.0,-3904.0,1600.0
8.7125,-16000.0,-3904.0,1600.0
8.715,-16000.0,-3968.0,1472.0
8.7175,-15936.0,-3904.0,1472.0
8.72,-15936.0,-3904.0,1600.0
8.7225,-15936.0,-3968.0,1536.0
8.725,-15872.0,-3968.0,1536.0
8.7275,-15936.0,-4032.0,1536.0
8.73,-16000.0,-4096.0,1536.0
8.7325,-16000.0,-4032.0,1536.0
8.735,-16000.0,-4032.0,1600.0
8.7375,-16064.0,-4096.0,1600.0
8.74,-16000.0,-4096.0,1664.0
8.7425,-16000.0,-4096.0,1664.0
8.745,-16000.0,-4096.0,1664.0
8.7475,-15936.0,-4160.0,1600.0
8.75,-15936.0,-4160.0,1600.0
8.7525,-15936.0,-4160.0,1600.0
8.755,-15936.0,-4160.0,1600.0
8.7575,-15936.0,-4160.0,1472.0
8.76,-15936.0,-4096.0,1408.0
8.7625,-15872.0,-4160.0,1344.0
8.765,-15872.0,-4160.0,1408.0
8.7675,-15872.0,-4096.0,1408.0
8.77,-15808.0,-4160.0,1408.0
8.7725,-15872.0,-4160.0,1344.0
8.775,-15872.0,-4224.0,1344.0
8.7775,-15872.0,-4224.0,1344.0
8.78,-15936.0,-4288.0,1280.0
8.7825,-15936.0,-4288.0,1344.0
8.785,-15936.0,-4352.0,1344.0
8.7875,-16000.0,-4352.0,1344.0
8.79,-15872.0,-4352.0,1344.0
8.7925,-15936.0,-4352.0,1408.0
8.795,-15936.0,-4416.0,1344.0
8.7975,-15936.0,-4416.0,1280.0
8.8,-16000.0,-4480.0,1344.0
8.8025,-16000.0,-4480.0,1344.0
8.805,-16000.0,-4480.0,1280.0
8.8075,-15936.0,-4416.0,1152.0
8.81,-16000.0,-4480.0,1152.0
8.8125,-16000.0,-4480.0,1216.0
8.815,-15936.0,-4480.0,1280.0
8.8175,-16000.0,-4544.0,1216.0
8.82,-16000.0,-4608.0,1280.0
8.8225,-16000.0,-4544.0,1216.0
8.825,-16000.0,-4672.0,1280.0
8.8275,-16064.0,-4608.0,1152.0
8.83,-16064.0,-4672.0,1280.0
8.8325,-16064.0,-4736.0,1216.0
8.835,-16064.0,-4672.0,1216.0
8.8375,-16064.0,-4672.0,1216.0
8.84,-16000.0,-4672.0,1280.0
8.8425,-16000.0,-4672.0,1216.0
8.845,-15936.0,-4608.0,1152.0
8.8475,-15872.0,-4608.0,1088.0
8.85,-15936.0,-4544.0,1088.0
8.8525,-15872.0,-4480.0,1024.0
8.855,-15808.0,-4480.0,1088.0
8.8575,-15872.0,-4480.0,1088.0
8.86,-15808.0,-4544.0,1088.0
8.8625,-15808.0,-4416.0,1088.0
8.865,-15744.0,-4416.0,1024.0
8.8675,-15744.0,-4416.0,1088.0
8.87,-15744.0,-4416.0,1152.0
8.8725,-15744.0,-4416.0,1152.0
8.875,-15808.0,-4416.0,1152.0
8.8775,-15808.0,-4352.0,1152.0
8.88,-15808.0,-4352.0,1088.0
8.8825,-15808.0,-4416.0,1216.0
8.885,-15808.0,-4352.0,1216.0
8.8875,-15808.0,-4352.0,1216.0
8.89,-15872.0,-4352.0,1216.0
8.8925,-15872.0,-4352.0,1280.0
8.895,-15936.0,-4288.0,1280.0
8.8975,-15872.0,-4352.0,1216.0
8.9,-15936.0,-4352.0,1216.0
8.9025,-15872.0,-4352.0,1280.0
8.905,-15872.0,-4352.0,1216.0
8.9075,-15872.0,-4416.0,1280.0
8.91,-15872.0,-4416.0,1216.0
8.9125,-15936.0,-4416.0,1216.0
8.915,-15872.0,-4416.0,1280.0
8.9175,-15872.0,-4416.0,1216.0
8.92,-15872.0,-4352.0,1216.0
8.9225,-15872.0,-4416.0,1216.0
8.925,-15872.0,-4416.0,1216.0
8.9275,-15936.0,-4416.0,1216.0
8.93,-15936.0,-4416.0,1152.0
8.9325,-15936.0,-4416.0,1216.0
8.935,-15936.0,-4416.0,1216.0
8.9375,-15936.0,-4480.0,1216.0
8.94,-15936.0,-4480.0,1216.0
8.9425,-15872.0,-4480.0,1280.0
8.945,-15936.0,-4480.0,1152.0
8.9475,-15872.0,-4480.0,1152.0
8.95,-15808.0,-4544.0,1216.0
8.9525,-15872.0,-4480.0,1216.0
8.955,-15808.0,-4544.0,1088.0
8.9575,-15744.0,-4480.0,1152.0
8.96,-15744.0,-4480.0,1088.0
8.9625,-15680.0,-4416.0,1024.0
8.965,-15616.0,-4352.0,1024.0
8.9675,-15616.0,-4416.0,960.0
8.97,-15616.0,-4416.0,1024.0
8.9725,-15616.0,-4416.0,1088.0
8.975,-15552.0,-4416.0,960.0
8.9775,-15552.0,-4416.0,1024.0
8.98,-15552.0,-4416.0,1024.0
8.9825,-15552.0,-4416.0,1024.0
8.985,-15552.0,-4416.0,1024.0
8.9875,-15616.0,-4480.0,960.0
8.99,-15616.0,-4416.0,960.0
8.9925,-15680.0,-4416.0,1024.0
8.995,-15616.0,-4416.0,1088.0
8.9975,-15680.0,-4480.0,1088.0
9.0,-15680.0,-4416.0,1152.0
9.0025,-15616.0,-4416.0,1216.0
9.005,-15552.0,-4480.0,1216.0
9.0075,-15552.0,-4416.0,1280.0
9.01,-15552.0,-4416.0,1216.0
9.0125,-15552.0,-4416.0,1344.0
9.015,-15552.0,-4416.0,1280.0
9.0175,-15552.0,-4352.0,1216.0
9.02,-15488.0,-4352.0,1152.0
9.0225,-15424.0,-4416.0,1088.0
9.025,-15424.0,-4352.0,1088.0
9.0275,-15424.0,-4352.0,1024.0
9.03,-15424.0,-4416.0,1024.0
9.0325,-15424.0,-4416.0,960.0
9.035,-15360.0,-4416.0,1024.0
9.0375,-15360.0,-4416.0,960.0
9.04,-15424.0,-4416.0,896.0
9.0425,-15488.0,-4352.0,960.0
9.045,-15488.0,-4352.0,960.0
9.0475,-15488.0,-4352.0,896.0
9.05,-15552.0,-4352.0,960.0
9.0525,-15552.0,-4352.0,1024.0
9.055,-15488.0,-4416.0,960.0
9.0575,-15616.0,-4416.0,960.0
9.06,-15616.0,-4416.0,960.0
9.0625,-15616.0,-4416.0,960.0
9.065,-15616.0,-4480.0,960.0
9.0675,-15616.0,-4480.0,960.0
9.07,-15616.0,-4480.0,896.0
9.0725,-15616.0,-4416.0,896.0
9.075,-15616.0,-4480.0,832.0
9.0775,-15616.0,-4480.0,832.0
9.08,-15616.0,-4480.0,832.0
9.0825,-15616.0,-4544.0,832.0
9.085,-15616.0,-4544.0,832.0
9.0875,-15616.0,-4480.0,768.0
9.09,-15744.0,-4544.0,768.0
9.0925,-15744.0,-4544.0,768.0
9.095,-15808.0,-4608.0,768.0
9.0975,-15808.0,-4672.0,768.0
9.1,-15936.0,-4672.0,832.0
9.1025,-15872.0,-4672.0,768.0
9.105,-15872.0,-4672.0,768.0
9.1075,-15936.0,-4672.0,768.0
9.11,-15936.0,-4736.0,768.0
9.1125,-16000.0,-4672.0,832.0
9.115,-16000.0,-4672.0,832.0
9.1175,-16000.0,-4672.0,832.0
9.12,-16064.0,-4800.0,768.0
9.1225,-16064.0,-4672.0,640.0
9.125,-16000.0,-4672.0,704.0
9.1275,-16000.0,-4672.0,768.0
9.13,-16000.0,-4608.0,832.0
9.1325,-16000.0,-4672.0,896.0
9.135,-16000.0,-4672.0,768.0
9.1375,-16000.0,-4672.0,768.0
9.14,-15936.0,-4672.0,768.0
9.1425,-16000.0,-4672.0,768.0
9.145,-15936.0,-4672.0,768.0
9.1475,-15936.0,-4672.0,704.0
9.15,-15936.0,-4608.0,576.0
9.1525,-15872.0,-4608.0,640.0
9.155,-15808.0,-4608.0,640.0
9.1575,-15808.0,-4608.0,640.0
9.16,-15808.0,-4672.0,640.0
9.1625,-15808.0,-4672.0,576.0
9.165,-15872.0,-4672.0,640.0
9.1675,-15872.0,-4672.0,512.0
9.17,-15872.0,-4672.0,512.0
9.1725,-15936.0,-4736.0,576.0
9.175,-15936.0,-4736.0,576.0
9.1775,-16000.0,-4736.0,640.0
9.18,-16000.0,-4736.0,640.0
9.1825,-16000.0,-4736.0,640.0
9.185,-15936.0,-4736.0,704.0
9.1875,-16000.0,-4800.0,704.0
9.19,-15936.0,-4800.0,704.0
9.1925,-16000.0,-4800.0,640.0
9.195,-16000.0,-4864.0,640.0
9.1975,-16000.0,-4864.0,768.0
9.2,-16000.0,-4864.0,704.0
9.2025,-15936.0,-4928.0,768.0
9.205,-15936.0,-4928.0,704.0
9.2075,-15936.0,-4864.0,640.0
9.21,-15936.0,-4800.0,512.0
9.2125,-15936.0,-4864.0,448.0
9.215,-15872.0,-4864.0,512.0
9.2175,-15872.0,-4928.0,576.0
9.22,-15872.0,-4928.0,576.0
9.2225,-15808.0,-4928.0,512.0
9.225,-15872.0,-4928.0,512.0
9.2275,-15808.0,-4928.0,448.0
9.23,-15872.0,-4864.0,512.0
9.2325,-15872.0,-4928.0,576.0
9.235,-15872.0,-4992.0,576.0
9.2375,-15808.0,-4992.0,512.0
9.24,-15808.0,-4928.0,512.0
9.2425,-15808.0,-4928.0,512.0
9.245,-15808.0,-4928.0,576.0
9.2475,-15744.0,-4928.0,576.0
9.25,-15744.0,-4992.0,448.0
9.2525,-15808.0,-4992.0,512.0
9.255,-15744.0,-4928.0,512.0
9.2575,-15744.0,-4928.0,512.0
9.26,-15744.0,-4928.0,512.0
9.2625,-15744.0,-4928.0,512.0
9.265,-15680.0,-4928.0,448.0
9.2675,-15616.0,-4992.0,448.0
9.27,-15552.0,-4928.0,448.0
9.2725,-15552.0,-4928.0,512.0
9.275,-15488.0,-4992.0,576.0
9.2775,-15424.0,-4992.0,512.0
9.28,-15360.0,-4928.0,576.0
9.2825,-15360.0,-4928.0,512.0
9.285,-15232.0,-4928.0,512.0
9.2875,-15232.0,-4992.0,384.0
9.29,-15232.0,-4928.0,448.0
9.2925,-15232.0,-4928.0,640.0
9.295,-15232.0,-4928.0,576.0
9.2975,-15232.0,-4928.0,640.0
9.3,-15104.0,-4928.0,512.0
9.3025,-15104.0,-4992.0,576.0
9.305,-15040.0,-4992.0,640.0
9.3075,-14976.0,-4992.0,704.0
9.31,-14912.0,-4992.0,704.0
9.3125,-14912.0,-4928.0,704.0
9.315,-14912.0,-4928.0,640.0
9.3175,-14848.0,-4928.0,640.0
9.32,-14848.0,-4928.0,640.0
9.3225,-14848.0,-4928.0,640.0
9.325,-14784.0,-4928.0,576.0
9.3275,-14784.0,-4928.0,512.0
9.33,-14784.0,-4928.0,576.0
9.3325,-14848.0,-4928.0,576.0
9.335,-14848.0,-4992.0,576.0
9.3375,-14784.0,-4928.0,640.0
9.34,-14784.0,-4928.0,640.0
9.3425,-14784.0,-4928.0,704.0
9.345,-14784.0,-4864.0,768.0
9.3475,-14784.0,-4928.0,704.0
9.35,-14656.0,-4864.0,640.0
9.3525,-14656.0,-4928.0,704.0
9.355,-14592.0,-4864.0,640.0
9.3575,-14656.0,-4864.0,576.0
9.36,-14592.0,-4864.0,704.0
9.3625,-14656.0,-4864.0,704.0
9.365,-14528.0,-4864.0,640.0
9.3675,-14592.0,-4864.0,704.0
9.37,-14528.0,-4864.0,704.0
9.3725,-14464.0,-4864.0,640.0
9.375,-14400.0,-4864.0,640.0
9.3775,-14400.0,-4864.0,640.0
9.38,-14400.0,-4800.0,704.0
9.3825,-14400.0,-4800.0,640.0
9.385,-14336.0,-4864.0,640.0
9.3875,-14400.0,-4864.0,640.0
9.39,-14336.0,-4928.0,704.0
9.3925,-14336.0,-4864.0,704.0
9.395,-14336.0,-4928.0,640.0
9.3975,-14272.0,-4864.0,768.0
9.4,-14272.0,-4928.0,704.0
9.4025,-14336.0,-4928.0,704.0
9.405,-14336.0,-4928.0,704.0
9.4075,-14400.0,-4992.0,704.0
9.41,-14400.0,-4992.0,768.0
9.4125,-14336.0,-4992.0,704.0
9.415,-14464.0,-5056.0,768.0
9.4175,-14464.0,-5056.0,704.0
9.42,-14528.0,-5056.0,832.0
9.4225,-14528.0,-5056.0,832.0
9.425,-14592.0,-4992.0,768.0
9.4275,-14592.0,-4992.0,704.0
9.43,-14592.0,-5056.0,640.0
9.4325,-14656.0,-4992.0,576.0
9.435,-14528.0,-4992.0,576.0
9.4375,-14464.0,-5056.0,576.0
9.44,-14464.0,-5056.0,448.0
9.4425,-14400.0,-4992.0,448.0
9.445,-14400.0,-5056.0,384.0
9.4475,-14336.0,-5056.0,448.0
9.45,-14400.0,-5056.0,448.0
9.4525,-14464.0,-4992.0,448.0
9.455,-14464.0,-4992.0,512.0
9.4575,-14400.0,-5056.0,448.0
9.46,-14400.0,-4992.0,384.0
9.4625,-14336.0,-4992.0,448.0
9.465,-14336.0,-5056.0,384.0
9.4675,-14400.0,-4992.0,384.0
9.47,-14336.0,-4992.0,448.0
9.4725,-14336.0,-4928.0,448.0
9.475,-14336.0,-4992.0,448.0
9.4775,-14336.0,-5056.0,448.0
9.48,-14336.0,-4864.0,512.0
9.4825,-14400.0,-4928.0,512.0
9.485,-14464.0,-4992.0,576.0
9.4875,-14528.0,-5056.0,512.0
9.49,-14528.0,-5056.0,512.0
9.4925,-14592.0,-4992.0,576.0
9.495,-14592.0,-5056.0,640.0
9.4975,-14656.0,-5056.0,512.0
9.5,-14656.0,-5056.0,576.0
9.5025,-14656.0,-5056.0,576.0
9.505,-14720.0,-5120.0,512.0
9.5075,-14720.0,-5120.0,448.0
9.51,-14720.0,-5120.0,448.0
9.5125,-14720.0,-5184.0,448.0
9.515,-14784.0,-5120.0,384.0
9.5175,-14784.0,-5184.0,384.0
9.52,-14848.0,-5184.0,320.0
9.5225,-14912.0,-5120.0,320.0
9.525,-14848.0,-5056.0,256.0
9.5275,-14912.0,-5120.0,192.0
9.53,-14912.0,-5120.0,192.0
9.5325,-14848.0,-5184.0,192.0
9.535,-14848.0,-5120.0,192.0
9.5375,-14912.0,-5184.0,128.0
9.54,-14976.0,-5184.0,256.0
9.5425,-14976.0,-5248.0,256.0
9.545,-14976.0,-5184.0,320.0
9.5475,-14976.0,-5312.0,384.0
9.55,-14976.0,-5376.0,384.0
9.5525,-14976.0,-5312.0,448.0
9.555,-14976.0,-5376.0,512.0
9.5575,-14976.0,-5376.0,512.0
9.56,-14976.0,-5376.0,576.0
9.5625,-14912.0,-5312.0,576.0
9.565,-14976.0,-5376.0,512.0
9.5675,-14912.0,-5376.0,512.0
9.57,-14912.0,-5376.0,512.0
9.5725,-14848.0,-5376.0,448.0
9.575,-14784.0,-5312.0,448.0
9.5775,-14848.0,-5376.0,512.0
9.58,-14784.0,-5312.0,448.0
9.5825,-14720.0,-5312.0,384.0
9.585,-14656.0,-5248.0,384.0
9.5875,-14592.0,-5248.0,384.0
9.59,-14528.0,-5248.0,384.0
9.5925,-14528.0,-5184.0,384.0
9.595,-14528.0,-5184.0,448.0
9.5975,-14592.0,-5248.0,384.0
9.6,-14528.0,-5184.0,384.0
9.6025,-14528.0,-5120.0,384.0
9.605,-14528.0,-5184.0,384.0
9.6075,-14592.0,-5184.0,448.0
9.61,-14528.0,-5184.0,448.0
9.6125,-14592.0,-5184.0,512.0
9.615,-14528.0,-5184.0,512.0
9.6175,-14528.0,-5248.0,512.0
9.62,-14656.0,-5312.0,576.0
9.6225,-14720.0,-5312.0,640.0
9.625,-14784.0,-5312.0,576.0
9.6275,-14848.0,-5376.0,576.0
9.63,-14912.0,-5376.0,576.0
9.6325,-14912.0,-5376.0,576.0
9.635,-14976.0,-5440.0,640.0
9.6375,-14976.0,-5376.0,576.0
9.64,-15040.0,-5440.0,576.0
9.6425,-15104.0,-5376.0,512.0
9.645,-15104.0,-5504.0,512.0
9.6475,-15040.0,-5440.0,448.0
9.65,-15104.0,-5440.0,448.0
9.6525,-15104.0,-5440.0,384.0
9.655,-15168.0,-5440.0,384.0
9.6575,-15168.0,-5440.0,320.0
9.66,-15168.0,-5440.0,256.0
9.6625,-15168.0,-5440.0,256.0
9.665,-15104.0,-5440.0,320.0
9.6675,-15168.0,-5440.0,256.0
9.67,-15232.0,-5440.0,192.0
9.6725,-15168.0,-5376.0,192.0
9.675,-15232.0,-5376.0,192.0
9.6775,-15168.0,-5376.0,192.0
9.68,-15104.0,-5312.0,128.0
9.6825,-15104.0,-5376.0,192.0
9.685,-15168.0,-5248.0,192.0
9.6875,-15104.0,-5248.0,256.0
9.69,-15104.0,-5312.0,256.0
9.6925,-15104.0,-5312.0,320.0
9.695,-15168.0,-5312.0,448.0
9.6975,-15168.0,-5312.0,384.0
9.7,-15104.0,-5312.0,384.0
9.7025,-15168.0,-5312.0,448.0
9.705,-15104.0,-5312.0,512.0
9.7075,-15104.0,-5312.0,512.0
9.71,-15040.0,-5312.0,512.0
9.7125,-15040.0,-5376.0,512.0
9.715,-15040.0,-5376.0,448.0
9.7175,-14912.0,-5376.0,448.0
9.72,-14912.0,-5376.0,448.0
9.7225,-14912.0,-5376.0,448.0
9.725,-14848.0,-5376.0,384.0
9.7275,-14784.0,-5312.0,320.0
9.73,-14848.0,-5376.0,320.0
9.7325,-14848.0,-5312.0,256.0
9.735,-14784.0,-5312.0,320.0
9.7375,-14784.0,-5312.0,256.0
9.74,-14784.0,-5312.0,192.0
9.7425,-14784.0,-5312.0,192.0
9.745,-14784.0,-5312.0,192.0
9.7475,-14784.0,-5312.0,192.0
9.75,-14784.0,-5312.0,256.0
9.7525,-14720.0,-5440.0,192.0
9.755,-14720.0,-5376.0,192.0
9.7575,-14784.0,-5376.0,256.0
9.76,-14784.0,-5440.0,384.0
9.7625,-14784.0,-5440.0,256.0
9.765,-14720.0,-5440.0,192.0
9.7675,-14784.0,-5440.0,256.0
9.77,-14720.0,-5440.0,256.0
9.7725,-14656.0,-5440.0,256.0
9.775,-14656.0,-5504.0,192.0
9.7775,-14720.0,-5504.0,192.0
9.78,-14784.0,-5440.0,128.0
9.7825,-14720.0,-5440.0,192.0
9.785,-14720.0,-5440.0,128.0
9.7875,-14720.0,-5440.0,192.0
9.79,-14720.0,-5504.0,128.0
9.7925,-14720.0,-5504.0,64.0
9.795,-14720.0,-5504.0,64.0
9.7975,-14784.0,-5504.0,0.0
9.8,-14784.0,-5504.0,0.0
9.8025,-14848.0,-5504.0,-128.0
9.805,-14848.0,-5504.0,-64.0
9.8075,-14912.0,-5440.0,-128.0
9.81,-14912.0,-5440.0,-192.0
9.8125,-14912.0,-5440.0,-256.0
9.815,-14976.0,-5440.0,-256.0
9.8175,-15040.0,-5440.0,-320.0
9.82,-15104.0,-5440.0,-256.0
9.8225,-15232.0,-5440.0,-256.0
9.825,-15296.0,-5440.0,-320.0
9.8275,-15360.0,-5504.0,-320.0
9.83,-15488.0,-5504.0,-320.0
9.8325,-15552.0,-5568.0,-320.0
9.835,-15616.0,-5568.0,-256.0
9.8375,-15680.0,-5568.0,-192.0
9.84,-15872.0,-5632.0,-64.0
9.8425,-15936.0,-5632.0,-64.0
9.845,-16064.0,-5696.0,0.0
9.8475,-16064.0,-5696.0,192.0
9.85,-16064.0,-5696.0,192.0
9.8525,-16064.0,-5696.0,192.0
9.855,-15936.0,-5760.0,256.0
9.8575,-15808.0,-5760.0,256.0
9.86,-15808.0,-5760.0,384.0
9.8625,-15808.0,-5824.0,384.0
9.865,-15680.0,-5888.0,448.0
9.8675,-15744.0,-5888.0,512.0
9.87,-15680.0,-5824.0,448.0
9.8725,-15616.0,-5760.0,320.0
9.875,-15616.0,-5696.0,320.0
9.8775,-15552.0,-5632.0,320.0
9.88,-15488.0,-5632.0,192.0
9.8825,-15424.0,-5504.0,192.0
9.885,-15360.0,-5440.0,192.0
9.8875,-15360.0,-5504.0,128.0
9.89,-15360.0,-5440.0,192.0
9.8925,-15296.0,-5440.0,192.0
9.895,-15296.0,-5376.0,256.0
9.8975,-15296.0,-5376.0,256.0
9.9,-15296.0,-5312.0,256.0
9.9025,-15296.0,-5312.0,320.0
9.905,-15232.0,-5312.0,384.0
9.9075,-15232.0,-5312.0,384.0
9.91,-15232.0,-5312.0,384.0
9.9125,-15296.0,-5248.0,448.0
9.915,-15296.0,-5248.0,512.0
9.9175,-15296.0,-5248.0,576.0
9.92,-15296.0,-5376.0,640.0
9.9225,-15360.0,-5376.0,640.0
9.925,-15296.0,-5440.0,704.0
9.9275,-15296.0,-5376.0,768.0
9.93,-15296.0,-5440.0,768.0
9.9325,-15296.0,-5440.0,704.0
9.935,-15296.0,-5440.0,768.0
9.9375,-15296.0,-5440.0,640.0
9.94,-15360.0,-5440.0,704.0
9.9425,-15296.0,-5504.0,768.0
9.945,-15296.0,-5504.0,704.0
9.9475,-15296.0,-5568.0,704.0
9.95,-15296.0,-5568.0,704.0
9.9525,-15296.0,-5568.0,576.0
9.955,-15232.0,-5568.0,576.0
9.9575,-15232.0,-5504.0,576.0
9.96,-15232.0,-5568.0,576.0
9.9625,-15232.0,-5568.0,576.0
9.965,-15232.0,-5568.0,512.0
9.9675,-15168.0,-5568.0,512.0
9.97,-15168.0,-5568.0,448.0
9.9725,-15168.0,-5568.0,384.0
9.975,-15104.0,-5504.0,384.0
9.9775,-15104.0,-5440.0,384.0
9.98,-15104.0,-5504.0,256.0
9.9825,-15040.0,-5376.0,256.0
9.985,-15040.0,-5376.0,192.0
9.9875,-14976.0,-5376.0,256.0
9.99,-14976.0,-5376.0,256.0
9.9925,-15040.0,-5440.0,256.0
