time_stamp,acc_x,acc_y,acc_z
0.0,-3328.0,-9280.0,-12736.0
0.0025,-3328.0,-9280.0,-12864.0
0.005,-3264.0,-9344.0,-12800.0
0.0075,-3264.0,-9280.0,-12864.0
0.01,-3328.0,-9344.0,-12928.0
0.0125,-3328.0,-9344.0,-12864.0
0.015,-3264.0,-9344.0,-12864.0
0.0175,-3264.0,-9408.0,-12864.0
0.02,-3264.0,-9344.0,-12928.0
0.0225,-3328.0,-9344.0,-12992.0
0.025,-3392.0,-9408.0,-12992.0
0.0275,-3328.0,-9408.0,-12928.0
0.03,-3328.0,-9408.0,-12928.0
0.0325,-3264.0,-9408.0,-12928.0
0.035,-3328.0,-9408.0,-12864.0
0.0375,-3328.0,-9344.0,-12864.0
0.04,-3264.0,-9408.0,-12864.0
0.0425,-3328.0,-9344.0,-12800.0
0.045,-3328.0,-9344.0,-12800.0
0.0475,-3264.0,-9408.0,-12864.0
0.05,-3328.0,-9280.0,-12864.0
0.0525,-3264.0,-9280.0,-12864.0
0.055,-3264.0,-9344.0,-12800.0
0.0575,-3264.0,-9344.0,-12864.0
0.06,-3200.0,-9344.0,-12864.0
0.0625,-3136.0,-9344.0,-12864.0
0.065,-3136.0,-9280.0,-12864.0
0.0675,-3136.0,-9216.0,-12800.0
0.07,-3136.0,-9280.0,-12800.0
0.0725,-3072.0,-9216.0,-12736.0
0.075,-3072.0,-9152.0,-12800.0
0.0775,-3008.0,-9152.0,-12800.0
0.08,-3072.0,-9088.0,-12736.0
0.0825,-3072.0,-9152.0,-12736.0
0.085,-3072.0,-9152.0,-12800.0
0.0875,-3072.0,-9152.0,-12864.0
0.09,-3072.0,-9216.0,-12800.0
0.0925,-3008.0,-9152.0,-12864.0
0.095,-3072.0,-9152.0,-12800.0
0.0975,-3072.0,-9216.0,-12800.0
0.1,-3008.0,-9216.0,-12736.0
0.1025,-3072.0,-9152.0,-12672.0
0.105,-3072.0,-9152.0,-12672.0
0.1075,-3008.0,-9152.0,-12608.0
0.11,-3072.0,-9088.0,-12672.0
0.1125,-3072.0,-9088.0,-12608.0
0.115,-3008.0,-9024.0,-12608.0
0.1175,-3136.0,-9024.0,-12608.0
0.12,-3072.0,-9024.0,-12544.0
0.1225,-3008.0,-8960.0,-12544.0
0.125,-3008.0,-9024.0,-12544.0
0.1275,-3072.0,-9024.0,-12544.0
0.13,-3072.0,-9024.0,-12480.0
0.1325,-3072.0,-8960.0,-12480.0
0.135,-3008.0,-9024.0,-12544.0
0.1375,-3072.0,-8960.0,-12480.0
0.14,-3072.0,-8960.0,-12544.0
0.1425,-3008.0,-8960.0,-12480.0
0.145,-3072.0,-9088.0,-12480.0
0.1475,-3008.0,-9088.0,-12480.0
0.15,-3008.0,-8960.0,-12544.0
0.1525,-3008.0,-8960.0,-12608.0
0.155,-3008.0,-8960.0,-12544.0
0.1575,-3008.0,-8960.0,-12544.0
0.16,-3008.0,-9024.0,-12544.0
0.1625,-3008.0,-9024.0,-12672.0
0.165,-3008.0,-9024.0,-12608.0
0.1675,-3008.0,-8960.0,-12608.0
0.17,-3072.0,-8960.0,-12672.0
0.1725,-3072.0,-9024.0,-12736.0
0.175,-3136.0,-9088.0,-12672.0
0.1775,-3072.0,-8960.0,-12672.0
0.18,-3072.0,-9024.0,-12672.0
0.1825,-3136.0,-8960.0,-12736.0
0.185,-3136.0,-8960.0,-12736.0
0.1875,-3136.0,-8960.0,-12736.0
0.19,-3136.0,-8960.0,-12736.0
0.1925,-3200.0,-8896.0,-12736.0
0.195,-3136.0,-8896.0,-12736.0
0.1975,-3136.0,-8832.0,-12736.0
0.2,-3200.0,-8768.0,-12800.0
0.2025,-3264.0,-8768.0,-12736.0
0.205,-3200.0,-8768.0,-12800.0
0.2075,-3200.0,-8768.0,-12864.0
0.21,-3264.0,-8768.0,-12864.0
0.2125,-3200.0,-8768.0,-12928.0
0.215,-3264.0,-8640.0,-12928.0
0.2175,-3200.0,-8704.0,-12928.0
0.22,-3264.0,-8640.0,-12928.0
0.2225,-3200.0,-8576.0,-12928.0
0.225,-3264.0,-8576.0,-12928.0
0.2275,-3200.0,-8576.0,-13056.0
0.23,-3264.0,-8576.0,-12992.0
0.2325,-3200.0,-8576.0,-12992.0
0.235,-3264.0,-8640.0,-12992.0
0.2375,-3328.0,-8704.0,-12992.0
0.24,-3328.0,-8832.0,-12928.0
0.2425,-3264.0,-8896.0,-12928.0
0.245,-3264.0,-8960.0,-12928.0
0.2475,-3264.0,-9024.0,-12928.0
0.25,-3264.0,-9088.0,-12928.0
0.2525,-3264.0,-9152.0,-12864.0
0.255,-3328.0,-9152.0,-12928.0
0.2575,-3264.0,-9088.0,-12800.0
0.26,-3264.0,-9152.0,-12736.0
0.2625,-3200.0,-9152.0,-12736.0
0.265,-3200.0,-9088.0,-12736.0
0.2675,-3200.0,-9088.0,-12736.0
0.27,-3264.0,-9088.0,-12672.0
0.2725,-3200.0,-9088.0,-12736.0
0.275,-3264.0,-9088.0,-12736.0
0.2775,-3200.0,-9088.0,-12800.0
0.28,-3200.0,-9152.0,-12800.0
0.2825,-3264.0,-9152.0,-12800.0
0.285,-3264.0,-9152.0,-12800.0
0.2875,-3200.0,-9088.0,-12800.0
0.29,-3200.0,-9088.0,-12800.0
0.2925,-3200.0,-9088.0,-12800.0
0.295,-3136.0,-9088.0,-12800.0
0.2975,-3200.0,-9088.0,-12736.0
0.3,-3136.0,-9088.0,-12736.0
0.3025,-3200.0,-9088.0,-12864.0
0.305,-3136.0,-9088.0,-12800.0
0.3075,-3200.0,-9024.0,-12736.0
0.31,-3200.0,-9088.0,-12800.0
0.3125,-3200.0,-9088.0,-12800.0
0.315,-3200.0,-9024.0,-12800.0
0.3175,-3200.0,-9088.0,-12736.0
0.32,-3264.0,-9088.0,-12800.0
0.3225,-3200.0,-9088.0,-12736.0
0.325,-3264.0,-9088.0,-12736.0
0.3275,-3264.0,-9088.0,-12800.0
0.33,-3264.0,-9024.0,-12800.0
0.3325,-3264.0,-8960.0,-12736.0
0.335,-3264.0,-9088.0,-12800.0
0.3375,-3264.0,-9088.0,-12800.0
0.34,-3264.0,-9088.0,-12800.0
0.3425,-3392.0,-9088.0,-12800.0
0.345,-3328.0,-9088.0,-12800.0
0.3475,-3264.0,-9088.0,-12736.0
0.35,-3264.0,-9152.0,-12800.0
0.3525,-3264.0,-9024.0,-12736.0
0.355,-3264.0,-8960.0,-12800.0
0.3575,-3264.0,-8960.0,-12800.0
0.36,-3264.0,-8960.0,-12736.0
0.3625,-3264.0,-8960.0,-12736.0
0.365,-3328.0,-8960.0,-12800.0
0.3675,-3328.0,-8896.0,-12800.0
0.37,-3328.0,-8832.0,-12736.0
0.3725,-3264.0,-8832.0,-12800.0
0.375,-3264.0,-8768.0,-12800.0
0.3775,-3328.0,-8768.0,-12736.0
0.38,-3328.0,-8832.0,-12800.0
0.3825,-3264.0,-8832.0,-12800.0
0.385,-3328.0,-8768.0,-12800.0
0.3875,-3264.0,-8768.0,-12800.0
0.39,-3264.0,-8704.0,-12736.0
0.3925,-3264.0,-8640.0,-12736.0
0.395,-3264.0,-8640.0,-12800.0
0.3975,-3264.0,-8704.0,-12736.0
0.4,-3328.0,-8704.0,-12736.0
0.4025,-3392.0,-8768.0,-12672.0
0.405,-3392.0,-8768.0,-12672.0
0.4075,-3328.0,-8768.0,-12672.0
0.41,-3328.0,-8768.0,-12736.0
0.4125,-3392.0,-8768.0,-12672.0
0.415,-3392.0,-8704.0,-12736.0
0.4175,-3392.0,-8704.0,-12800.0
0.42,-3456.0,-8768.0,-12736.0
0.4225,-3520.0,-8832.0,-12800.0
0.425,-3456.0,-8832.0,-12736.0
0.4275,-3520.0,-8832.0,-12800.0
0.43,-3520.0,-8768.0,-12736.0
0.4325,-3456.0,-8832.0,-12672.0
0.435,-3456.0,-8832.0,-12736.0
0.4375,-3456.0,-8832.0,-12672.0
0.44,-3456.0,-8832.0,-12672.0
0.4425,-3456.0,-8896.0,-12672.0
0.445,-3520.0,-8896.0,-12736.0
0.4475,-3520.0,-8896.0,-12736.0
0.45,-3520.0,-8960.0,-12736.0
0.4525,-3520.0,-8896.0,-12736.0
0.455,-3520.0,-8896.0,-12736.0
0.4575,-3520.0,-8832.0,-12736.0
0.46,-3520.0,-8768.0,-12672.0
0.4625,-3584.0,-8768.0,-12608.0
0.465,-3520.0,-8832.0,-12608.0
0.4675,-3520.0,-8768.0,-12608.0
0.47,-3584.0,-8832.0,-12608.0
0.4725,-3648.0,-8768.0,-12544.0
0.475,-3584.0,-8768.0,-12608.0
0.4775,-3584.0,-8768.0,-12672.0
0.48,-3584.0,-8832.0,-12544.0
0.4825,-3584.0,-8832.0,-12608.0
0.485,-3648.0,-8832.0,-12544.0
0.4875,-3648.0,-8768.0,-12544.0
0.49,-3648.0,-8832.0,-12544.0
0.4925,-3648.0,-8832.0,-12544.0
0.495,-3648.0,-8896.0,-12544.0
0.4975,-3648.0,-8896.0,-12480.0
0.5,-3648.0,-8896.0,-12480.0
0.5025,-3648.0,-8896.0,-12544.0
0.505,-3648.0,-8896.0,-12544.0
0.5075,-3584.0,-8896.0,-12608.0
0.51,-3648.0,-8896.0,-12608.0
0.5125,-3648.0,-8896.0,-12544.0
0.515,-3648.0,-8896.0,-12608.0
0.5175,-3648.0,-8960.0,-12544.0
0.52,-3648.0,-9024.0,-12544.0
0.5225,-3712.0,-9024.0,-12480.0
0.525,-3712.0,-9024.0,-12416.0
0.5275,-3648.0,-8960.0,-12416.0
0.53,-3648.0,-9024.0,-12416.0
0.5325,-3648.0,-9088.0,-12480.0
0.535,-3648.0,-9088.0,-12416.0
0.5375,-3584.0,-9088.0,-12416.0
0.54,-3648.0,-9152.0,-12480.0
0.5425,-3648.0,-9088.0,-12544.0
0.545,-3584.0,-9152.0,-12544.0
0.5475,-3648.0,-9152.0,-12544.0
0.55,-3584.0,-9152.0,-12544.0
0.5525,-3584.0,-9152.0,-12480.0
0.555,-3584.0,-9152.0,-12480.0
0.5575,-3584.0,-9152.0,-12480.0
0.56,-3520.0,-9088.0,-12416.0
0.5625,-3520.0,-9152.0,-12480.0
0.565,-3584.0,-9152.0,-12544.0
0.5675,-3584.0,-9088.0,-12544.0
0.57,-3520.0,-9024.0,-12480.0
0.5725,-3520.0,-9024.0,-12544.0
0.575,-3520.0,-9024.0,-12480.0
0.5775,-3520.0,-9024.0,-12608.0
0.58,-3520.0,-8960.0,-12544.0
0.5825,-3520.0,-8960.0,-12544.0
0.585,-3456.0,-9024.0,-12544.0
0.5875,-3456.0,-8960.0,-12544.0
0.59,-3520.0,-8960.0,-12608.0
0.5925,-3520.0,-8896.0,-12608.0
0.595,-3392.0,-8960.0,-12608.0
0.5975,-3456.0,-8960.0,-12672.0
0.6,-3456.0,-9024.0,-12672.0
0.6025,-3392.0,-8960.0,-12672.0
0.605,-3456.0,-9024.0,-12672.0
0.6075,-3456.0,-8960.0,-12800.0
0.61,-3392.0,-8960.0,-12736.0
0.6125,-3456.0,-8960.0,-12736.0
0.615,-3520.0,-8960.0,-12864.0
0.6175,-3456.0,-9024.0,-12864.0
0.62,-3456.0,-8960.0,-12864.0
0.6225,-3520.0,-8960.0,-12800.0
0.625,-3520.0,-8896.0,-12864.0
0.6275,-3456.0,-8896.0,-12928.0
0.63,-3456.0,-8896.0,-12928.0
0.6325,-3456.0,-8832.0,-12864.0
0.635,-3456.0,-8896.0,-12864.0
0.6375,-3520.0,-8832.0,-12928.0
0.64,-3520.0,-8704.0,-12928.0
0.6425,-3584.0,-8704.0,-12992.0
0.645,-3584.0,-8704.0,-12992.0
0.6475,-3584.0,-8704.0,-12992.0
0.65,-3648.0,-8704.0,-13056.0
0.6525,-3648.0,-8640.0,-13120.0
0.655,-3584.0,-8704.0,-13120.0
0.6575,-3584.0,-8640.0,-13120.0
0.66,-3520.0,-8576.0,-13120.0
0.6625,-3520.0,-8512.0,-13120.0
0.665,-3520.0,-8448.0,-13184.0
0.6675,-3520.0,-8384.0,-13184.0
0.67,-3520.0,-8320.0,-13120.0
0.6725,-3584.0,-8320.0,-13120.0
0.675,-3520.0,-8256.0,-13120.0
0.6775,-3520.0,-8256.0,-13120.0
0.68,-3456.0,-8192.0,-13184.0
0.6825,-3456.0,-8192.0,-13248.0
0.685,-3456.0,-8192.0,-13312.0
0.6875,-3456.0,-8128.0,-13376.0
0.69,-3520.0,-8128.0,-13376.0
0.6925,-3456.0,-8128.0,-13312.0
0.695,-3456.0,-8064.0,-13440.0
0.6975,-3520.0,-8064.0,-13504.0
0.7,-3520.0,-8064.0,-13440.0
0.7025,-3456.0,-8064.0,-13376.0
0.705,-3456.0,-8064.0,-13440.0
0.7075,-3520.0,-8064.0,-13312.0
0.71,-3456.0,-8064.0,-13312.0
0.7125,-3520.0,-8192.0,-13248.0
0.715,-3456.0,-8128.0,-13184.0
0.7175,-3456.0,-8128.0,-13056.0
0.72,-3392.0,-8128.0,-12992.0
0.7225,-3392.0,-8192.0,-12928.0
0.725,-3392.0,-8256.0,-12864.0
0.7275,-3392.0,-8384.0,-12672.0
0.73,-3392.0,-8384.0,-12608.0
0.7325,-3392.0,-8448.0,-12608.0
0.735,-3392.0,-8512.0,-12544.0
0.7375,-3328.0,-8576.0,-12416.0
0.74,-3328.0,-8768.0,-12416.0
0.7425,-3328.0,-8832.0,-12416.0
0.745,-3328.0,-8960.0,-12480.0
0.7475,-3328.0,-9152.0,-12480.0
0.75,-3264.0,-9216.0,-12480.0
0.7525,-3200.0,-9280.0,-12416.0
0.755,-3264.0,-9408.0,-12352.0
0.7575,-3200.0,-9536.0,-12416.0
0.76,-3200.0,-9600.0,-12416.0
0.7625,-3200.0,-9728.0,-12352.0
0.765,-3200.0,-9792.0,-12352.0
0.7675,-3200.0,-9856.0,-12352.0
0.77,-3200.0,-9984.0,-12352.0
0.7725,-3200.0,-9984.0,-12288.0
0.775,-3136.0,-10048.0,-12224.0
0.7775,-3136.0,-10176.0,-12288.0
0.78,-3072.0,-10240.0,-12288.0
0.7825,-3136.0,-10304.0,-12224.0
0.785,-3136.0,-10368.0,-12224.0
0.7875,-3136.0,-10432.0,-12096.0
0.79,-3200.0,-10432.0,-12096.0
0.7925,-3200.0,-10432.0,-12032.0
0.795,-3136.0,-10496.0,-12032.0
0.7975,-3136.0,-10496.0,-11968.0
0.8,-3136.0,-10560.0,-11904.0
0.8025,-3200.0,-10624.0,-11776.0
0.805,-3200.0,-10624.0,-11712.0
0.8075,-3200.0,-10624.0,-11776.0
0.81,-3200.0,-10624.0,-11712.0
0.8125,-3200.0,-10624.0,-11712.0
0.815,-3200.0,-10560.0,-11648.0
0.8175,-3200.0,-10560.0,-11584.0
0.82,-3200.0,-10496.0,-11584.0
0.8225,-3264.0,-10432.0,-11520.0
0.825,-3264.0,-10368.0,-11520.0
0.8275,-3264.0,-10304.0,-11584.0
0.83,-3264.0,-10240.0,-11584.0
0.8325,-3328.0,-10240.0,-11648.0
0.835,-3392.0,-10112.0,-11648.0
0.8375,-3456.0,-10048.0,-11712.0
0.84,-3456.0,-9984.0,-11776.0
0.8425,-3456.0,-9984.0,-11712.0
0.845,-3456.0,-9920.0,-11648.0
0.8475,-3456.0,-9920.0,-11648.0
0.85,-3520.0,-9792.0,-11648.0
0.8525,-3584.0,-9728.0,-11648.0
0.855,-3584.0,-9792.0,-11712.0
0.8575,-3648.0,-9728.0,-11840.0
0.86,-3776.0,-9792.0,-11840.0
0.8625,-3840.0,-9792.0,-11776.0
0.865,-3904.0,-9856.0,-11840.0
0.8675,-3840.0,-9856.0,-11840.0
0.87,-3904.0,-9856.0,-11840.0
0.8725,-3968.0,-9792.0,-11840.0
0.875,-3968.0,-9856.0,-11840.0
0.8775,-4032.0,-9920.0,-11904.0
0.88,-4160.0,-10048.0,-11904.0
0.8825,-4160.0,-10048.0,-11904.0
0.885,-4224.0,-10112.0,-11904.0
0.8875,-4224.0,-10176.0,-11968.0
0.89,-4288.0,-10176.0,-11968.0
0.8925,-4224.0,-10304.0,-11968.0
0.895,-4224.0,-10240.0,-12096.0
0.8975,-4288.0,-10240.0,-12160.0
0.9,-4224.0,-10176.0,-12160.0
0.9025,-4224.0,-10240.0,-12160.0
0.905,-4224.0,-10304.0,-12160.0
0.9075,-4224.0,-10240.0,-12288.0
0.91,-4160.0,-10240.0,-12288.0
0.9125,-4224.0,-10176.0,-12224.0
0.915,-4160.0,-10176.0,-12288.0
0.9175,-4160.0,-10112.0,-12288.0
0.92,-4160.0,-10112.0,-12352.0
0.9225,-4096.0,-10048.0,-12352.0
0.925,-4096.0,-10048.0,-12352.0
0.9275,-4032.0,-9984.0,-12352.0
0.93,-4032.0,-9920.0,-12352.0
0.9325,-3968.0,-9856.0,-12352.0
0.935,-3904.0,-9728.0,-12288.0
0.9375,-3840.0,-9728.0,-12352.0
0.94,-3904.0,-9664.0,-12288.0
0.9425,-3904.0,-9728.0,-12288.0
0.945,-3840.0,-9664.0,-12288.0
0.9475,-3840.0,-9600.0,-12288.0
0.95,-3776.0,-9536.0,-12288.0
0.9525,-3840.0,-9472.0,-12288.0
0.955,-3776.0,-9408.0,-12160.0
0.9575,-3840.0,-9408.0,-12160.0
0.96,-3776.0,-9280.0,-12160.0
0.9625,-3776.0,-9280.0,-12160.0
0.965,-3712.0,-9280.0,-12160.0
0.9675,-3712.0,-9344.0,-12224.0
0.97,-3712.0,-9280.0,-12160.0
0.9725,-3712.0,-9216.0,-12160.0
0.975,-3712.0,-9216.0,-12160.0
0.9775,-3648.0,-9216.0,-12224.0
0.98,-3648.0,-9152.0,-12096.0
0.9825,-3712.0,-9152.0,-12224.0
0.985,-3648.0,-9216.0,-12224.0
0.9875,-3712.0,-9216.0,-12288.0
0.99,-3712.0,-9216.0,-12224.0
0.9925,-3648.0,-9216.0,-12288.0
0.995,-3648.0,-9216.0,-12416.0
0.9975,-3712.0,-9216.0,-12352.0
1.0,-3712.0,-9152.0,-12352.0
1.0025,-3712.0,-9216.0,-12288.0
1.005,-3712.0,-9216.0,-12352.0
1.0075,-3648.0,-9152.0,-12416.0
1.01,-3648.0,-9152.0,-12352.0
1.0125,-3648.0,-9216.0,-12288.0
1.015,-3648.0,-9216.0,-12416.0
1.0175,-3648.0,-9152.0,-12416.0
1.02,-3584.0,-9088.0,-12480.0
1.0225,-3584.0,-9088.0,-12480.0
1.025,-3584.0,-9088.0,-12544.0
1.0275,-3584.0,-9024.0,-12480.0
1.03,-3648.0,-8960.0,-12480.0
1.0325,-3584.0,-8960.0,-12480.0
1.035,-3584.0,-9024.0,-12352.0
1.0375,-3584.0,-8960.0,-12416.0
1.04,-3584.0,-8960.0,-12480.0
1.0425,-3584.0,-8896.0,-12544.0
1.045,-3584.0,-8832.0,-12544.0
1.0475,-3584.0,-8832.0,-12608.0
1.05,-3584.0,-8832.0,-12608.0
1.0525,-3520.0,-8832.0,-12544.0
1.055,-3520.0,-8768.0,-12544.0
1.0575,-3584.0,-8704.0,-12544.0
1.06,-3520.0,-8704.0,-12608.0
1.0625,-3520.0,-8640.0,-12544.0
1.065,-3520.0,-8576.0,-12544.0
1.0675,-3520.0,-8576.0,-12608.0
1.07,-3520.0,-8640.0,-12480.0
1.0725,-3520.0,-8640.0,-12480.0
1.075,-3520.0,-8640.0,-12480.0
1.0775,-3520.0,-8640.0,-12544.0
1.08,-3520.0,-8512.0,-12480.0
1.0825,-3520.0,-8576.0,-12544.0
1.085,-3520.0,-8576.0,-12544.0
1.0875,-3520.0,-8576.0,-12544.0
1.09,-3520.0,-8640.0,-12672.0
1.0925,-3456.0,-8640.0,-12672.0
1.095,-3520.0,-8704.0,-12672.0
1.0975,-3456.0,-8768.0,-12672.0
1.1,-3520.0,-8768.0,-12800.0
1.1025,-3520.0,-8704.0,-12800.0
1.105,-3520.0,-8704.0,-12800.0
1.1075,-3584.0,-8768.0,-12800.0
1.11,-3584.0,-8768.0,-12800.0
1.1125,-3584.0,-8768.0,-12864.0
1.115,-3648.0,-8768.0,-12928.0
1.1175,-3648.0,-8768.0,-12800.0
1.12,-3648.0,-8768.0,-12800.0
1.1225,-3584.0,-8768.0,-12736.0
1.125,-3648.0,-8704.0,-12736.0
1.1275,-3584.0,-8640.0,-12736.0
1.13,-3648.0,-8640.0,-12800.0
1.1325,-3648.0,-8704.0,-12736.0
1.135,-3712.0,-8704.0,-12800.0
1.1375,-3712.0,-8704.0,-12864.0
1.14,-3648.0,-8704.0,-12928.0
1.1425,-3648.0,-8704.0,-12864.0
1.145,-3648.0,-8704.0,-12864.0
1.1475,-3648.0,-8768.0,-12800.0
1.15,-3648.0,-8768.0,-12864.0
1.1525,-3648.0,-8768.0,-12800.0
1.155,-3584.0,-8768.0,-12800.0
1.1575,-3584.0,-8768.0,-12736.0
1.16,-3584.0,-8704.0,-12800.0
1.1625,-3520.0,-8640.0,-12800.0
1.165,-3456.0,-8704.0,-12800.0
1.1675,-3520.0,-8832.0,-12800.0
1.17,-3520.0,-8768.0,-12800.0
1.1725,-3456.0,-8832.0,-12800.0
1.175,-3392.0,-8896.0,-12736.0
1.1775,-3392.0,-8896.0,-12736.0
1.18,-3392.0,-8832.0,-12800.0
1.1825,-3328.0,-8896.0,-12800.0
1.185,-3328.0,-8960.0,-12800.0
1.1875,-3328.0,-8960.0,-12928.0
1.19,-3328.0,-8960.0,-12864.0
1.1925,-3328.0,-8896.0,-12992.0
1.195,-3328.0,-8832.0,-13056.0
1.1975,-3328.0,-8896.0,-13056.0
1.2,-3328.0,-8896.0,-13120.0
1.2025,-3328.0,-8832.0,-13184.0
1.205,-3328.0,-8832.0,-13184.0
1.2075,-3328.0,-8896.0,-13120.0
1.21,-3328.0,-8960.0,-13120.0
1.2125,-3392.0,-8960.0,-13056.0
1.215,-3392.0,-8960.0,-13056.0
1.2175,-3392.0,-9024.0,-13056.0
1.22,-3328.0,-9024.0,-13056.0
1.2225,-3392.0,-9088.0,-12992.0
1.225,-3392.0,-9088.0,-12992.0
1.2275,-3456.0,-9216.0,-12992.0
1.23,-3520.0,-9280.0,-12928.0
1.2325,-3520.0,-9344.0,-12864.0
1.235,-3584.0,-9472.0,-12928.0
1.2375,-3648.0,-9536.0,-12864.0
1.24,-3584.0,-9600.0,-12800.0
1.2425,-3584.0,-9600.0,-12736.0
1.245,-3584.0,-9600.0,-12736.0
1.2475,-3648.0,-9664.0,-12608.0
1.25,-3648.0,-9728.0,-12544.0
1.2525,-3648.0,-9664.0,-12672.0
1.255,-3648.0,-9792.0,-12672.0
1.2575,-3648.0,-9728.0,-12672.0
1.26,-3584.0,-9728.0,-12608.0
1.2625,-3648.0,-9792.0,-12608.0
1.265,-3584.0,-9792.0,-12480.0
1.2675,-3584.0,-9728.0,-12480.0
1.27,-3520.0,-9728.0,-12480.0
1.2725,-3584.0,-9664.0,-12416.0
1.275,-3520.0,-9600.0,-12416.0
1.2775,-3520.0,-9664.0,-12352.0
1.28,-3520.0,-9664.0,-12352.0
1.2825,-3456.0,-9728.0,-12352.0
1.285,-3392.0,-9792.0,-12352.0
1.2875,-3392.0,-9792.0,-12352.0
1.29,-3328.0,-9792.0,-12288.0
1.2925,-3328.0,-9920.0,-12224.0
1.295,-3392.0,-9984.0,-12224.0
1.2975,-3456.0,-9984.0,-12160.0
1.3,-3456.0,-10048.0,-12096.0
1.3025,-3456.0,-10048.0,-12096.0
1.305,-3520.0,-10112.0,-12032.0
1.3075,-3520.0,-10112.0,-11968.0
1.31,-3520.0,-10176.0,-11904.0
1.3125,-3520.0,-10176.0,-11904.0
1.315,-3584.0,-10240.0,-11904.0
1.3175,-3584.0,-10240.0,-11968.0
1.32,-3584.0,-10240.0,-11968.0
1.3225,-3584.0,-10176.0,-11904.0
1.325,-3648.0,-10176.0,-11904.0
1.3275,-3648.0,-10176.0,-11968.0
1.33,-3648.0,-10176.0,-11904.0
1.3325,-3584.0,-10112.0,-11904.0
1.335,-3648.0,-10048.0,-11840.0
1.3375,-3648.0,-10048.0,-11840.0
1.34,-3648.0,-10112.0,-11776.0
1.3425,-3648.0,-10048.0,-11840.0
1.345,-3712.0,-10048.0,-11840.0
1.3475,-3776.0,-10048.0,-11840.0
1.35,-3776.0,-10048.0,-11840.0
1.3525,-3776.0,-10112.0,-11904.0
1.355,-3776.0,-10048.0,-11904.0
1.3575,-3776.0,-9984.0,-11840.0
1.36,-3776.0,-9920.0,-11776.0
1.3625,-3840.0,-9920.0,-11776.0
1.365,-3776.0,-9920.0,-11712.0
1.3675,-3840.0,-9920.0,-11840.0
1.37,-3840.0,-9856.0,-11904.0
1.3725,-3840.0,-9792.0,-11904.0
1.375,-3840.0,-9792.0,-11904.0
1.3775,-3776.0,-9728.0,-11840.0
1.38,-3840.0,-9728.0,-11776.0
1.3825,-3840.0,-9792.0,-11776.0
1.385,-3904.0,-9728.0,-11776.0
1.3875,-3904.0,-9728.0,-11840.0
1.39,-3968.0,-9664.0,-11776.0
1.3925,-3968.0,-9600.0,-11776.0
1.395,-3968.0,-9664.0,-11712.0
1.3975,-3968.0,-9600.0,-11840.0
1.4,-3968.0,-9536.0,-11776.0
1.4025,-3968.0,-9536.0,-11776.0
1.405,-3904.0,-9472.0,-11776.0
1.4075,-3840.0,-9472.0,-11840.0
1.41,-3840.0,-9408.0,-11840.0
1.4125,-3776.0,-9408.0,-11968.0
1.415,-3776.0,-9344.0,-11968.0
1.4175,-3776.0,-9408.0,-11968.0
1.42,-3840.0,-9408.0,-12032.0
1.4225,-3840.0,-9472.0,-12032.0
1.425,-3776.0,-9536.0,-12096.0
1.4275,-3776.0,-9536.0,-12160.0
1.43,-3776.0,-9472.0,-12160.0
1.4325,-3776.0,-9472.0,-12224.0
1.435,-3840.0,-9472.0,-12224.0
1.4375,-3840.0,-9408.0,-12224.0
1.44,-3840.0,-9536.0,-12224.0
1.4425,-3776.0,-9536.0,-12288.0
1.445,-3776.0,-9472.0,-12288.0
1.4475,-3840.0,-9536.0,-12288.0
1.45,-3840.0,-9536.0,-12288.0
1.4525,-3840.0,-9472.0,-12224.0
1.455,-3840.0,-9536.0,-12288.0
1.4575,-3840.0,-9472.0,-12224.0
1.46,-3840.0,-9472.0,-12224.0
1.4625,-3904.0,-9472.0,-12224.0
1.465,-3904.0,-9472.0,-12224.0
1.4675,-3904.0,-9472.0,-12160.0
1.47,-3904.0,-9472.0,-12224.0
1.4725,-3904.0,-9408.0,-12224.0
1.475,-3840.0,-9344.0,-12224.0
1.4775,-3840.0,-9344.0,-12224.0
1.48,-3840.0,-9344.0,-12224.0
1.4825,-3840.0,-9344.0,-12288.0
1.485,-3840.0,-9280.0,-12352.0
1.4875,-3840.0,-9280.0,-12352.0
1.49,-3840.0,-9280.0,-12480.0
1.4925,-3840.0,-9280.0,-12480.0
1.495,-3840.0,-9344.0,-12480.0
1.4975,-3776.0,-9344.0,-12544.0
1.5,-3776.0,-9344.0,-12480.0
1.5025,-3776.0,-9344.0,-12480.0
1.505,-3712.0,-9344.0,-12416.0
1.5075,-3712.0,-9280.0,-12416.0
1.51,-3648.0,-9280.0,-12416.0
1.5125,-3712.0,-9280.0,-12416.0
1.515,-3648.0,-9280.0,-12480.0
1.5175,-3712.0,-9280.0,-12416.0
1.52,-3648.0,-9216.0,-12288.0
1.5225,-3648.0,-9280.0,-12352.0
1.525,-3584.0,-9280.0,-12288.0
1.5275,-3520.0,-9344.0,-12352.0
1.53,-3520.0,-9344.0,-12288.0
1.5325,-3520.0,-9408.0,-12288.0
1.535,-3520.0,-9408.0,-12288.0
1.5375,-3520.0,-9408.0,-12352.0
1.54,-3520.0,-9408.0,-12416.0
1.5425,-3520.0,-9344.0,-12288.0
1.545,-3584.0,-9344.0,-12416.0
1.5475,-3648.0,-9344.0,-12416.0
1.55,-3648.0,-9344.0,-12352.0
1.5525,-3648.0,-9344.0,-12416.0
1.555,-3712.0,-9344.0,-12416.0
1.5575,-3712.0,-9408.0,-12416.0
1.56,-3648.0,-9408.0,-12480.0
1.5625,-3584.0,-9472.0,-12480.0
1.565,-3840.0,-9408.0,-12480.0
1.5675,-3584.0,-9408.0,-12416.0
1.57,-3712.0,-9408.0,-12416.0
1.5725,-3712.0,-9472.0,-12352.0
1.575,-3712.0,-9472.0,-12352.0
1.5775,-3648.0,-9472.0,-12352.0
1.58,-3712.0,-9472.0,-12352.0
1.5825,-3776.0,-9536.0,-12416.0
1.585,-3712.0,-9536.0,-12480.0
1.5875,-3712.0,-9472.0,-12352.0
1.59,-3712.0,-9408.0,-12352.0
1.5925,-3712.0,-9472.0,-12288.0
1.595,-3776.0,-9472.0,-12288.0
1.5975,-3712.0,-9344.0,-12352.0
1.6,-3776.0,-9408.0,-12352.0
1.6025,-3776.0,-9472.0,-12416.0
1.605,-3776.0,-9408.0,-12416.0
1.6075,-3840.0,-9408.0,-12352.0
1.61,-3776.0,-9536.0,-12288.0
1.6125,-3776.0,-9408.0,-12288.0
1.615,-3776.0,-9408.0,-12288.0
1.6175,-3840.0,-9408.0,-12224.0
1.62,-3776.0,-9344.0,-12224.0
1.6225,-3776.0,-9344.0,-12224.0
1.625,-3712.0,-9280.0,-12160.0
1.6275,-3648.0,-9344.0,-12288.0
1.63,-3584.0,-9280.0,-12224.0
1.6325,-3648.0,-9216.0,-12224.0
1.635,-3584.0,-9216.0,-12288.0
1.6375,-3584.0,-9216.0,-12288.0
1.64,-3648.0,-9152.0,-12288.0
1.6425,-3648.0,-9216.0,-12288.0
1.645,-3584.0,-9152.0,-12288.0
1.6475,-3584.0,-9152.0,-12224.0
1.65,-3584.0,-9152.0,-12224.0
1.6525,-3648.0,-9152.0,-12224.0
1.655,-3648.0,-9216.0,-12224.0
1.6575,-3712.0,-9216.0,-12224.0
1.66,-3712.0,-9216.0,-12224.0
1.6625,-3648.0,-9280.0,-12160.0
1.665,-3648.0,-9280.0,-12160.0
1.6675,-3648.0,-9280.0,-12224.0
1.67,-3712.0,-9280.0,-12160.0
1.6725,-3712.0,-9280.0,-12224.0
1.675,-3776.0,-9344.0,-12160.0
1.6775,-3776.0,-9280.0,-12224.0
1.68,-3776.0,-9280.0,-12160.0
1.6825,-3840.0,-9280.0,-12096.0
1.685,-3840.0,-9344.0,-12096.0
1.6875,-3840.0,-9344.0,-12032.0
1.69,-3904.0,-9344.0,-12032.0
1.6925,-3968.0,-9280.0,-12032.0
1.695,-3968.0,-9280.0,-11904.0
1.6975,-3968.0,-9344.0,-11968.0
1.7,-4032.0,-9344.0,-11904.0
1.7025,-4032.0,-9344.0,-11840.0
1.705,-4032.0,-9280.0,-11904.0
1.7075,-4096.0,-9216.0,-11904.0
1.71,-4160.0,-9216.0,-11840.0
1.7125,-4096.0,-9216.0,-11840.0
1.715,-4160.0,-9216.0,-11776.0
1.7175,-4160.0,-9216.0,-11712.0
1.72,-4160.0,-9152.0,-11776.0
1.7225,-4160.0,-9152.0,-11648.0
1.725,-4160.0,-9088.0,-11712.0
1.7275,-4160.0,-9152.0,-11712.0
1.73,-4160.0,-9152.0,-11712.0
1.7325,-4032.0,-9152.0,-11648.0
1.735,-4032.0,-9152.0,-11648.0
1.7375,-3968.0,-9152.0,-11648.0
1.74,-3968.0,-9152.0,-11584.0
1.7425,-3968.0,-9088.0,-11520.0
1.745,-3968.0,-9088.0,-11648.0
1.7475,-3968.0,-9152.0,-11712.0
1.75,-3904.0,-9216.0,-11648.0
1.7525,-3904.0,-9280.0,-11712.0
1.755,-3968.0,-9280.0,-11776.0
1.7575,-3904.0,-9344.0,-11776.0
1.76,-3904.0,-9408.0,-11648.0
1.7625,-3904.0,-9408.0,-11712.0
1.765,-3840.0,-9472.0,-11648.0
1.7675,-3840.0,-9472.0,-11648.0
1.77,-3840.0,-9536.0,-11648.0
1.7725,-3840.0,-9472.0,-11584.0
1.775,-3840.0,-9472.0,-11648.0
1.7775,-3840.0,-9472.0,-11776.0
1.78,-3776.0,-9536.0,-11776.0
1.7825,-3712.0,-9472.0,-11776.0
1.785,-3840.0,-9536.0,-11840.0
1.7875,-3776.0,-9536.0,-11840.0
1.79,-3776.0,-9600.0,-11904.0
1.7925,-3840.0,-9600.0,-11968.0
1.795,-3840.0,-9600.0,-12032.0
1.7975,-3840.0,-9600.0,-11968.0
1.8,-3840.0,-9536.0,-12032.0
1.8025,-3840.0,-9536.0,-12096.0
1.805,-3776.0,-9536.0,-12160.0
1.8075,-3776.0,-9536.0,-12160.0
1.81,-3776.0,-9472.0,-12096.0
1.8125,-3840.0,-9536.0,-12160.0
1.815,-3776.0,-9472.0,-12288.0
1.8175,-3776.0,-9472.0,-12288.0
1.82,-3840.0,-9536.0,-12224.0
1.8225,-3776.0,-9472.0,-12224.0
1.825,-3776.0,-9472.0,-12224.0
1.8275,-3776.0,-9472.0,-12288.0
1.83,-3776.0,-9472.0,-12288.0
1.8325,-3776.0,-9536.0,-12288.0
1.835,-3776.0,-9536.0,-12288.0
1.8375,-3840.0,-9536.0,-12352.0
1.84,-3840.0,-9600.0,-12416.0
1.8425,-3776.0,-9600.0,-12416.0
1.845,-3776.0,-9664.0,-12480.0
1.8475,-3776.0,-9664.0,-12544.0
1.85,-3776.0,-9664.0,-12480.0
1.8525,-3776.0,-9664.0,-12608.0
1.855,-3840.0,-9728.0,-12672.0
1.8575,-3776.0,-9664.0,-12672.0
1.86,-3776.0,-9664.0,-12672.0
1.8625,-3840.0,-9664.0,-12736.0
1.865,-3840.0,-9600.0,-12736.0
1.8675,-3776.0,-9536.0,-12672.0
1.87,-3840.0,-9536.0,-12736.0
1.8725,-3776.0,-9600.0,-12800.0
1.875,-3840.0,-9536.0,-12800.0
1.8775,-3776.0,-9536.0,-12736.0
1.88,-3776.0,-9536.0,-12800.0
1.8825,-3776.0,-9536.0,-12800.0
1.885,-3776.0,-9472.0,-12864.0
1.8875,-3776.0,-9472.0,-12864.0
1.89,-3776.0,-9408.0,-12864.0
1.8925,-3712.0,-9344.0,-12864.0
1.895,-3712.0,-9344.0,-12864.0
1.8975,-3648.0,-9280.0,-12864.0
1.9,-3712.0,-9280.0,-12864.0
1.9025,-3712.0,-9280.0,-12928.0
1.905,-3712.0,-9280.0,-12864.0
1.9075,-3712.0,-9280.0,-12928.0
1.91,-3648.0,-9216.0,-12928.0
1.9125,-3648.0,-9216.0,-12928.0
1.915,-3648.0,-9152.0,-12928.0
1.9175,-3648.0,-9088.0,-12928.0
1.92,-3648.0,-9088.0,-12864.0
1.9225,-3648.0,-9024.0,-12864.0
1.925,-3712.0,-9088.0,-12864.0
1.9275,-3712.0,-9024.0,-12864.0
1.93,-3712.0,-9024.0,-12864.0
1.9325,-3648.0,-9024.0,-12864.0
1.935,-3648.0,-8896.0,-12864.0
1.9375,-3712.0,-8960.0,-12928.0
1.94,-3712.0,-8960.0,-12864.0
1.9425,-3712.0,-9024.0,-12800.0
1.945,-3648.0,-9024.0,-12800.0
1.9475,-3712.0,-8960.0,-12736.0
1.95,-3712.0,-8960.0,-12736.0
1.9525,-3712.0,-9024.0,-12672.0
1.955,-3712.0,-9024.0,-12608.0
1.9575,-3712.0,-9024.0,-12608.0
1.96,-3776.0,-9088.0,-12608.0
1.9625,-3648.0,-9088.0,-12544.0
1.965,-3712.0,-9024.0,-12608.0
1.9675,-3648.0,-9088.0,-12608.0
1.97,-3648.0,-9088.0,-12608.0
1.9725,-3712.0,-9152.0,-12608.0
1.975,-3712.0,-9088.0,-12608.0
1.9775,-3712.0,-9088.0,-12544.0
1.98,-3712.0,-9088.0,-12480.0
1.9825,-3648.0,-9088.0,-12544.0
1.985,-3648.0,-9088.0,-12544.0
1.9875,-3584.0,-9088.0,-12480.0
1.99,-3648.0,-9088.0,-12480.0
1.9925,-3648.0,-9152.0,-12544.0
1.995,-3712.0,-9152.0,-12480.0
1.9975,-3648.0,-9152.0,-12480.0
2.0,-3648.0,-9152.0,-12480.0
2.0025,-3648.0,-9152.0,-12352.0
2.005,-3584.0,-9152.0,-12416.0
2.0075,-3584.0,-9216.0,-12352.0
2.01,-3648.0,-9216.0,-12288.0
2.0125,-3648.0,-9152.0,-12288.0
2.015,-3648.0,-9152.0,-12288.0
2.0175,-3648.0,-9088.0,-12224.0
2.02,-3584.0,-9152.0,-12160.0
2.0225,-3648.0,-9088.0,-12160.0
2.025,-3584.0,-9088.0,-12160.0
2.0275,-3648.0,-9152.0,-12096.0
2.03,-3648.0,-9088.0,-12096.0
2.0325,-3648.0,-9152.0,-12032.0
2.035,-3648.0,-9152.0,-12032.0
2.0375,-3584.0,-9216.0,-11968.0
2.04,-3648.0,-9152.0,-11968.0
2.0425,-3648.0,-9216.0,-11968.0
2.045,-3584.0,-9280.0,-11968.0
2.0475,-3584.0,-9280.0,-11904.0
2.05,-3648.0,-9344.0,-11840.0
2.0525,-3648.0,-9408.0,-11904.0
2.055,-3648.0,-9344.0,-11968.0
2.0575,-3648.0,-9408.0,-11904.0
2.06,-3648.0,-9408.0,-11904.0
2.0625,-3648.0,-9472.0,-11968.0
2.065,-3584.0,-9408.0,-11968.0
2.0675,-3520.0,-9472.0,-11968.0
2.07,-3520.0,-9472.0,-12032.0
2.0725,-3648.0,-9536.0,-12096.0
2.075,-3648.0,-9536.0,-12096.0
2.0775,-3712.0,-9600.0,-12096.0
2.08,-3712.0,-9600.0,-12096.0
2.0825,-3648.0,-9600.0,-12160.0
2.085,-3712.0,-9600.0,-12224.0
2.0875,-3648.0,-9600.0,-12224.0
2.09,-3712.0,-9664.0,-12224.0
2.0925,-3712.0,-9664.0,-12288.0
2.095,-3712.0,-9664.0,-12288.0
2.0975,-3712.0,-9664.0,-12352.0
2.1,-3776.0,-9728.0,-12288.0
2.1025,-3776.0,-9792.0,-12352.0
2.105,-3776.0,-9728.0,-12352.0
2.1075,-3776.0,-9792.0,-12352.0
2.11,-3776.0,-9728.0,-12480.0
2.1125,-3776.0,-9792.0,-12352.0
2.115,-3840.0,-9728.0,-12352.0
2.1175,-3840.0,-9792.0,-12416.0
2.12,-3840.0,-9792.0,-12416.0
2.1225,-3904.0,-9792.0,-12352.0
2.125,-3968.0,-9792.0,-12416.0
2.1275,-3904.0,-9792.0,-12416.0
2.13,-3904.0,-9792.0,-12416.0
2.1325,-3904.0,-9792.0,-12480.0
2.135,-3904.0,-9856.0,-12416.0
2.1375,-3904.0,-9792.0,-12480.0
2.14,-3904.0,-9664.0,-12544.0
2.1425,-3840.0,-9664.0,-12544.0
2.145,-3904.0,-9728.0,-12608.0
2.1475,-3904.0,-9728.0,-12672.0
2.15,-3904.0,-9664.0,-12672.0
2.1525,-3904.0,-9728.0,-12800.0
2.155,-3904.0,-9728.0,-12736.0
2.1575,-3904.0,-9664.0,-12800.0
2.16,-3840.0,-9600.0,-12736.0
2.1625,-3840.0,-9536.0,-12800.0
2.165,-3840.0,-9536.0,-12672.0
2.1675,-3776.0,-9472.0,-12672.0
2.17,-3776.0,-9472.0,-12672.0
2.1725,-3712.0,-9408.0,-12608.0
2.175,-3712.0,-9408.0,-12544.0
2.1775,-3712.0,-9408.0,-12544.0
2.18,-3712.0,-9408.0,-12544.0
2.1825,-3712.0,-9408.0,-12608.0
2.185,-3712.0,-9408.0,-12672.0
2.1875,-3712.0,-9408.0,-12672.0
2.19,-3712.0,-9408.0,-12736.0
2.1925,-3712.0,-9408.0,-12800.0
2.195,-3712.0,-9408.0,-12800.0
2.1975,-3648.0,-9344.0,-12800.0
2.2,-3648.0,-9280.0,-12800.0
2.2025,-3712.0,-9280.0,-12736.0
2.205,-3648.0,-9344.0,-12736.0
2.2075,-3648.0,-9280.0,-12800.0
2.21,-3648.0,-9216.0,-12736.0
2.2125,-3584.0,-9152.0,-12736.0
2.215,-3584.0,-9152.0,-12672.0
2.2175,-3584.0,-9152.0,-12736.0
2.22,-3584.0,-9152.0,-12672.0
2.2225,-3520.0,-9152.0,-12672.0
2.225,-3520.0,-9024.0,-12736.0
2.2275,-3584.0,-9088.0,-12736.0
2.23,-3584.0,-9088.0,-12672.0
2.2325,-3584.0,-9088.0,-12736.0
2.235,-3520.0,-9088.0,-12608.0
2.2375,-3584.0,-9088.0,-12672.0
2.24,-3584.0,-9024.0,-12672.0
2.2425,-3520.0,-9024.0,-12672.0
2.245,-3584.0,-9024.0,-12736.0
2.2475,-3584.0,-9024.0,-12672.0
2.25,-3584.0,-8960.0,-12736.0
2.2525,-3648.0,-8896.0,-12736.0
2.255,-3584.0,-8960.0,-12800.0
2.2575,-3584.0,-8896.0,-12736.0
2.26,-3520.0,-8896.0,-12736.0
2.2625,-3584.0,-8960.0,-12672.0
2.265,-3520.0,-8896.0,-12672.0
2.2675,-3520.0,-8896.0,-12672.0
2.27,-3520.0,-8896.0,-12608.0
2.2725,-3520.0,-8960.0,-12672.0
2.275,-3520.0,-8960.0,-12736.0
2.2775,-3584.0,-9088.0,-12608.0
2.28,-3584.0,-9088.0,-12608.0
2.2825,-3584.0,-9152.0,-12608.0
2.285,-3648.0,-9152.0,-12608.0
2.2875,-3648.0,-9216.0,-12672.0
2.29,-3584.0,-9216.0,-12608.0
2.2925,-3584.0,-9280.0,-12544.0
2.295,-3648.0,-9280.0,-12608.0
2.2975,-3712.0,-9216.0,-12544.0
2.3,-3648.0,-9216.0,-12480.0
2.3025,-3648.0,-9152.0,-12480.0
2.305,-3648.0,-9152.0,-12544.0
2.3075,-3712.0,-9152.0,-12480.0
2.31,-3648.0,-9088.0,-12480.0
2.3125,-3648.0,-9152.0,-12416.0
2.315,-3648.0,-9152.0,-12416.0
2.3175,-3648.0,-9216.0,-12416.0
2.32,-3584.0,-9152.0,-12352.0
2.3225,-3648.0,-9088.0,-12352.0
2.325,-3712.0,-9088.0,-12352.0
2.3275,-3648.0,-9088.0,-12288.0
2.33,-3584.0,-9152.0,-12224.0
2.3325,-3584.0,-9152.0,-12224.0
2.335,-3584.0,-9152.0,-12160.0
2.3375,-3520.0,-9088.0,-12224.0
2.34,-3520.0,-9152.0,-12288.0
2.3425,-3520.0,-9152.0,-12224.0
2.345,-3520.0,-9152.0,-12288.0
2.3475,-3456.0,-9152.0,-12160.0
2.35,-3456.0,-9152.0,-12288.0
2.3525,-3392.0,-9216.0,-12224.0
2.355,-3328.0,-9216.0,-12288.0
2.3575,-3328.0,-9280.0,-12288.0
2.36,-3328.0,-9216.0,-12224.0
2.3625,-3328.0,-9216.0,-12160.0
2.365,-3264.0,-9280.0,-12224.0
2.3675,-3328.0,-9344.0,-12224.0
2.37,-3328.0,-9344.0,-12288.0
2.3725,-3392.0,-9344.0,-12288.0
2.375,-3328.0,-9344.0,-12288.0
2.3775,-3392.0,-9408.0,-12288.0
2.38,-3392.0,-9472.0,-12288.0
2.3825,-3328.0,-9472.0,-12352.0
2.385,-3328.0,-9472.0,-12352.0
2.3875,-3392.0,-9472.0,-12352.0
2.39,-3456.0,-9472.0,-12416.0
2.3925,-3456.0,-9472.0,-12480.0
2.395,-3456.0,-9472.0,-12480.0
2.3975,-3520.0,-9408.0,-12416.0
2.4,-3520.0,-9472.0,-12416.0
2.4025,-3520.0,-9408.0,-12416.0
2.405,-3584.0,-9408.0,-12416.0
2.4075,-3584.0,-9408.0,-12416.0
2.41,-3648.0,-9472.0,-12416.0
2.4125,-3648.0,-9408.0,-12416.0
2.415,-3712.0,-9408.0,-12480.0
2.4175,-3712.0,-9408.0,-12544.0
2.42,-3776.0,-9408.0,-12608.0
2.4225,-3776.0,-9344.0,-12672.0
2.425,-3776.0,-9344.0,-12736.0
2.4275,-3840.0,-9408.0,-12672.0
2.43,-3840.0,-9408.0,-12736.0
2.4325,-3840.0,-9408.0,-12736.0
2.435,-3904.0,-9408.0,-12800.0
2.4375,-3840.0,-9408.0,-12736.0
2.44,-3904.0,-9408.0,-12736.0
2.4425,-3968.0,-9408.0,-12736.0
2.445,-4032.0,-9408.0,-12672.0
2.4475,-4160.0,-9408.0,-12672.0
2.45,-4096.0,-9408.0,-12800.0
2.4525,-4160.0,-9344.0,-12736.0
2.455,-4224.0,-9344.0,-12736.0
2.4575,-4160.0,-9408.0,-12672.0
2.46,-4224.0,-9408.0,-12672.0
2.4625,-4224.0,-9408.0,-12608.0
2.465,-4224.0,-9408.0,-12608.0
2.4675,-4224.0,-9408.0,-12608.0
2.47,-4224.0,-9408.0,-12544.0
2.4725,-4288.0,-9408.0,-12544.0
2.475,-4224.0,-9408.0,-12544.0
2.4775,-4224.0,-9344.0,-12544.0
2.48,-4160.0,-9344.0,-12544.0
2.4825,-4160.0,-9280.0,-12480.0
2.485,-4160.0,-9344.0,-12416.0
2.4875,-4096.0,-9408.0,-12416.0
2.49,-4160.0,-9344.0,-12416.0
2.4925,-4096.0,-9280.0,-12480.0
2.495,-4096.0,-9280.0,-12352.0
2.4975,-4032.0,-9280.0,-12416.0
2.5,-4032.0,-9344.0,-12288.0
2.5025,-4032.0,-9280.0,-12352.0
2.505,-4032.0,-9280.0,-12352.0
2.5075,-4032.0,-9280.0,-12224.0
2.51,-4032.0,-9280.0,-12224.0
2.5125,-4032.0,-9280.0,-12224.0
2.515,-4032.0,-9216.0,-12096.0
2.5175,-4032.0,-9216.0,-12096.0
2.52,-4032.0,-9216.0,-12096.0
2.5225,-3968.0,-9216.0,-12032.0
2.525,-3968.0,-9280.0,-11904.0
2.5275,-3904.0,-9216.0,-11904.0
2.53,-3968.0,-9216.0,-11840.0
2.5325,-3968.0,-9216.0,-11904.0
2.535,-3904.0,-9280.0,-11840.0
2.5375,-3904.0,-9280.0,-11904.0
2.54,-3968.0,-9216.0,-11840.0
2.5425,-3968.0,-9216.0,-11776.0
2.545,-3968.0,-9216.0,-11776.0
2.5475,-3904.0,-9152.0,-11776.0
2.55,-3840.0,-9280.0,-11776.0
2.5525,-3840.0,-9216.0,-11776.0
2.555,-3904.0,-9280.0,-11840.0
2.5575,-3904.0,-9216.0,-11776.0
2.56,-3840.0,-9280.0,-11648.0
2.5625,-3776.0,-9344.0,-11776.0
2.565,-3776.0,-9344.0,-11776.0
2.5675,-3776.0,-9280.0,-11712.0
2.57,-3776.0,-9280.0,-11776.0
2.5725,-3712.0,-9280.0,-11776.0
2.575,-3712.0,-9280.0,-11776.0
2.5775,-3712.0,-9280.0,-11712.0
2.58,-3712.0,-9280.0,-11776.0
2.5825,-3712.0,-9280.0,-11776.0
2.585,-3712.0,-9280.0,-11776.0
2.5875,-3712.0,-9280.0,-11776.0
2.59,-3712.0,-9280.0,-11840.0
2.5925,-3712.0,-9280.0,-11840.0
2.595,-3712.0,-9408.0,-11840.0
2.5975,-3712.0,-9408.0,-11840.0
2.6,-3712.0,-9408.0,-11840.0
2.6025,-3712.0,-9344.0,-11904.0
2.605,-3712.0,-9344.0,-11968.0
2.6075,-3648.0,-9344.0,-11968.0
2.61,-3712.0,-9344.0,-11968.0
2.6125,-3648.0,-9280.0,-12032.0
2.615,-3648.0,-9344.0,-12096.0
2.6175,-3648.0,-9344.0,-12096.0
2.62,-3648.0,-9344.0,-12096.0
2.6225,-3648.0,-9280.0,-12096.0
2.625,-3648.0,-9280.0,-12160.0
2.6275,-3648.0,-9344.0,-12224.0
2.63,-3648.0,-9344.0,-12160.0
2.6325,-3648.0,-9344.0,-12288.0
2.635,-3584.0,-9280.0,-12288.0
2.6375,-3584.0,-9344.0,-12224.0
2.64,-3648.0,-9344.0,-12416.0
2.6425,-3648.0,-9344.0,-12352.0
2.645,-3584.0,-9344.0,-12288.0
2.6475,-3584.0,-9344.0,-12352.0
2.65,-3648.0,-9344.0,-12416.0
2.6525,-3584.0,-9280.0,-12416.0
2.655,-3584.0,-9344.0,-12416.0
2.6575,-3584.0,-9280.0,-12416.0
2.66,-3584.0,-9280.0,-12416.0
2.6625,-3648.0,-9280.0,-12480.0
2.665,-3584.0,-9216.0,-12480.0
2.6675,-3584.0,-9280.0,-12544.0
2.67,-3584.0,-9280.0,-12608.0
2.6725,-3584.0,-9280.0,-12608.0
2.675,-3584.0,-9344.0,-12608.0
2.6775,-3584.0,-9280.0,-12672.0
2.68,-3584.0,-9280.0,-12672.0
2.6825,-3584.0,-9216.0,-12672.0
2.685,-3584.0,-9280.0,-12672.0
2.6875,-3648.0,-9216.0,-12672.0
2.69,-3584.0,-9216.0,-12736.0
2.6925,-3584.0,-9216.0,-12736.0
2.695,-3584.0,-9216.0,-12736.0
2.6975,-3584.0,-9216.0,-12736.0
2.7,-3520.0,-9216.0,-12800.0
2.7025,-3584.0,-9152.0,-12736.0
2.705,-3520.0,-9216.0,-12736.0
2.7075,-3584.0,-9152.0,-12736.0
2.71,-3520.0,-9152.0,-12736.0
2.7125,-3520.0,-9152.0,-12800.0
2.715,-3584.0,-9216.0,-12736.0
2.7175,-3648.0,-9216.0,-12736.0
2.72,-3584.0,-9152.0,-12800.0
2.7225,-3584.0,-9216.0,-12800.0
2.725,-3584.0,-9216.0,-12864.0
2.7275,-3584.0,-9216.0,-12864.0
2.73,-3584.0,-9216.0,-12736.0
2.7325,-3520.0,-9216.0,-12800.0
2.735,-3584.0,-9280.0,-12800.0
2.7375,-3584.0,-9216.0,-12864.0
2.74,-3584.0,-9216.0,-12800.0
2.7425,-3584.0,-9216.0,-12800.0
2.745,-3584.0,-9152.0,-12800.0
2.7475,-3584.0,-9152.0,-12800.0
2.75,-3584.0,-9152.0,-12800.0
2.7525,-3584.0,-9152.0,-12736.0
2.755,-3520.0,-9088.0,-12672.0
2.7575,-3520.0,-9088.0,-12736.0
2.76,-3520.0,-9152.0,-12736.0
2.7625,-3520.0,-9152.0,-12672.0
2.765,-3520.0,-9152.0,-12736.0
2.7675,-3520.0,-9152.0,-12672.0
2.77,-3520.0,-9024.0,-12672.0
2.7725,-3520.0,-9088.0,-12672.0
2.775,-3520.0,-9024.0,-12672.0
2.7775,-3520.0,-9024.0,-12672.0
2.78,-3520.0,-9024.0,-12608.0
2.7825,-3520.0,-9024.0,-12608.0
2.785,-3456.0,-8896.0,-12544.0
2.7875,-3392.0,-8960.0,-12544.0
2.79,-3392.0,-8960.0,-12544.0
2.7925,-3456.0,-8960.0,-12416.0
2.795,-3328.0,-8960.0,-12480.0
2.7975,-3264.0,-8960.0,-12416.0
2.8,-3328.0,-9024.0,-12352.0
2.8025,-3264.0,-9024.0,-12480.0
2.805,-3328.0,-8960.0,-12544.0
2.8075,-3392.0,-9024.0,-12544.0
2.81,-3392.0,-9024.0,-12480.0
2.8125,-3328.0,-8896.0,-12416.0
2.815,-3328.0,-8960.0,-12416.0
2.8175,-3392.0,-9024.0,-12416.0
2.82,-3328.0,-8960.0,-12416.0
2.8225,-3328.0,-9024.0,-12416.0
2.825,-3328.0,-8960.0,-12416.0
2.8275,-3328.0,-9024.0,-12416.0
2.83,-3328.0,-9088.0,-12480.0
2.8325,-3328.0,-9088.0,-12416.0
2.835,-3392.0,-9088.0,-12416.0
2.8375,-3328.0,-9088.0,-12416.0
2.84,-3328.0,-9088.0,-12416.0
2.8425,-3328.0,-9088.0,-12416.0
2.845,-3456.0,-9088.0,-12480.0
2.8475,-3456.0,-9152.0,-12480.0
2.85,-3520.0,-9152.0,-12544.0
2.8525,-3520.0,-9216.0,-12544.0
2.855,-3456.0,-9088.0,-12544.0
2.8575,-3456.0,-9152.0,-12608.0
2.86,-3520.0,-9152.0,-12608.0
2.8625,-3520.0,-9152.0,-12544.0
2.865,-3584.0,-9152.0,-12544.0
2.8675,-3520.0,-9152.0,-12608.0
2.87,-3520.0,-9152.0,-12608.0
2.8725,-3584.0,-9088.0,-12544.0
2.875,-3520.0,-9088.0,-12608.0
2.8775,-3584.0,-9088.0,-12608.0
2.88,-3712.0,-9152.0,-12544.0
2.8825,-3648.0,-9088.0,-12608.0
2.885,-3648.0,-9024.0,-12608.0
2.8875,-3712.0,-9088.0,-12672.0
2.89,-3776.0,-9088.0,-12672.0
2.8925,-3712.0,-9152.0,-12672.0
2.895,-3712.0,-9152.0,-12608.0
2.8975,-3712.0,-9152.0,-12608.0
2.9,-3712.0,-9216.0,-12672.0
2.9025,-3712.0,-9216.0,-12672.0
2.905,-3776.0,-9152.0,-12608.0
2.9075,-3776.0,-9152.0,-12608.0
2.91,-3712.0,-9152.0,-12608.0
2.9125,-3776.0,-9152.0,-12544.0
2.915,-3776.0,-9088.0,-12544.0
2.9175,-3776.0,-9152.0,-12544.0
2.92,-3712.0,-9152.0,-12480.0
2.9225,-3776.0,-9088.0,-12480.0
2.925,-3712.0,-9088.0,-12544.0
2.9275,-3712.0,-9152.0,-12480.0
2.93,-3712.0,-9216.0,-12544.0
2.9325,-3776.0,-9216.0,-12544.0
2.935,-3776.0,-9216.0,-12608.0
2.9375,-3776.0,-9280.0,-12608.0
2.94,-3712.0,-9280.0,-12608.0
2.9425,-3712.0,-9280.0,-12672.0
2.945,-3712.0,-9280.0,-12672.0
2.9475,-3712.0,-9280.0,-12672.0
2.95,-3776.0,-9280.0,-12672.0
2.9525,-3712.0,-9280.0,-12736.0
2.955,-3648.0,-9280.0,-12736.0
2.9575,-3648.0,-9280.0,-12672.0
2.96,-3648.0,-9152.0,-12672.0
2.9625,-3584.0,-9088.0,-12672.0
2.965,-3584.0,-9088.0,-12608.0
2.9675,-3584.0,-9088.0,-12672.0
2.97,-3648.0,-9152.0,-12608.0
2.9725,-3584.0,-9152.0,-12608.0
2.975,-3584.0,-9152.0,-12608.0
2.9775,-3584.0,-9152.0,-12608.0
2.98,-3648.0,-9216.0,-12608.0
2.9825,-3648.0,-9216.0,-12608.0
2.985,-3712.0,-9216.0,-12608.0
2.9875,-3648.0,-9280.0,-12608.0
2.99,-3648.0,-9344.0,-12672.0
2.9925,-3648.0,-9280.0,-12608.0
2.995,-3648.0,-9344.0,-12672.0
2.9975,-3648.0,-9344.0,-12672.0
3.0,-3712.0,-9344.0,-12672.0
3.0025,-3712.0,-9344.0,-12608.0
3.005,-3712.0,-9280.0,-12608.0
3.0075,-3712.0,-9344.0,-12608.0
3.01,-3648.0,-9280.0,-12608.0
3.0125,-3648.0,-9280.0,-12480.0
3.015,-3648.0,-9344.0,-12480.0
3.0175,-3648.0,-9344.0,-12480.0
3.02,-3648.0,-9280.0,-12544.0
3.0225,-3648.0,-9280.0,-12480.0
3.025,-3712.0,-9216.0,-12480.0
3.0275,-3648.0,-9280.0,-12480.0
3.03,-3648.0,-9216.0,-12416.0
3.0325,-3648.0,-9280.0,-12416.0
3.035,-3648.0,-9280.0,-12416.0
3.0375,-3648.0,-9280.0,-12416.0
3.04,-3648.0,-9152.0,-12416.0
3.0425,-3712.0,-9216.0,-12416.0
3.045,-3648.0,-9216.0,-12480.0
3.0475,-3648.0,-9152.0,-12416.0
3.05,-3712.0,-9088.0,-12352.0
3.0525,-3712.0,-9152.0,-12288.0
3.055,-3712.0,-9088.0,-12352.0
3.0575,-3712.0,-9088.0,-12352.0
3.06,-3648.0,-9088.0,-12224.0
3.0625,-3648.0,-9088.0,-12160.0
3.065,-3648.0,-9088.0,-12224.0
3.0675,-3648.0,-9152.0,-12160.0
3.07,-3648.0,-9152.0,-12224.0
3.0725,-3648.0,-9152.0,-12224.0
3.075,-3712.0,-9216.0,-12160.0
3.0775,-3648.0,-9280.0,-12096.0
3.08,-3648.0,-9280.0,-12160.0
3.0825,-3648.0,-9344.0,-12224.0
3.085,-3648.0,-9280.0,-12224.0
3.0875,-3648.0,-9280.0,-12160.0
3.09,-3648.0,-9344.0,-12096.0
3.0925,-3712.0,-9344.0,-12160.0
3.095,-3712.0,-9408.0,-12160.0
3.0975,-3648.0,-9408.0,-12160.0
3.1,-3712.0,-9408.0,-12224.0
3.1025,-3648.0,-9344.0,-12224.0
3.105,-3648.0,-9344.0,-12224.0
3.1075,-3648.0,-9344.0,-12224.0
3.11,-3648.0,-9344.0,-12224.0
3.1125,-3648.0,-9280.0,-12224.0
3.115,-3712.0,-9216.0,-12224.0
3.1175,-3712.0,-9280.0,-12224.0
3.12,-3712.0,-9216.0,-12224.0
3.1225,-3712.0,-9152.0,-12224.0
3.125,-3712.0,-9152.0,-12224.0
3.1275,-3776.0,-9088.0,-12288.0
3.13,-3712.0,-9088.0,-12288.0
3.1325,-3776.0,-9088.0,-12288.0
3.135,-3712.0,-9024.0,-12224.0
3.1375,-3776.0,-9088.0,-12224.0
3.14,-3776.0,-9088.0,-12288.0
3.1425,-3840.0,-9024.0,-12288.0
3.145,-3776.0,-9024.0,-12352.0
3.1475,-3776.0,-9024.0,-12288.0
3.15,-3776.0,-9024.0,-12288.0
3.1525,-3712.0,-9024.0,-12352.0
3.155,-3776.0,-9088.0,-12352.0
3.1575,-3776.0,-9088.0,-12352.0
3.16,-3712.0,-9088.0,-12352.0
3.1625,-3776.0,-9152.0,-12288.0
3.165,-3776.0,-9152.0,-12352.0
3.1675,-3840.0,-9216.0,-12288.0
3.17,-3776.0,-9216.0,-12352.0
3.1725,-3776.0,-9280.0,-12288.0
3.175,-3776.0,-9344.0,-12224.0
3.1775,-3712.0,-9344.0,-12288.0
3.18,-3712.0,-9344.0,-12352.0
3.1825,-3776.0,-9344.0,-12288.0
3.185,-3776.0,-9344.0,-12352.0
3.1875,-3712.0,-9280.0,-12352.0
3.19,-3776.0,-9280.0,-12352.0
3.1925,-3776.0,-9280.0,-12352.0
3.195,-3712.0,-9152.0,-12416.0
3.1975,-3712.0,-9216.0,-12416.0
3.2,-3648.0,-9216.0,-12480.0
3.2025,-3712.0,-9152.0,-12544.0
3.205,-3712.0,-9152.0,-12544.0
3.2075,-3712.0,-9088.0,-12608.0
3.21,-3712.0,-9152.0,-12544.0
3.2125,-3648.0,-9152.0,-12480.0
3.215,-3648.0,-9152.0,-12480.0
3.2175,-3648.0,-9088.0,-12416.0
3.22,-3648.0,-9088.0,-12544.0
3.2225,-3648.0,-9152.0,-12480.0
3.225,-3712.0,-9152.0,-12480.0
3.2275,-3776.0,-9152.0,-12480.0
3.23,-3776.0,-9152.0,-12544.0
3.2325,-3712.0,-9152.0,-12544.0
3.235,-3712.0,-9152.0,-12608.0
3.2375,-3712.0,-9088.0,-12608.0
3.24,-3712.0,-9152.0,-12608.0
3.2425,-3776.0,-9152.0,-12608.0
3.245,-3840.0,-9152.0,-12608.0
3.2475,-3776.0,-9216.0,-12608.0
3.25,-3776.0,-9216.0,-12544.0
3.2525,-3776.0,-9280.0,-12608.0
3.255,-3776.0,-9216.0,-12608.0
3.2575,-3840.0,-9216.0,-12672.0
3.26,-3840.0,-9216.0,-12608.0
3.2625,-3904.0,-9216.0,-12608.0
3.265,-3840.0,-9216.0,-12736.0
3.2675,-3904.0,-9152.0,-12736.0
3.27,-3840.0,-9216.0,-12672.0
3.2725,-3840.0,-9152.0,-12608.0
3.275,-3904.0,-9152.0,-12672.0
3.2775,-3840.0,-9088.0,-12608.0
3.28,-3840.0,-9088.0,-12672.0
3.2825,-3840.0,-9024.0,-12608.0
3.285,-3904.0,-9088.0,-12672.0
3.2875,-3840.0,-9152.0,-12608.0
3.29,-3776.0,-9152.0,-12672.0
3.2925,-3840.0,-9152.0,-12608.0
3.295,-3840.0,-9152.0,-12672.0
3.2975,-3840.0,-9088.0,-12672.0
3.3,-3776.0,-9088.0,-12672.0
3.3025,-3840.0,-9088.0,-12736.0
3.305,-3904.0,-9088.0,-12736.0
3.3075,-3776.0,-9088.0,-12672.0
3.31,-3776.0,-9088.0,-12672.0
3.3125,-3776.0,-9152.0,-12608.0
3.315,-3776.0,-9216.0,-12608.0
3.3175,-3776.0,-9280.0,-12672.0
3.32,-3840.0,-9280.0,-12672.0
3.3225,-3840.0,-9280.0,-12736.0
3.325,-3840.0,-9280.0,-12736.0
3.3275,-3776.0,-9280.0,-12736.0
3.33,-3840.0,-9216.0,-12672.0
3.3325,-3840.0,-9280.0,-12736.0
3.335,-3840.0,-9216.0,-12672.0
3.3375,-3840.0,-9216.0,-12672.0
3.34,-3840.0,-9216.0,-12672.0
3.3425,-3840.0,-9152.0,-12672.0
3.345,-3904.0,-9216.0,-12736.0
3.3475,-3904.0,-9216.0,-12736.0
3.35,-3840.0,-9152.0,-12672.0
3.3525,-3904.0,-9152.0,-12672.0
3.355,-3904.0,-9152.0,-12608.0
3.3575,-3840.0,-9088.0,-12608.0
3.36,-3904.0,-9088.0,-12608.0
3.3625,-3840.0,-9088.0,-12672.0
3.365,-3776.0,-9088.0,-12608.0
3.3675,-3840.0,-9024.0,-12544.0
3.37,-3776.0,-8960.0,-12544.0
3.3725,-3776.0,-9024.0,-12480.0
3.375,-3776.0,-8960.0,-12544.0
3.3775,-3840.0,-8960.0,-12544.0
3.38,-3840.0,-9088.0,-12544.0
3.3825,-3776.0,-9024.0,-12480.0
3.385,-3776.0,-9088.0,-12480.0
3.3875,-3776.0,-9152.0,-12416.0
3.39,-3840.0,-9152.0,-12416.0
3.3925,-3776.0,-9152.0,-12480.0
3.395,-3712.0,-9152.0,-12480.0
3.3975,-3776.0,-9152.0,-12416.0
3.4,-3840.0,-9216.0,-12416.0
3.4025,-3776.0,-9152.0,-12480.0
3.405,-3776.0,-9216.0,-12480.0
3.4075,-3776.0,-9216.0,-12480.0
3.41,-3776.0,-9152.0,-12480.0
3.4125,-3712.0,-9216.0,-12480.0
3.415,-3776.0,-9216.0,-12480.0
3.4175,-3712.0,-9216.0,-12480.0
3.42,-3776.0,-9152.0,-12544.0
3.4225,-3776.0,-9152.0,-12544.0
3.425,-3712.0,-9152.0,-12608.0
3.4275,-3712.0,-9152.0,-12544.0
3.43,-3712.0,-9152.0,-12544.0
3.4325,-3712.0,-9152.0,-12608.0
3.435,-3776.0,-9152.0,-12608.0
3.4375,-3776.0,-9152.0,-12544.0
3.44,-3776.0,-9152.0,-12416.0
3.4425,-3712.0,-9152.0,-12480.0
3.445,-3776.0,-9216.0,-12480.0
3.4475,-3776.0,-9152.0,-12544.0
3.45,-3776.0,-9088.0,-12544.0
3.4525,-3776.0,-9152.0,-12608.0
3.455,-3776.0,-9152.0,-12608.0
3.4575,-3840.0,-9088.0,-12608.0
3.46,-3840.0,-9088.0,-12480.0
3.4625,-3776.0,-9024.0,-12480.0
3.465,-3840.0,-9024.0,-12544.0
3.4675,-3840.0,-9088.0,-12608.0
3.47,-3904.0,-9088.0,-12544.0
3.4725,-3840.0,-9088.0,-12544.0
3.475,-3840.0,-9152.0,-12608.0
3.4775,-3840.0,-9152.0,-12736.0
3.48,-3904.0,-9152.0,-12736.0
3.4825,-3968.0,-9152.0,-12736.0
3.485,-3968.0,-9152.0,-12736.0
3.4875,-3968.0,-9088.0,-12736.0
3.49,-3968.0,-9024.0,-12736.0
3.4925,-3968.0,-9024.0,-12672.0
3.495,-3904.0,-8960.0,-12672.0
3.4975,-3968.0,-9024.0,-12672.0
3.5,-3968.0,-9024.0,-12736.0
3.5025,-3968.0,-9024.0,-12736.0
3.505,-3968.0,-9024.0,-12672.0
3.5075,-3968.0,-9088.0,-12672.0
3.51,-3968.0,-8960.0,-12672.0
3.5125,-3968.0,-9024.0,-12608.0
3.515,-3840.0,-8960.0,-12608.0
3.5175,-3904.0,-9024.0,-12608.0
3.52,-3904.0,-9024.0,-12544.0
3.5225,-3904.0,-9088.0,-12480.0
3.525,-3840.0,-9024.0,-12544.0
3.5275,-3840.0,-9024.0,-12480.0
3.53,-3840.0,-9088.0,-12480.0
3.5325,-3840.0,-9088.0,-12480.0
3.535,-3840.0,-9088.0,-12480.0
3.5375,-3840.0,-9088.0,-12480.0
3.54,-3840.0,-9152.0,-12480.0
3.5425,-3840.0,-9216.0,-12480.0
3.545,-3840.0,-9216.0,-12480.0
3.5475,-3840.0,-9216.0,-12544.0
3.55,-3776.0,-9280.0,-12544.0
3.5525,-3840.0,-9216.0,-12480.0
3.555,-3840.0,-9280.0,-12480.0
3.5575,-3840.0,-9280.0,-12480.0
3.56,-3904.0,-9280.0,-12416.0
3.5625,-3904.0,-9280.0,-12480.0
3.565,-3840.0,-9344.0,-12480.0
3.5675,-3840.0,-9280.0,-12480.0
3.57,-3840.0,-9216.0,-12480.0
3.5725,-3840.0,-9216.0,-12480.0
3.575,-3840.0,-9216.0,-12416.0
3.5775,-3840.0,-9216.0,-12480.0
3.58,-3840.0,-9216.0,-12416.0
3.5825,-3904.0,-9152.0,-12480.0
3.585,-3840.0,-9216.0,-12480.0
3.5875,-3840.0,-9216.0,-12416.0
3.59,-3776.0,-9216.0,-12352.0
3.5925,-3776.0,-9216.0,-12352.0
3.595,-3840.0,-9216.0,-12352.0
3.5975,-3904.0,-9216.0,-12288.0
3.6,-3840.0,-9152.0,-12224.0
3.6025,-3840.0,-9152.0,-12224.0
3.605,-3776.0,-9152.0,-12160.0
3.6075,-3776.0,-9152.0,-12224.0
3.61,-3776.0,-9216.0,-12224.0
3.6125,-3776.0,-9280.0,-12224.0
3.615,-3840.0,-9280.0,-12224.0
3.6175,-3840.0,-9280.0,-12288.0
3.62,-3712.0,-9280.0,-12352.0
3.6225,-3776.0,-9344.0,-12288.0
3.625,-3776.0,-9280.0,-12352.0
3.6275,-3776.0,-9280.0,-12416.0
3.63,-3776.0,-9344.0,-12416.0
3.6325,-3776.0,-9344.0,-12480.0
3.635,-3776.0,-9344.0,-12416.0
3.6375,-3776.0,-9344.0,-12416.0
3.64,-3776.0,-9408.0,-12416.0
3.6425,-3776.0,-9344.0,-12352.0
3.645,-3776.0,-9344.0,-12416.0
3.6475,-3776.0,-9344.0,-12352.0
3.65,-3712.0,-9280.0,-12288.0
3.6525,-3776.0,-9344.0,-12288.0
3.655,-3776.0,-9280.0,-12288.0
3.6575,-3776.0,-9280.0,-12288.0
3.66,-3840.0,-9344.0,-12288.0
3.6625,-3776.0,-9280.0,-12352.0
3.665,-3776.0,-9280.0,-12352.0
3.6675,-3776.0,-9280.0,-12352.0
3.67,-3776.0,-9280.0,-12416.0
3.6725,-3776.0,-9280.0,-12480.0
3.675,-3776.0,-9280.0,-12416.0
3.6775,-3712.0,-9280.0,-12416.0
3.68,-3776.0,-9280.0,-12416.0
3.6825,-3776.0,-9216.0,-12416.0
3.685,-3712.0,-9216.0,-12480.0
3.6875,-3712.0,-9216.0,-12480.0
3.69,-3712.0,-9152.0,-12416.0
3.6925,-3712.0,-9216.0,-12416.0
3.695,-3712.0,-9216.0,-12416.0
3.6975,-3712.0,-9216.0,-12480.0
3.7,-3712.0,-9216.0,-12416.0
3.7025,-3712.0,-9280.0,-12352.0
3.705,-3712.0,-9344.0,-12480.0
3.7075,-3712.0,-9280.0,-12480.0
3.71,-3712.0,-9280.0,-12544.0
3.7125,-3712.0,-9280.0,-12544.0
3.715,-3712.0,-9216.0,-12544.0
3.7175,-3712.0,-9216.0,-12544.0
3.72,-3712.0,-9280.0,-12608.0
3.7225,-3776.0,-9280.0,-12672.0
3.725,-3712.0,-9216.0,-12672.0
3.7275,-3776.0,-9216.0,-12608.0
3.73,-3776.0,-9216.0,-12608.0
3.7325,-3776.0,-9280.0,-12608.0
3.735,-3712.0,-9216.0,-12608.0
3.7375,-3712.0,-9216.0,-12608.0
3.74,-3776.0,-9216.0,-12544.0
3.7425,-3712.0,-9216.0,-12608.0
3.745,-3712.0,-9088.0,-12544.0
3.7475,-3648.0,-9152.0,-12672.0
3.75,-3712.0,-9152.0,-12608.0
3.7525,-3648.0,-9152.0,-12608.0
3.755,-3648.0,-9088.0,-12544.0
3.7575,-3584.0,-9088.0,-12672.0
3.76,-3648.0,-9088.0,-12608.0
3.7625,-3648.0,-9088.0,-12608.0
3.765,-3584.0,-9088.0,-12608.0
3.7675,-3584.0,-9024.0,-12672.0
3.77,-3584.0,-9088.0,-12608.0
3.7725,-3648.0,-9088.0,-12544.0
3.775,-3584.0,-9152.0,-12608.0
3.7775,-3584.0,-9152.0,-12608.0
3.78,-3584.0,-9152.0,-12544.0
3.7825,-3584.0,-9152.0,-12544.0
3.785,-3648.0,-9088.0,-12608.0
3.7875,-3648.0,-9088.0,-12608.0
3.79,-3648.0,-9088.0,-12608.0
3.7925,-3648.0,-9088.0,-12544.0
3.795,-3648.0,-9152.0,-12544.0
3.7975,-3648.0,-9088.0,-12608.0
3.8,-3648.0,-9024.0,-12608.0
3.8025,-3584.0,-8960.0,-12544.0
3.805,-3584.0,-8960.0,-12544.0
3.8075,-3584.0,-9024.0,-12608.0
3.81,-3584.0,-9024.0,-12544.0
3.8125,-3520.0,-9024.0,-12544.0
3.815,-3520.0,-9024.0,-12608.0
3.8175,-3520.0,-9088.0,-12608.0
3.82,-3520.0,-9024.0,-12608.0
3.8225,-3520.0,-9024.0,-12608.0
3.825,-3520.0,-9024.0,-12608.0
3.8275,-3584.0,-8960.0,-12544.0
3.83,-3584.0,-8960.0,-12544.0
3.8325,-3584.0,-8896.0,-12544.0
3.835,-3584.0,-8896.0,-12608.0
3.8375,-3520.0,-8832.0,-12544.0
3.84,-3456.0,-8768.0,-12544.0
3.8425,-3520.0,-8768.0,-12608.0
3.845,-3520.0,-8768.0,-12608.0
3.8475,-3520.0,-8768.0,-12608.0
3.85,-3520.0,-8768.0,-12608.0
3.8525,-3520.0,-8832.0,-12672.0
3.855,-3584.0,-8832.0,-12672.0
3.8575,-3520.0,-8768.0,-12672.0
3.86,-3648.0,-8832.0,-12672.0
3.8625,-3584.0,-8832.0,-12608.0
3.865,-3584.0,-8832.0,-12608.0
3.8675,-3584.0,-8832.0,-12608.0
3.87,-3584.0,-8768.0,-12672.0
3.8725,-3520.0,-8768.0,-12608.0
3.875,-3520.0,-8768.0,-12672.0
3.8775,-3520.0,-8704.0,-12672.0
3.88,-3520.0,-8768.0,-12608.0
3.8825,-3520.0,-8768.0,-12672.0
3.885,-3584.0,-8704.0,-12608.0
3.8875,-3584.0,-8704.0,-12672.0
3.89,-3520.0,-8704.0,-12672.0
3.8925,-3520.0,-8704.0,-12608.0
3.895,-3520.0,-8704.0,-12608.0
3.8975,-3584.0,-8768.0,-12608.0
3.9,-3520.0,-8768.0,-12672.0
3.9025,-3584.0,-8704.0,-12672.0
3.905,-3584.0,-8768.0,-12672.0
3.9075,-3584.0,-8768.0,-12672.0
3.91,-3648.0,-8768.0,-12736.0
3.9125,-3584.0,-8768.0,-12736.0
3.915,-3584.0,-8768.0,-12736.0
3.9175,-3584.0,-8768.0,-12736.0
3.92,-3584.0,-8704.0,-12736.0
3.9225,-3520.0,-8640.0,-12672.0
3.925,-3584.0,-8640.0,-12672.0
3.9275,-3584.0,-8576.0,-12672.0
3.93,-3584.0,-8576.0,-12672.0
3.9325,-3584.0,-8576.0,-12672.0
3.935,-3584.0,-8512.0,-12672.0
3.9375,-3584.0,-8512.0,-12672.0
3.94,-3520.0,-8576.0,-12736.0
3.9425,-3584.0,-8576.0,-12736.0
3.945,-3520.0,-8576.0,-12608.0
3.9475,-3520.0,-8512.0,-12672.0
3.95,-3584.0,-8576.0,-12608.0
3.9525,-3584.0,-8512.0,-12544.0
3.955,-3520.0,-8512.0,-12608.0
3.9575,-3520.0,-8576.0,-12608.0
3.96,-3520.0,-8576.0,-12608.0
3.9625,-3584.0,-8640.0,-12608.0
3.965,-3584.0,-8640.0,-12608.0
3.9675,-3520.0,-8640.0,-12608.0
3.97,-3520.0,-8704.0,-12608.0
3.9725,-3520.0,-8640.0,-12608.0
3.975,-3456.0,-8768.0,-12672.0
3.9775,-3392.0,-8704.0,-12672.0
3.98,-3392.0,-8704.0,-12608.0
3.9825,-3392.0,-8704.0,-12672.0
3.985,-3456.0,-8768.0,-12672.0
3.9875,-3392.0,-8896.0,-12736.0
3.99,-3392.0,-8896.0,-12736.0
3.9925,-3456.0,-8896.0,-12736.0
3.995,-3392.0,-8896.0,-12736.0
3.9975,-3456.0,-8896.0,-12736.0
4.0,-3520.0,-8960.0,-12736.0
4.0025,-3520.0,-8896.0,-12672.0
4.005,-3456.0,-8832.0,-12672.0
4.0075,-3456.0,-8832.0,-12672.0
4.01,-3456.0,-8896.0,-12736.0
4.0125,-3456.0,-8896.0,-12672.0
4.015,-3456.0,-8896.0,-12672.0
4.0175,-3456.0,-8832.0,-12608.0
4.02,-3520.0,-8832.0,-12608.0
4.0225,-3520.0,-8896.0,-12608.0
4.025,-3456.0,-8896.0,-12736.0
4.0275,-3456.0,-8896.0,-12672.0
4.03,-3520.0,-8960.0,-12672.0
4.0325,-3520.0,-8896.0,-12672.0
4.035,-3520.0,-8896.0,-12672.0
4.0375,-3520.0,-8960.0,-12672.0
4.04,-3520.0,-8896.0,-12608.0
4.0425,-3520.0,-8896.0,-12672.0
4.045,-3520.0,-8896.0,-12672.0
4.0475,-3456.0,-8896.0,-12672.0
4.05,-3520.0,-8960.0,-12672.0
4.0525,-3584.0,-8960.0,-12672.0
4.055,-3520.0,-8960.0,-12672.0
4.0575,-3456.0,-8960.0,-12736.0
4.06,-3456.0,-8960.0,-12736.0
4.0625,-3584.0,-8960.0,-12800.0
4.065,-3584.0,-9024.0,-12864.0
4.0675,-3584.0,-9024.0,-12864.0
4.07,-3584.0,-9088.0,-12800.0
4.0725,-3584.0,-9088.0,-12800.0
4.075,-3584.0,-9088.0,-12800.0
4.0775,-3584.0,-9088.0,-12800.0
4.08,-3648.0,-9152.0,-12672.0
4.0825,-3648.0,-9216.0,-12736.0
4.085,-3712.0,-9216.0,-12736.0
4.0875,-3648.0,-9216.0,-12608.0
4.09,-3648.0,-9344.0,-12608.0
4.0925,-3648.0,-9344.0,-12608.0
4.095,-3648.0,-9408.0,-12608.0
4.0975,-3648.0,-9408.0,-12608.0
4.1,-3648.0,-9408.0,-12608.0
4.1025,-3712.0,-9472.0,-12544.0
4.105,-3776.0,-9472.0,-12608.0
4.1075,-3776.0,-9472.0,-12480.0
4.11,-3776.0,-9408.0,-12480.0
4.1125,-3776.0,-9472.0,-12480.0
4.115,-3712.0,-9472.0,-12480.0
4.1175,-3712.0,-9472.0,-12544.0
4.12,-3648.0,-9472.0,-12480.0
4.1225,-3648.0,-9472.0,-12416.0
4.125,-3648.0,-9472.0,-12416.0
4.1275,-3712.0,-9408.0,-12416.0
4.13,-3648.0,-9408.0,-12416.0
4.1325,-3648.0,-9472.0,-12416.0
4.135,-3648.0,-9408.0,-12480.0
4.1375,-3648.0,-9408.0,-12416.0
4.14,-3648.0,-9408.0,-12416.0
4.1425,-3648.0,-9472.0,-12480.0
4.145,-3648.0,-9536.0,-12480.0
4.1475,-3584.0,-9536.0,-12416.0
4.15,-3648.0,-9536.0,-12416.0
4.1525,-3648.0,-9536.0,-12416.0
4.155,-3648.0,-9472.0,-12352.0
4.1575,-3712.0,-9536.0,-12352.0
4.16,-3712.0,-9536.0,-12288.0
4.1625,-3712.0,-9536.0,-12352.0
4.165,-3712.0,-9536.0,-12352.0
4.1675,-3648.0,-9600.0,-12288.0
4.17,-3648.0,-9600.0,-12288.0
4.1725,-3712.0,-9600.0,-12352.0
4.175,-3648.0,-9600.0,-12352.0
4.1775,-3648.0,-9536.0,-12288.0
4.18,-3712.0,-9536.0,-12288.0
4.1825,-3648.0,-9536.0,-12288.0
4.185,-3648.0,-9472.0,-12352.0
4.1875,-3712.0,-9408.0,-12416.0
4.19,-3712.0,-9344.0,-12352.0
4.1925,-3712.0,-9344.0,-12416.0
4.195,-3712.0,-9280.0,-12544.0
4.1975,-3648.0,-9280.0,-12544.0
4.2,-3648.0,-9216.0,-12544.0
4.2025,-3712.0,-9216.0,-12544.0
4.205,-3712.0,-9152.0,-12608.0
4.2075,-3712.0,-9088.0,-12672.0
4.21,-3648.0,-8960.0,-12608.0
4.2125,-3648.0,-8960.0,-12672.0
4.215,-3648.0,-8960.0,-12608.0
4.2175,-3584.0,-8960.0,-12544.0
4.22,-3584.0,-8896.0,-12608.0
4.2225,-3648.0,-8832.0,-12544.0
4.225,-3648.0,-8832.0,-12544.0
4.2275,-3712.0,-8832.0,-12608.0
4.23,-3584.0,-8832.0,-12608.0
4.2325,-3584.0,-8768.0,-12608.0
4.235,-3520.0,-8832.0,-12608.0
4.2375,-3584.0,-8768.0,-12736.0
4.24,-3584.0,-8768.0,-12672.0
4.2425,-3584.0,-8768.0,-12736.0
4.245,-3520.0,-8768.0,-12736.0
4.2475,-3584.0,-8704.0,-12800.0
4.25,-3584.0,-8704.0,-12800.0
4.2525,-3520.0,-8768.0,-12672.0
4.255,-3520.0,-8768.0,-12736.0
4.2575,-3520.0,-8768.0,-12800.0
4.26,-3520.0,-8768.0,-12864.0
4.2625,-3520.0,-8832.0,-12864.0
4.265,-3520.0,-8768.0,-12800.0
4.2675,-3520.0,-8832.0,-12800.0
4.27,-3520.0,-8768.0,-12800.0
4.2725,-3520.0,-8768.0,-12864.0
4.275,-3520.0,-8768.0,-12864.0
4.2775,-3520.0,-8768.0,-12864.0
4.28,-3520.0,-8704.0,-12864.0
4.2825,-3456.0,-8704.0,-12864.0
4.285,-3520.0,-8704.0,-12928.0
4.2875,-3520.0,-8640.0,-12864.0
4.29,-3520.0,-8704.0,-12992.0
4.2925,-3520.0,-8640.0,-12992.0
4.295,-3520.0,-8768.0,-13056.0
4.2975,-3520.0,-8768.0,-12992.0
4.3,-3584.0,-8768.0,-12992.0
4.3025,-3584.0,-8704.0,-12928.0
4.305,-3520.0,-8640.0,-12992.0
4.3075,-3584.0,-8640.0,-12992.0
4.31,-3584.0,-8576.0,-12992.0
4.3125,-3520.0,-8576.0,-12928.0
4.315,-3520.0,-8576.0,-12992.0
4.3175,-3584.0,-8576.0,-13056.0
4.32,-3648.0,-8640.0,-13056.0
4.3225,-3648.0,-8576.0,-13120.0
4.325,-3648.0,-8576.0,-13056.0
4.3275,-3648.0,-8512.0,-12992.0
4.33,-3648.0,-8512.0,-13056.0
4.3325,-3648.0,-8512.0,-13056.0
4.335,-3584.0,-8512.0,-13056.0
4.3375,-3648.0,-8512.0,-13120.0
4.34,-3712.0,-8448.0,-12992.0
4.3425,-3648.0,-8448.0,-13120.0
4.345,-3648.0,-8512.0,-13056.0
4.3475,-3712.0,-8448.0,-13120.0
4.35,-3712.0,-8448.0,-13184.0
4.3525,-3712.0,-8512.0,-13120.0
4.355,-3648.0,-8512.0,-13120.0
4.3575,-3648.0,-8512.0,-13120.0
4.36,-3648.0,-8512.0,-13120.0
4.3625,-3584.0,-8512.0,-12992.0
4.365,-3648.0,-8576.0,-13120.0
4.3675,-3584.0,-8576.0,-12992.0
4.37,-3584.0,-8576.0,-12992.0
4.3725,-3584.0,-8576.0,-12928.0
4.375,-3584.0,-8576.0,-12928.0
4.3775,-3584.0,-8576.0,-12928.0
4.38,-3520.0,-8576.0,-12864.0
4.3825,-3520.0,-8576.0,-12992.0
4.385,-3584.0,-8512.0,-12992.0
4.3875,-3584.0,-8512.0,-12992.0
4.39,-3520.0,-8512.0,-12864.0
4.3925,-3520.0,-8512.0,-12928.0
4.395,-3520.0,-8512.0,-12864.0
4.3975,-3520.0,-8512.0,-12800.0
4.4,-3520.0,-8448.0,-12864.0
4.4025,-3520.0,-8384.0,-12800.0
4.405,-3520.0,-8448.0,-12736.0
4.4075,-3456.0,-8384.0,-12736.0
4.41,-3456.0,-8448.0,-12672.0
4.4125,-3456.0,-8448.0,-12736.0
4.415,-3520.0,-8512.0,-12736.0
4.4175,-3584.0,-8448.0,-12800.0
4.42,-3584.0,-8512.0,-12736.0
4.4225,-3584.0,-8512.0,-12800.0
4.425,-3584.0,-8512.0,-12800.0
4.4275,-3584.0,-8512.0,-12800.0
4.43,-3648.0,-8512.0,-12736.0
4.4325,-3584.0,-8512.0,-12800.0
4.435,-3584.0,-8512.0,-12800.0
4.4375,-3648.0,-8576.0,-12800.0
4.44,-3648.0,-8640.0,-12736.0
4.4425,-3712.0,-8640.0,-12672.0
4.445,-3712.0,-8704.0,-12736.0
4.4475,-3712.0,-8704.0,-12736.0
4.45,-3712.0,-8768.0,-12736.0
4.4525,-3648.0,-8832.0,-12736.0
4.455,-3776.0,-8832.0,-12736.0
4.4575,-3712.0,-8768.0,-12800.0
4.46,-3776.0,-8768.0,-12864.0
4.4625,-3712.0,-8768.0,-12864.0
4.465,-3712.0,-8768.0,-12800.0
4.4675,-3776.0,-8768.0,-12864.0
4.47,-3776.0,-8768.0,-12800.0
4.4725,-3776.0,-8768.0,-12800.0
4.475,-3776.0,-8768.0,-12800.0
4.4775,-3776.0,-8704.0,-12800.0
4.48,-3840.0,-8704.0,-12800.0
4.4825,-3840.0,-8704.0,-12864.0
4.485,-3840.0,-8704.0,-12864.0
4.4875,-3840.0,-8704.0,-12864.0
4.49,-3904.0,-8704.0,-12800.0
4.4925,-3840.0,-8704.0,-12800.0
4.495,-3840.0,-8704.0,-12800.0
4.4975,-3840.0,-8704.0,-12800.0
4.5,-3840.0,-8768.0,-12736.0
4.5025,-3840.0,-8768.0,-12800.0
4.505,-3840.0,-8768.0,-12800.0
4.5075,-3776.0,-8832.0,-12736.0
4.51,-3840.0,-8832.0,-12672.0
4.5125,-3776.0,-8832.0,-12736.0
4.515,-3840.0,-8832.0,-12736.0
4.5175,-3840.0,-8768.0,-12736.0
4.52,-3776.0,-8768.0,-12736.0
4.5225,-3776.0,-8768.0,-12672.0
4.525,-3776.0,-8832.0,-12608.0
4.5275,-3840.0,-8832.0,-12544.0
4.53,-3776.0,-8832.0,-12544.0
4.5325,-3776.0,-8832.0,-12544.0
4.535,-3712.0,-8896.0,-12544.0
4.5375,-3712.0,-8896.0,-12544.0
4.54,-3776.0,-8960.0,-12544.0
4.5425,-3776.0,-8960.0,-12608.0
4.545,-3776.0,-8960.0,-12608.0
4.5475,-3712.0,-8960.0,-12608.0
4.55,-3712.0,-8960.0,-12608.0
4.5525,-3648.0,-8896.0,-12544.0
4.555,-3648.0,-8960.0,-12672.0
4.5575,-3648.0,-8960.0,-12608.0
4.56,-3648.0,-8960.0,-12672.0
4.5625,-3648.0,-8960.0,-12672.0
4.565,-3648.0,-8960.0,-12736.0
4.5675,-3712.0,-8896.0,-12736.0
4.57,-3648.0,-8960.0,-12736.0
4.5725,-3712.0,-8960.0,-12736.0
4.575,-3712.0,-9024.0,-12736.0
4.5775,-3712.0,-9024.0,-12672.0
4.58,-3648.0,-8960.0,-12608.0
4.5825,-3648.0,-9152.0,-12736.0
4.585,-3712.0,-9344.0,-12800.0
4.5875,-3776.0,-9344.0,-12864.0
4.59,-3776.0,-9216.0,-12864.0
4.5925,-3712.0,-9216.0,-12928.0
4.595,-3776.0,-9280.0,-12928.0
4.5975,-3712.0,-9280.0,-12928.0
4.6,-3712.0,-9344.0,-12928.0
4.6025,-3712.0,-9280.0,-12928.0
4.605,-3712.0,-9152.0,-12864.0
4.6075,-3712.0,-9088.0,-12928.0
4.61,-3712.0,-9152.0,-12928.0
4.6125,-3712.0,-9152.0,-12992.0
4.615,-3648.0,-9088.0,-13056.0
4.6175,-3648.0,-9088.0,-13056.0
4.62,-3584.0,-8960.0,-13120.0
4.6225,-3520.0,-8960.0,-13120.0
4.625,-3520.0,-8896.0,-13120.0
4.6275,-3584.0,-8896.0,-13120.0
4.63,-3584.0,-8896.0,-13184.0
4.6325,-3520.0,-8704.0,-13248.0
4.635,-3456.0,-8576.0,-13184.0
4.6375,-3456.0,-8512.0,-13184.0
4.64,-3520.0,-8448.0,-13120.0
4.6425,-3520.0,-8320.0,-13184.0
4.645,-3456.0,-8256.0,-13120.0
4.6475,-3456.0,-8256.0,-13184.0
4.65,-3520.0,-8192.0,-13120.0
4.6525,-3456.0,-8128.0,-13184.0
4.655,-3456.0,-8128.0,-13120.0
4.6575,-3520.0,-8128.0,-13120.0
4.66,-3520.0,-8064.0,-13056.0
4.6625,-3520.0,-8064.0,-12992.0
4.665,-3456.0,-8064.0,-13056.0
4.6675,-3456.0,-8000.0,-12992.0
4.67,-3456.0,-8064.0,-13056.0
4.6725,-3456.0,-8064.0,-13056.0
4.675,-3392.0,-8064.0,-13120.0
4.6775,-3392.0,-8128.0,-13056.0
4.68,-3456.0,-8128.0,-13120.0
4.6825,-3456.0,-8192.0,-13120.0
4.685,-3392.0,-8192.0,-13184.0
4.6875,-3456.0,-8256.0,-13184.0
4.69,-3520.0,-8320.0,-13248.0
4.6925,-3456.0,-8320.0,-13184.0
4.695,-3456.0,-8384.0,-13184.0
4.6975,-3456.0,-8320.0,-13248.0
4.7,-3392.0,-8384.0,-13312.0
4.7025,-3456.0,-8448.0,-13376.0
4.705,-3456.0,-8448.0,-13376.0
4.7075,-3392.0,-8512.0,-13376.0
4.71,-3456.0,-8512.0,-13376.0
4.7125,-3520.0,-8576.0,-13440.0
4.715,-3456.0,-8576.0,-13440.0
4.7175,-3456.0,-8512.0,-13504.0
4.72,-3520.0,-8512.0,-13376.0
4.7225,-3456.0,-8512.0,-13376.0
4.725,-3392.0,-8512.0,-13376.0
4.7275,-3456.0,-8448.0,-13440.0
4.73,-3392.0,-8384.0,-13312.0
4.7325,-3456.0,-8384.0,-13312.0
4.735,-3392.0,-8384.0,-13248.0
4.7375,-3392.0,-8320.0,-13248.0
4.74,-3392.0,-8256.0,-13184.0
4.7425,-3392.0,-8192.0,-13184.0
4.745,-3392.0,-8192.0,-13184.0
4.7475,-3392.0,-8128.0,-13120.0
4.75,-3392.0,-8128.0,-13184.0
4.7525,-3392.0,-8128.0,-13120.0
4.755,-3392.0,-8128.0,-13056.0
4.7575,-3392.0,-8064.0,-13056.0
4.76,-3456.0,-8064.0,-13056.0
4.7625,-3456.0,-8000.0,-13056.0
4.765,-3392.0,-8000.0,-13056.0
4.7675,-3456.0,-8064.0,-12992.0
4.77,-3520.0,-8064.0,-12992.0
4.7725,-3520.0,-8064.0,-13056.0
4.775,-3520.0,-8064.0,-13056.0
4.7775,-3456.0,-8128.0,-12992.0
4.78,-3456.0,-8192.0,-13056.0
4.7825,-3456.0,-8192.0,-12992.0
4.785,-3520.0,-8256.0,-12992.0
4.7875,-3456.0,-8256.0,-12992.0
4.79,-3456.0,-8256.0,-13056.0
4.7925,-3520.0,-8320.0,-12992.0
4.795,-3456.0,-8320.0,-12992.0
4.7975,-3456.0,-8320.0,-12992.0
4.8,-3520.0,-8448.0,-12992.0
4.8025,-3456.0,-8448.0,-12992.0
4.805,-3392.0,-8512.0,-13056.0
4.8075,-3392.0,-8576.0,-13056.0
4.81,-3392.0,-8512.0,-13120.0
4.8125,-3392.0,-8576.0,-13056.0
4.815,-3392.0,-8512.0,-13056.0
4.8175,-3392.0,-8512.0,-12992.0
4.82,-3392.0,-8512.0,-12992.0
4.8225,-3392.0,-8512.0,-13056.0
4.825,-3392.0,-8512.0,-13056.0
4.8275,-3456.0,-8512.0,-12992.0
4.83,-3392.0,-8512.0,-13056.0
4.8325,-3392.0,-8512.0,-13056.0
4.835,-3456.0,-8448.0,-13056.0
4.8375,-3392.0,-8448.0,-13120.0
4.84,-3456.0,-8384.0,-13056.0
4.8425,-3392.0,-8384.0,-12992.0
4.845,-3392.0,-8384.0,-12992.0
4.8475,-3328.0,-8448.0,-12992.0
4.85,-3392.0,-8384.0,-13056.0
4.8525,-3392.0,-8384.0,-13056.0
4.855,-3456.0,-8320.0,-12992.0
4.8575,-3520.0,-8384.0,-12928.0
4.86,-3520.0,-8320.0,-12992.0
4.8625,-3584.0,-8320.0,-12992.0
4.865,-3648.0,-8384.0,-12992.0
4.8675,-3584.0,-8448.0,-12992.0
4.87,-3584.0,-8384.0,-13056.0
4.8725,-3648.0,-8448.0,-12992.0
4.875,-3712.0,-8512.0,-12992.0
4.8775,-3648.0,-8512.0,-12992.0
4.88,-3840.0,-8512.0,-12992.0
4.8825,-3840.0,-8640.0,-13056.0
4.885,-3840.0,-8640.0,-13184.0
4.8875,-3840.0,-8704.0,-13184.0
4.89,-3840.0,-8640.0,-13248.0
4.8925,-3904.0,-8704.0,-13248.0
4.895,-3904.0,-8704.0,-13312.0
4.8975,-3968.0,-8768.0,-13312.0
4.9,-3968.0,-8768.0,-13312.0
4.9025,-4032.0,-8832.0,-13312.0
4.905,-3968.0,-8832.0,-13312.0
4.9075,-3968.0,-8832.0,-13312.0
4.91,-3904.0,-8832.0,-13376.0
4.9125,-3904.0,-8832.0,-13376.0
4.915,-3904.0,-8896.0,-13248.0
4.9175,-3904.0,-8896.0,-13312.0
4.92,-3840.0,-8960.0,-13312.0
4.9225,-3776.0,-8960.0,-13312.0
4.925,-3712.0,-8960.0,-13312.0
4.9275,-3712.0,-8960.0,-13248.0
4.93,-3648.0,-8960.0,-13184.0
4.9325,-3584.0,-8960.0,-13248.0
4.935,-3648.0,-8832.0,-13184.0
4.9375,-3584.0,-8768.0,-13120.0
4.94,-3520.0,-8704.0,-13120.0
4.9425,-3520.0,-8640.0,-13184.0
4.945,-3520.0,-8512.0,-13120.0
4.9475,-3456.0,-8384.0,-13056.0
4.95,-3456.0,-8320.0,-13120.0
4.9525,-3456.0,-8320.0,-13120.0
4.955,-3456.0,-8192.0,-13056.0
4.9575,-3392.0,-8128.0,-13056.0
4.96,-3328.0,-7936.0,-12992.0
4.9625,-3328.0,-7808.0,-12864.0
4.965,-3328.0,-7744.0,-12928.0
4.9675,-3328.0,-7680.0,-12928.0
4.97,-3264.0,-7616.0,-12928.0
4.9725,-3264.0,-7552.0,-12928.0
4.975,-3264.0,-7424.0,-12992.0
4.9775,-3264.0,-7424.0,-12928.0
4.98,-3264.0,-7360.0,-12928.0
4.9825,-3200.0,-7424.0,-12928.0
4.985,-3200.0,-7296.0,-12928.0
4.9875,-3264.0,-7360.0,-12928.0
4.99,-3328.0,-7424.0,-12992.0
4.9925,-3328.0,-7424.0,-12992.0
4.995,-3392.0,-7552.0,-13056.0
4.9975,-3456.0,-7552.0,-13056.0
5.0,-3520.0,-7616.0,-13120.0
5.0025,-3520.0,-7744.0,-13120.0
5.005,-3520.0,-7808.0,-13120.0
5.0075,-3584.0,-7872.0,-13184.0
5.01,-3584.0,-8000.0,-13248.0
5.0125,-3648.0,-8000.0,-13248.0
5.015,-3648.0,-8064.0,-13248.0
5.0175,-3712.0,-8064.0,-13312.0
5.02,-3776.0,-8128.0,-13312.0
5.0225,-3776.0,-8128.0,-13376.0
5.025,-3840.0,-8192.0,-13312.0
5.0275,-3840.0,-8256.0,-13440.0
5.03,-3904.0,-8320.0,-13504.0
5.0325,-3840.0,-8320.0,-13632.0
5.035,-3840.0,-8320.0,-13568.0
5.0375,-3776.0,-8384.0,-13568.0
5.04,-3712.0,-8320.0,-13504.0
5.0425,-3712.0,-8320.0,-13440.0
5.045,-3648.0,-8320.0,-13440.0
5.0475,-3584.0,-8256.0,-13440.0
5.05,-3584.0,-8192.0,-13376.0
5.0525,-3520.0,-8128.0,-13440.0
5.055,-3584.0,-8064.0,-13376.0
5.0575,-3520.0,-8064.0,-13376.0
5.06,-3456.0,-7936.0,-13376.0
5.0625,-3392.0,-7872.0,-13376.0
5.065,-3456.0,-7808.0,-13440.0
5.0675,-3392.0,-7744.0,-13440.0
5.07,-3392.0,-7616.0,-13312.0
5.0725,-3456.0,-7552.0,-13312.0
5.075,-3392.0,-7552.0,-13248.0
5.0775,-3328.0,-7488.0,-13248.0
5.08,-3264.0,-7488.0,-13248.0
5.0825,-3328.0,-7424.0,-13184.0
5.085,-3392.0,-7424.0,-13248.0
5.0875,-3392.0,-7424.0,-13248.0
5.09,-3392.0,-7424.0,-13184.0
5.0925,-3392.0,-7360.0,-13184.0
5.095,-3392.0,-7424.0,-13184.0
5.0975,-3392.0,-7424.0,-13056.0
5.1,-3456.0,-7424.0,-13056.0
5.1025,-3456.0,-7488.0,-13056.0
5.105,-3520.0,-7488.0,-13056.0
5.1075,-3456.0,-7552.0,-13056.0
5.11,-3520.0,-7680.0,-13184.0
5.1125,-3520.0,-7744.0,-13184.0
5.115,-3648.0,-7808.0,-13248.0
5.1175,-3648.0,-7936.0,-13248.0
5.12,-3712.0,-8064.0,-13376.0
5.1225,-3776.0,-8000.0,-13440.0
5.125,-3776.0,-8064.0,-13440.0
5.1275,-3776.0,-8064.0,-13376.0
5.13,-3776.0,-8064.0,-13440.0
5.1325,-3712.0,-8064.0,-13376.0
5.135,-3776.0,-8064.0,-13312.0
5.1375,-3712.0,-8064.0,-13248.0
5.14,-3712.0,-8064.0,-13248.0
5.1425,-3712.0,-8064.0,-13248.0
5.145,-3712.0,-8064.0,-13248.0
5.1475,-3648.0,-8064.0,-13184.0
5.15,-3648.0,-8000.0,-13184.0
5.1525,-3712.0,-8064.0,-13120.0
5.155,-3648.0,-8000.0,-13184.0
5.1575,-3648.0,-8000.0,-13184.0
5.16,-3584.0,-7872.0,-13184.0
5.1625,-3520.0,-7872.0,-13056.0
5.165,-3584.0,-7872.0,-13056.0
5.1675,-3520.0,-7872.0,-13184.0
5.17,-3456.0,-7808.0,-13120.0
5.1725,-3520.0,-7744.0,-13120.0
5.175,-3456.0,-7680.0,-13120.0
5.1775,-3392.0,-7744.0,-13056.0
5.18,-3328.0,-7680.0,-13184.0
5.1825,-3328.0,-7680.0,-13120.0
5.185,-3392.0,-7680.0,-13120.0
5.1875,-3392.0,-7680.0,-13120.0
5.19,-3392.0,-7744.0,-13120.0
5.1925,-3392.0,-7744.0,-13120.0
5.195,-3456.0,-7808.0,-13056.0
5.1975,-3392.0,-7808.0,-13056.0
5.2,-3392.0,-7808.0,-13184.0
5.2025,-3392.0,-7872.0,-13184.0
5.205,-3392.0,-7936.0,-13120.0
5.2075,-3456.0,-7936.0,-13184.0
5.21,-3392.0,-7936.0,-13120.0
5.2125,-3456.0,-7936.0,-13120.0
5.215,-3456.0,-7936.0,-13120.0
5.2175,-3392.0,-8000.0,-13184.0
5.22,-3392.0,-8000.0,-13120.0
5.2225,-3456.0,-8064.0,-13120.0
5.225,-3392.0,-8000.0,-13184.0
5.2275,-3456.0,-8000.0,-13248.0
5.23,-3392.0,-8000.0,-13248.0
5.2325,-3456.0,-8064.0,-13312.0
5.235,-3456.0,-8064.0,-13248.0
5.2375,-3392.0,-8064.0,-13312.0
5.24,-3456.0,-8064.0,-13312.0
5.2425,-3392.0,-8064.0,-13248.0
5.245,-3392.0,-8000.0,-13248.0
5.2475,-3392.0,-7936.0,-13248.0
5.25,-3392.0,-7936.0,-13248.0
5.2525,-3392.0,-7936.0,-13184.0
5.255,-3328.0,-7936.0,-13248.0
5.2575,-3328.0,-7936.0,-13248.0
5.26,-3328.0,-7872.0,-13312.0
5.2625,-3328.0,-7872.0,-13376.0
5.265,-3328.0,-7872.0,-13376.0
5.2675,-3392.0,-7872.0,-13504.0
5.27,-3392.0,-7872.0,-13504.0
5.2725,-3392.0,-7872.0,-13568.0
5.275,-3392.0,-7936.0,-13632.0
5.2775,-3392.0,-7872.0,-13632.0
5.28,-3392.0,-7936.0,-13696.0
5.2825,-3392.0,-7936.0,-13696.0
5.285,-3456.0,-7936.0,-13760.0
5.2875,-3392.0,-7936.0,-13824.0
5.29,-3456.0,-7936.0,-13824.0
5.2925,-3456.0,-7936.0,-13824.0
5.295,-3456.0,-7936.0,-13824.0
5.2975,-3456.0,-8000.0,-13760.0
5.3,-3520.0,-8064.0,-13760.0
5.3025,-3520.0,-8064.0,-13824.0
5.305,-3520.0,-8000.0,-13760.0
5.3075,-3456.0,-8000.0,-13824.0
5.31,-3456.0,-8000.0,-13824.0
5.3125,-3456.0,-8000.0,-13824.0
5.315,-3456.0,-7936.0,-13888.0
5.3175,-3456.0,-8000.0,-13824.0
5.32,-3456.0,-8000.0,-13824.0
5.3225,-3520.0,-8000.0,-13824.0
5.325,-3584.0,-7936.0,-13888.0
5.3275,-3584.0,-8000.0,-13888.0
5.33,-3584.0,-8000.0,-13888.0
5.3325,-3584.0,-8000.0,-13952.0
5.335,-3584.0,-7936.0,-13952.0
5.3375,-3584.0,-7936.0,-13952.0
5.34,-3520.0,-7936.0,-14016.0
5.3425,-3520.0,-7936.0,-14016.0
5.345,-3584.0,-7872.0,-14016.0
5.3475,-3648.0,-7808.0,-14080.0
5.35,-3648.0,-7808.0,-14016.0
5.3525,-3648.0,-7872.0,-13952.0
5.355,-3648.0,-7872.0,-14016.0
5.3575,-3712.0,-7872.0,-14016.0
5.36,-3712.0,-7936.0,-13952.0
5.3625,-3712.0,-7936.0,-13888.0
5.365,-3712.0,-8000.0,-13952.0
5.3675,-3712.0,-7936.0,-13952.0
5.37,-3776.0,-7936.0,-13888.0
5.3725,-3776.0,-7936.0,-13952.0
5.375,-3776.0,-7936.0,-13888.0
5.3775,-3712.0,-7936.0,-13824.0
5.38,-3712.0,-7872.0,-13696.0
5.3825,-3712.0,-7936.0,-13696.0
5.385,-3712.0,-7936.0,-13760.0
5.3875,-3712.0,-7872.0,-13760.0
5.39,-3712.0,-7872.0,-13696.0
5.3925,-3648.0,-7936.0,-13696.0
5.395,-3648.0,-7872.0,-13632.0
5.3975,-3648.0,-7808.0,-13632.0
5.4,-3648.0,-7744.0,-13632.0
5.4025,-3648.0,-7808.0,-13568.0
5.405,-3648.0,-7808.0,-13632.0
5.4075,-3584.0,-7808.0,-13632.0
5.41,-3584.0,-7808.0,-13632.0
5.4125,-3584.0,-7808.0,-13632.0
5.415,-3584.0,-7808.0,-13568.0
5.4175,-3584.0,-7808.0,-13632.0
5.42,-3584.0,-7808.0,-13696.0
5.4225,-3520.0,-7744.0,-13632.0
5.425,-3520.0,-7744.0,-13632.0
5.4275,-3456.0,-7744.0,-13632.0
5.43,-3456.0,-7744.0,-13632.0
5.4325,-3456.0,-7744.0,-13568.0
5.435,-3456.0,-7744.0,-13568.0
5.4375,-3392.0,-7744.0,-13568.0
5.44,-3456.0,-7744.0,-13440.0
5.4425,-3456.0,-7744.0,-13440.0
5.445,-3456.0,-7744.0,-13440.0
5.4475,-3456.0,-7680.0,-13312.0
5.45,-3392.0,-7680.0,-13376.0
5.4525,-3456.0,-7744.0,-13440.0
5.455,-3456.0,-7744.0,-13504.0
5.4575,-3456.0,-7744.0,-13568.0
5.46,-3456.0,-7808.0,-13568.0
5.4625,-3456.0,-7744.0,-13568.0
5.465,-3456.0,-7744.0,-13632.0
5.4675,-3392.0,-7744.0,-13632.0
5.47,-3392.0,-7744.0,-13632.0
5.4725,-3392.0,-7744.0,-13568.0
5.475,-3392.0,-7808.0,-13568.0
5.4775,-3392.0,-7808.0,-13632.0
5.48,-3392.0,-7808.0,-13632.0
5.4825,-3392.0,-7808.0,-13696.0
5.485,-3456.0,-7808.0,-13824.0
5.4875,-3392.0,-7872.0,-13760.0
5.49,-3456.0,-7808.0,-13696.0
5.4925,-3456.0,-7872.0,-13824.0
5.495,-3392.0,-7872.0,-13888.0
5.4975,-3392.0,-7872.0,-13888.0
5.5,-3392.0,-7872.0,-13824.0
5.5025,-3392.0,-7872.0,-13824.0
5.505,-3456.0,-7808.0,-13760.0
5.5075,-3328.0,-7680.0,-13696.0
5.51,-3328.0,-7680.0,-13696.0
5.5125,-3328.0,-7680.0,-13632.0
5.515,-3328.0,-7616.0,-13696.0
5.5175,-3328.0,-7680.0,-13696.0
5.52,-3328.0,-7616.0,-13632.0
5.5225,-3392.0,-7616.0,-13632.0
5.525,-3392.0,-7616.0,-13696.0
5.5275,-3392.0,-7616.0,-13696.0
5.53,-3392.0,-7616.0,-13760.0
5.5325,-3392.0,-7616.0,-13632.0
5.535,-3392.0,-7616.0,-13696.0
5.5375,-3392.0,-7616.0,-13696.0
5.54,-3392.0,-7552.0,-13696.0
5.5425,-3392.0,-7616.0,-13760.0
5.545,-3392.0,-7616.0,-13696.0
5.5475,-3392.0,-7552.0,-13696.0
5.55,-3392.0,-7552.0,-13696.0
5.5525,-3392.0,-7552.0,-13696.0
5.555,-3392.0,-7552.0,-13696.0
5.5575,-3392.0,-7616.0,-13632.0
5.56,-3392.0,-7616.0,-13568.0
5.5625,-3392.0,-7680.0,-13504.0
5.565,-3328.0,-7744.0,-13504.0
5.5675,-3328.0,-7744.0,-13440.0
5.57,-3264.0,-7744.0,-13440.0
5.5725,-3264.0,-7808.0,-13440.0
5.575,-3264.0,-7872.0,-13376.0
5.5775,-3200.0,-7808.0,-13376.0
5.58,-3200.0,-7808.0,-13312.0
5.5825,-3200.0,-7808.0,-13312.0
5.585,-3136.0,-7808.0,-13312.0
5.5875,-3136.0,-7808.0,-13248.0
5.59,-3072.0,-7808.0,-13312.0
5.5925,-3072.0,-7808.0,-13312.0
5.595,-3072.0,-7808.0,-13312.0
5.5975,-3008.0,-7808.0,-13376.0
5.6,-3072.0,-7808.0,-13376.0
5.6025,-3072.0,-7808.0,-13248.0
5.605,-3008.0,-7872.0,-13376.0
5.6075,-3072.0,-7936.0,-13504.0
5.61,-3072.0,-7936.0,-13504.0
5.6125,-3072.0,-7936.0,-13504.0
5.615,-3136.0,-7936.0,-13568.0
5.6175,-3136.0,-7936.0,-13568.0
5.62,-3136.0,-7936.0,-13568.0
5.6225,-3136.0,-7936.0,-13568.0
5.625,-3072.0,-7936.0,-13504.0
5.6275,-3136.0,-7936.0,-13440.0
5.63,-3136.0,-7872.0,-13440.0
5.6325,-3136.0,-7872.0,-13440.0
5.635,-3200.0,-7872.0,-13440.0
5.6375,-3136.0,-7936.0,-13312.0
5.64,-3200.0,-7936.0,-13312.0
5.6425,-3200.0,-7936.0,-13312.0
5.645,-3200.0,-7936.0,-13248.0
5.6475,-3200.0,-7936.0,-13248.0
5.65,-3264.0,-8000.0,-13248.0
5.6525,-3264.0,-8000.0,-13184.0
5.655,-3264.0,-7936.0,-13248.0
5.6575,-3264.0,-7872.0,-13184.0
5.66,-3200.0,-7872.0,-13184.0
5.6625,-3136.0,-7936.0,-13248.0
5.665,-3136.0,-7872.0,-13312.0
5.6675,-3136.0,-7936.0,-13312.0
5.67,-3136.0,-7872.0,-13376.0
5.6725,-3136.0,-7872.0,-13376.0
5.675,-3200.0,-7936.0,-13504.0
5.6775,-3200.0,-7936.0,-13440.0
5.68,-3200.0,-7872.0,-13504.0
5.6825,-3136.0,-7872.0,-13504.0
5.685,-3072.0,-7872.0,-13440.0
5.6875,-3072.0,-7872.0,-13440.0
5.69,-3072.0,-7872.0,-13376.0
5.6925,-3008.0,-8000.0,-13376.0
5.695,-3008.0,-8000.0,-13376.0
5.6975,-3008.0,-8064.0,-13376.0
5.7,-3072.0,-8000.0,-13312.0
5.7025,-3072.0,-8064.0,-13376.0
5.705,-3072.0,-8128.0,-13376.0
5.7075,-3136.0,-8128.0,-13440.0
5.71,-3136.0,-8192.0,-13440.0
5.7125,-3136.0,-8256.0,-13440.0
5.715,-3200.0,-8256.0,-13504.0
5.7175,-3200.0,-8256.0,-13440.0
5.72,-3200.0,-8192.0,-13504.0
5.7225,-3200.0,-8256.0,-13440.0
5.725,-3200.0,-8192.0,-13440.0
5.7275,-3136.0,-8192.0,-13440.0
5.73,-3200.0,-8192.0,-13440.0
5.7325,-3136.0,-8192.0,-13504.0
5.735,-3200.0,-8192.0,-13376.0
5.7375,-3264.0,-8128.0,-13376.0
5.74,-3136.0,-8128.0,-13440.0
5.7425,-3136.0,-8128.0,-13376.0
5.745,-3136.0,-8064.0,-13376.0
5.7475,-3136.0,-8064.0,-13440.0
5.75,-3136.0,-8000.0,-13440.0
5.7525,-3136.0,-8000.0,-13440.0
5.755,-3136.0,-7936.0,-13376.0
5.7575,-3072.0,-7936.0,-13376.0
5.76,-3136.0,-7872.0,-13440.0
5.7625,-3200.0,-7808.0,-13504.0
5.765,-3200.0,-7808.0,-13504.0
5.7675,-3136.0,-7808.0,-13504.0
5.77,-3200.0,-7744.0,-13504.0
5.7725,-3200.0,-7808.0,-13440.0
5.775,-3136.0,-7808.0,-13376.0
5.7775,-3136.0,-7808.0,-13440.0
5.78,-3200.0,-7808.0,-13376.0
5.7825,-3200.0,-7872.0,-13376.0
5.785,-3264.0,-7936.0,-13440.0
5.7875,-3264.0,-7936.0,-13504.0
5.79,-3264.0,-8000.0,-13504.0
5.7925,-3328.0,-8000.0,-13440.0
5.795,-3328.0,-8064.0,-13568.0
5.7975,-3328.0,-8128.0,-13632.0
5.8,-3392.0,-8064.0,-13568.0
5.8025,-3392.0,-8064.0,-13504.0
5.805,-3392.0,-8064.0,-13568.0
5.8075,-3392.0,-8128.0,-13632.0
5.81,-3456.0,-8128.0,-13632.0
5.8125,-3456.0,-8192.0,-13632.0
5.815,-3456.0,-8192.0,-13568.0
5.8175,-3456.0,-8192.0,-13568.0
5.82,-3456.0,-8192.0,-13632.0
5.8225,-3456.0,-8192.0,-13632.0
5.825,-3456.0,-8064.0,-13568.0
5.8275,-3456.0,-8064.0,-13568.0
5.83,-3392.0,-8064.0,-13568.0
5.8325,-3392.0,-8000.0,-13568.0
5.835,-3456.0,-8000.0,-13504.0
5.8375,-3456.0,-8000.0,-13504.0
5.84,-3392.0,-8000.0,-13440.0
5.8425,-3392.0,-8000.0,-13440.0
5.845,-3328.0,-8000.0,-13440.0
5.8475,-3392.0,-7936.0,-13440.0
5.85,-3328.0,-7872.0,-13440.0
5.8525,-3264.0,-7936.0,-13440.0
5.855,-3264.0,-7872.0,-13504.0
5.8575,-3264.0,-7808.0,-13504.0
5.86,-3264.0,-7808.0,-13440.0
5.8625,-3264.0,-7808.0,-13504.0
5.865,-3264.0,-7744.0,-13440.0
5.8675,-3200.0,-7808.0,-13376.0
5.87,-3264.0,-7808.0,-13440.0
5.8725,-3264.0,-7808.0,-13440.0
5.875,-3264.0,-7808.0,-13376.0
5.8775,-3264.0,-7936.0,-13376.0
5.88,-3264.0,-7936.0,-13440.0
5.8825,-3264.0,-8000.0,-13440.0
5.885,-3264.0,-8000.0,-13504.0
5.8875,-3264.0,-8064.0,-13440.0
5.89,-3328.0,-8064.0,-13504.0
5.8925,-3392.0,-8064.0,-13568.0
5.895,-3328.0,-8064.0,-13504.0
5.8975,-3392.0,-8064.0,-13568.0
5.9,-3392.0,-8128.0,-13632.0
5.9025,-3392.0,-8064.0,-13632.0
5.905,-3456.0,-8128.0,-13696.0
5.9075,-3520.0,-8128.0,-13568.0
5.91,-3456.0,-8128.0,-13568.0
5.9125,-3520.0,-8128.0,-13568.0
5.915,-3456.0,-8128.0,-13568.0
5.9175,-3456.0,-8064.0,-13568.0
5.92,-3456.0,-8064.0,-13568.0
5.9225,-3392.0,-8064.0,-13632.0
5.925,-3392.0,-8128.0,-13632.0
5.9275,-3456.0,-8128.0,-13632.0
5.93,-3456.0,-8128.0,-13696.0
5.9325,-3584.0,-8064.0,-13696.0
5.935,-3520.0,-8064.0,-13632.0
5.9375,-3520.0,-8064.0,-13696.0
5.94,-3584.0,-8000.0,-13696.0
5.9425,-3520.0,-8000.0,-13632.0
5.945,-3456.0,-8000.0,-13632.0
5.9475,-3456.0,-8000.0,-13632.0
5.95,-3520.0,-8000.0,-13696.0
5.9525,-3584.0,-8064.0,-13760.0
5.955,-3584.0,-8000.0,-13696.0
5.9575,-3584.0,-7936.0,-13632.0
5.96,-3520.0,-7936.0,-13568.0
5.9625,-3520.0,-8000.0,-13632.0
5.965,-3456.0,-7936.0,-13568.0
5.9675,-3392.0,-8000.0,-13504.0
5.97,-3392.0,-8000.0,-13504.0
5.9725,-3328.0,-8000.0,-13440.0
5.975,-3328.0,-8000.0,-13376.0
5.9775,-3328.0,-8000.0,-13376.0
5.98,-3328.0,-7936.0,-13312.0
5.9825,-3264.0,-8000.0,-13248.0
5.985,-3328.0,-8064.0,-13312.0
5.9875,-3264.0,-8064.0,-13312.0
5.99,-3200.0,-8128.0,-13248.0
5.9925,-3264.0,-8128.0,-13376.0
5.995,-3200.0,-8128.0,-13312.0
5.9975,-3136.0,-8128.0,-13376.0
6.0,-3136.0,-8064.0,-13312.0
6.0025,-3136.0,-8128.0,-13248.0
6.005,-3136.0,-8064.0,-13248.0
6.0075,-3072.0,-8064.0,-13248.0
6.01,-3136.0,-8064.0,-13248.0
6.0125,-3072.0,-8064.0,-13184.0
6.015,-3008.0,-8064.0,-13184.0
6.0175,-3008.0,-8000.0,-13184.0
6.02,-3008.0,-8000.0,-13120.0
6.0225,-2944.0,-8000.0,-13120.0
6.025,-2944.0,-8000.0,-13056.0
6.0275,-3008.0,-7936.0,-13120.0
6.03,-2944.0,-7936.0,-13120.0
6.0325,-2880.0,-7936.0,-13120.0
6.035,-2880.0,-8000.0,-13056.0
6.0375,-2880.0,-7936.0,-13056.0
6.04,-2816.0,-8000.0,-13056.0
6.0425,-2816.0,-7936.0,-13056.0
6.045,-2816.0,-8000.0,-12992.0
6.0475,-2816.0,-7936.0,-12992.0
6.05,-2816.0,-8000.0,-13056.0
6.0525,-2816.0,-8000.0,-13056.0
6.055,-2816.0,-8000.0,-13120.0
6.0575,-2752.0,-8064.0,-13056.0
6.06,-2752.0,-8000.0,-13056.0
6.0625,-2816.0,-7936.0,-13056.0
6.065,-2752.0,-7872.0,-13056.0
6.0675,-2752.0,-7872.0,-13056.0
6.07,-2752.0,-7808.0,-13120.0
6.0725,-2752.0,-7872.0,-13056.0
6.075,-2816.0,-7808.0,-13056.0
6.0775,-2752.0,-7744.0,-13056.0
6.08,-2688.0,-7808.0,-13056.0
6.0825,-2688.0,-7744.0,-13056.0
6.085,-2688.0,-7808.0,-13056.0
6.0875,-2624.0,-7744.0,-13120.0
6.09,-2624.0,-7744.0,-13120.0
6.0925,-2688.0,-7808.0,-13184.0
6.095,-2688.0,-7808.0,-13184.0
6.0975,-2688.0,-7808.0,-13184.0
6.1,-2688.0,-7808.0,-13184.0
6.1025,-2752.0,-7872.0,-13184.0
6.105,-2752.0,-7872.0,-13184.0
6.1075,-2752.0,-7808.0,-13120.0
6.11,-2752.0,-7872.0,-12992.0
6.1125,-2752.0,-7808.0,-13120.0
6.115,-2752.0,-7744.0,-13056.0
6.1175,-2688.0,-7808.0,-13120.0
6.12,-2688.0,-7872.0,-13120.0
6.1225,-2752.0,-7872.0,-13248.0
6.125,-2752.0,-7872.0,-13248.0
6.1275,-2752.0,-7872.0,-13248.0
6.13,-2752.0,-7808.0,-13248.0
6.1325,-2688.0,-7808.0,-13312.0
6.135,-2752.0,-7808.0,-13248.0
6.1375,-2752.0,-7808.0,-13248.0
6.14,-2688.0,-7808.0,-13312.0
6.1425,-2688.0,-7744.0,-13312.0
6.145,-2688.0,-7680.0,-13312.0
6.1475,-2688.0,-7680.0,-13248.0
6.15,-2688.0,-7616.0,-13312.0
6.1525,-2688.0,-7616.0,-13312.0
6.155,-2688.0,-7616.0,-13312.0
6.1575,-2688.0,-7680.0,-13376.0
6.16,-2688.0,-7616.0,-13440.0
6.1625,-2688.0,-7552.0,-13440.0
6.165,-2688.0,-7616.0,-13440.0
6.1675,-2752.0,-7616.0,-13504.0
6.17,-2688.0,-7616.0,-13504.0
6.1725,-2688.0,-7680.0,-13568.0
6.175,-2752.0,-7680.0,-13568.0
6.1775,-2688.0,-7616.0,-13632.0
6.18,-2688.0,-7488.0,-13504.0
6.1825,-2752.0,-7552.0,-13568.0
6.185,-2688.0,-7488.0,-13440.0
6.1875,-2752.0,-7552.0,-13440.0
6.19,-2688.0,-7488.0,-13376.0
6.1925,-2688.0,-7488.0,-13312.0
6.195,-2688.0,-7424.0,-13248.0
6.1975,-2624.0,-7488.0,-13312.0
6.2,-2624.0,-7488.0,-13248.0
6.2025,-2624.0,-7424.0,-13184.0
6.205,-2624.0,-7360.0,-13248.0
6.2075,-2624.0,-7360.0,-13248.0
6.21,-2624.0,-7360.0,-13248.0
6.2125,-2560.0,-7360.0,-13184.0
6.215,-2624.0,-7360.0,-13184.0
6.2175,-2624.0,-7296.0,-13248.0
6.22,-2624.0,-7360.0,-13312.0
6.2225,-2624.0,-7360.0,-13312.0
6.225,-2688.0,-7424.0,-13312.0
6.2275,-2752.0,-7424.0,-13440.0
6.23,-2752.0,-7424.0,-13376.0
6.2325,-2752.0,-7424.0,-13440.0
6.235,-2816.0,-7488.0,-13376.0
6.2375,-2752.0,-7552.0,-13440.0
6.24,-2880.0,-7488.0,-13440.0
6.2425,-2816.0,-7488.0,-13440.0
6.245,-2880.0,-7488.0,-13376.0
6.2475,-2880.0,-7488.0,-13376.0
6.25,-2944.0,-7488.0,-13248.0
6.2525,-2944.0,-7552.0,-13248.0
6.255,-2944.0,-7552.0,-13184.0
6.2575,-2944.0,-7552.0,-13120.0
6.26,-2944.0,-7616.0,-13056.0
6.2625,-2880.0,-7552.0,-12992.0
6.265,-2880.0,-7488.0,-12992.0
6.2675,-2880.0,-7552.0,-12928.0
6.27,-2816.0,-7488.0,-12864.0
6.2725,-2752.0,-7488.0,-12736.0
6.275,-2752.0,-7552.0,-12736.0
6.2775,-2752.0,-7552.0,-12800.0
6.28,-2688.0,-7488.0,-12672.0
6.2825,-2624.0,-7488.0,-12672.0
6.285,-2560.0,-7552.0,-12736.0
6.2875,-2496.0,-7616.0,-12736.0
6.29,-2432.0,-7616.0,-12736.0
6.2925,-2432.0,-7616.0,-12800.0
6.295,-2368.0,-7616.0,-12800.0
6.2975,-2240.0,-7616.0,-12864.0
6.3,-2240.0,-7616.0,-12992.0
6.3025,-2176.0,-7744.0,-13056.0
6.305,-2176.0,-7808.0,-13120.0
6.3075,-2112.0,-7872.0,-13248.0
6.31,-2112.0,-7872.0,-13376.0
6.3125,-2112.0,-7936.0,-13440.0
6.315,-2112.0,-8000.0,-13568.0
6.3175,-2112.0,-8064.0,-13504.0
6.32,-2112.0,-8128.0,-13632.0
6.3225,-2176.0,-8128.0,-13696.0
6.325,-2240.0,-8192.0,-13632.0
6.3275,-2304.0,-8256.0,-13760.0
6.33,-2432.0,-8256.0,-13824.0
6.3325,-2432.0,-8384.0,-13760.0
6.335,-2496.0,-8384.0,-13696.0
6.3375,-2496.0,-8448.0,-13696.0
6.34,-2560.0,-8384.0,-13632.0
6.3425,-2624.0,-8384.0,-13632.0
6.345,-2624.0,-8384.0,-13568.0
6.3475,-2688.0,-8384.0,-13632.0
6.35,-2688.0,-8448.0,-13568.0
6.3525,-2688.0,-8448.0,-13568.0
6.355,-2752.0,-8448.0,-13504.0
6.3575,-2816.0,-8448.0,-13568.0
6.36,-2816.0,-8448.0,-13568.0
6.3625,-2816.0,-8448.0,-13568.0
6.365,-2816.0,-8384.0,-13632.0
6.3675,-2816.0,-8384.0,-13696.0
6.37,-2880.0,-8320.0,-13696.0
6.3725,-2880.0,-8320.0,-13696.0
6.375,-2880.0,-8320.0,-13760.0
6.3775,-2880.0,-8320.0,-13824.0
6.38,-2880.0,-8192.0,-13888.0
6.3825,-2880.0,-8192.0,-13952.0
6.385,-2816.0,-8192.0,-13888.0
6.3875,-2816.0,-8256.0,-13952.0
6.39,-2880.0,-8192.0,-14016.0
6.3925,-2880.0,-8192.0,-14016.0
6.395,-2816.0,-8256.0,-14016.0
6.3975,-2816.0,-8320.0,-13952.0
6.4,-2816.0,-8320.0,-13888.0
6.4025,-2816.0,-8320.0,-13888.0
6.405,-2816.0,-8384.0,-13824.0
6.4075,-2880.0,-8448.0,-13888.0
6.41,-2816.0,-8448.0,-13888.0
6.4125,-2816.0,-8448.0,-13824.0
6.415,-2880.0,-8576.0,-13824.0
6.4175,-2944.0,-8576.0,-13760.0
6.42,-2880.0,-8576.0,-13760.0
6.4225,-2880.0,-8576.0,-13824.0
6.425,-2944.0,-8640.0,-13824.0
6.4275,-2944.0,-8576.0,-13824.0
6.43,-3008.0,-8576.0,-13760.0
6.4325,-2944.0,-8512.0,-13696.0
6.435,-2944.0,-8576.0,-13760.0
6.4375,-2944.0,-8576.0,-13696.0
6.44,-2944.0,-8576.0,-13696.0
6.4425,-2880.0,-8448.0,-13632.0
6.445,-2880.0,-8384.0,-13632.0
6.4475,-2880.0,-8320.0,-13504.0
6.45,-2880.0,-8320.0,-13504.0
6.4525,-2752.0,-8320.0,-13504.0
6.455,-2752.0,-8384.0,-13504.0
6.4575,-2752.0,-8320.0,-13504.0
6.46,-2752.0,-8320.0,-13568.0
6.4625,-2752.0,-8320.0,-13568.0
6.465,-2560.0,-8256.0,-13568.0
6.4675,-2560.0,-8256.0,-13504.0
6.47,-2496.0,-8192.0,-13504.0
6.4725,-2560.0,-8256.0,-13440.0
6.475,-2496.0,-8192.0,-13376.0
6.4775,-2432.0,-8256.0,-13440.0
6.48,-2432.0,-8256.0,-13440.0
6.4825,-2432.0,-8256.0,-13376.0
6.485,-2432.0,-8192.0,-13376.0
6.4875,-2368.0,-8256.0,-13312.0
6.49,-2368.0,-8256.0,-13312.0
6.4925,-2304.0,-8256.0,-13248.0
6.495,-2304.0,-8320.0,-13184.0
6.4975,-2304.0,-8256.0,-13120.0
6.5,-2240.0,-8256.0,-13120.0
6.5025,-2240.0,-8320.0,-13056.0
6.505,-2240.0,-8320.0,-13056.0
6.5075,-2240.0,-8320.0,-12992.0
6.51,-2240.0,-8320.0,-12992.0
6.5125,-2240.0,-8256.0,-12992.0
6.515,-2176.0,-8320.0,-12992.0
6.5175,-2240.0,-8320.0,-12928.0
6.52,-2176.0,-8320.0,-12928.0
6.5225,-2176.0,-8320.0,-12992.0
6.525,-2240.0,-8256.0,-12992.0
6.5275,-2176.0,-8256.0,-12928.0
6.53,-2176.0,-8256.0,-12928.0
6.5325,-2176.0,-8256.0,-12928.0
6.535,-2176.0,-8320.0,-12992.0
6.5375,-2176.0,-8256.0,-12992.0
6.54,-2176.0,-8320.0,-13056.0
6.5425,-2176.0,-8320.0,-13056.0
6.545,-2240.0,-8256.0,-13120.0
6.5475,-2240.0,-8256.0,-13184.0
6.55,-2240.0,-8256.0,-13248.0
6.5525,-2240.0,-8192.0,-13184.0
6.555,-2304.0,-8256.0,-13248.0
6.5575,-2304.0,-8256.0,-13248.0
6.56,-2304.0,-8256.0,-13184.0
6.5625,-2304.0,-8256.0,-13184.0
6.565,-2304.0,-8256.0,-13248.0
6.5675,-2304.0,-8192.0,-13120.0
6.57,-2240.0,-8192.0,-13184.0
6.5725,-2304.0,-8256.0,-13120.0
6.575,-2240.0,-8256.0,-13184.0
6.5775,-2240.0,-8192.0,-13056.0
6.58,-2240.0,-8256.0,-13056.0
6.5825,-2304.0,-8256.0,-13056.0
6.585,-2304.0,-8256.0,-13056.0
6.5875,-2304.0,-8192.0,-13056.0
6.59,-2304.0,-8192.0,-13056.0
6.5925,-2304.0,-8192.0,-12928.0
6.595,-2368.0,-8192.0,-12928.0
6.5975,-2304.0,-8192.0,-12928.0
6.6,-2368.0,-8128.0,-12992.0
6.6025,-2304.0,-8192.0,-12928.0
6.605,-2368.0,-8064.0,-12992.0
6.6075,-2368.0,-8000.0,-12992.0
6.61,-2368.0,-8000.0,-12928.0
6.6125,-2304.0,-8000.0,-13056.0
6.615,-2368.0,-8000.0,-13056.0
6.6175,-2368.0,-8000.0,-13120.0
6.62,-2432.0,-8000.0,-13184.0
6.6225,-2368.0,-8000.0,-13248.0
6.625,-2432.0,-8064.0,-13312.0
6.6275,-2368.0,-8064.0,-13312.0
6.63,-2432.0,-8128.0,-13312.0
6.6325,-2432.0,-8064.0,-13376.0
6.635,-2368.0,-8128.0,-13440.0
6.6375,-2496.0,-8128.0,-13440.0
6.64,-2432.0,-8192.0,-13504.0
6.6425,-2368.0,-8256.0,-13440.0
6.645,-2368.0,-8256.0,-13568.0
6.6475,-2432.0,-8256.0,-13568.0
6.65,-2432.0,-8256.0,-13568.0
6.6525,-2432.0,-8256.0,-13568.0
6.655,-2496.0,-8256.0,-13632.0
6.6575,-2560.0,-8256.0,-13568.0
6.66,-2560.0,-8256.0,-13568.0
6.6625,-2560.0,-8256.0,-13632.0
6.665,-2624.0,-8192.0,-13568.0
6.6675,-2560.0,-8256.0,-13696.0
6.67,-2560.0,-8256.0,-13696.0
6.6725,-2624.0,-8192.0,-13760.0
6.675,-2624.0,-8192.0,-13760.0
6.6775,-2688.0,-8128.0,-13824.0
6.68,-2688.0,-8192.0,-13824.0
6.6825,-2752.0,-8192.0,-13824.0
6.685,-2816.0,-8128.0,-13888.0
6.6875,-2752.0,-8128.0,-13824.0
6.69,-2816.0,-8192.0,-13824.0
6.6925,-2816.0,-8192.0,-13952.0
6.695,-2880.0,-8192.0,-13888.0
6.6975,-2880.0,-8128.0,-13888.0
6.7,-2944.0,-8128.0,-13888.0
6.7025,-2944.0,-8128.0,-13824.0
6.705,-3008.0,-8128.0,-13824.0
6.7075,-3008.0,-8128.0,-13888.0
6.71,-3072.0,-8128.0,-13824.0
6.7125,-3072.0,-8192.0,-13824.0
6.715,-3136.0,-8192.0,-13824.0
6.7175,-3136.0,-8192.0,-13760.0
6.72,-3200.0,-8192.0,-13760.0
6.7225,-3136.0,-8256.0,-13760.0
6.725,-3136.0,-8256.0,-13760.0
6.7275,-3072.0,-8192.0,-13632.0
6.73,-3008.0,-8192.0,-13632.0
6.7325,-3008.0,-8192.0,-13568.0
6.735,-2944.0,-8192.0,-13504.0
6.7375,-2944.0,-8192.0,-13440.0
6.74,-2880.0,-8128.0,-13376.0
6.7425,-2880.0,-8128.0,-13312.0
6.745,-2880.0,-8128.0,-13312.0
6.7475,-2880.0,-8064.0,-13248.0
6.75,-2752.0,-8064.0,-13312.0
6.7525,-2688.0,-8064.0,-13248.0
6.755,-2624.0,-8064.0,-13184.0
6.7575,-2560.0,-8000.0,-13184.0
6.76,-2624.0,-8000.0,-13248.0
6.7625,-2560.0,-8064.0,-13248.0
6.765,-2496.0,-8064.0,-13312.0
6.7675,-2496.0,-8064.0,-13376.0
6.77,-2432.0,-8064.0,-13312.0
6.7725,-2432.0,-8064.0,-13376.0
6.775,-2432.0,-8064.0,-13440.0
6.7775,-2432.0,-8064.0,-13376.0
6.78,-2432.0,-8128.0,-13312.0
6.7825,-2432.0,-8128.0,-13376.0
6.785,-2432.0,-8128.0,-13376.0
6.7875,-2432.0,-8128.0,-13440.0
6.79,-2496.0,-8128.0,-13312.0
6.7925,-2496.0,-8064.0,-13248.0
6.795,-2496.0,-8064.0,-13376.0
6.7975,-2496.0,-8064.0,-13312.0
6.8,-2496.0,-8000.0,-13248.0
6.8025,-2560.0,-8000.0,-13184.0
6.805,-2560.0,-8000.0,-13184.0
6.8075,-2560.0,-8000.0,-13184.0
6.81,-2560.0,-7936.0,-13184.0
6.8125,-2560.0,-7936.0,-13248.0
6.815,-2560.0,-8000.0,-13312.0
6.8175,-2560.0,-8000.0,-13312.0
6.82,-2560.0,-8000.0,-13312.0
6.8225,-2560.0,-8000.0,-13376.0
6.825,-2560.0,-8128.0,-13312.0
6.8275,-2560.0,-8064.0,-13376.0
6.83,-2560.0,-8064.0,-13312.0
6.8325,-2560.0,-8064.0,-13376.0
6.835,-2560.0,-8000.0,-13376.0
6.8375,-2560.0,-8064.0,-13376.0
6.84,-2496.0,-8064.0,-13376.0
6.8425,-2560.0,-8128.0,-13504.0
6.845,-2624.0,-8128.0,-13440.0
6.8475,-2560.0,-8064.0,-13568.0
6.85,-2560.0,-8128.0,-13632.0
6.8525,-2560.0,-8128.0,-13568.0
6.855,-2560.0,-8192.0,-13632.0
6.8575,-2624.0,-8192.0,-13696.0
6.86,-2624.0,-8192.0,-13632.0
6.8625,-2624.0,-8192.0,-13632.0
6.865,-2624.0,-8128.0,-13696.0
6.8675,-2688.0,-8128.0,-13632.0
6.87,-2688.0,-8192.0,-13632.0
6.8725,-2688.0,-8128.0,-13568.0
6.875,-2752.0,-8128.0,-13440.0
6.8775,-2752.0,-8128.0,-13504.0
6.88,-2752.0,-8064.0,-13504.0
6.8825,-2752.0,-8064.0,-13440.0
6.885,-2752.0,-8000.0,-13376.0
6.8875,-2816.0,-8000.0,-13376.0
6.89,-2752.0,-8000.0,-13376.0
6.8925,-2752.0,-7936.0,-13376.0
6.895,-2816.0,-7936.0,-13312.0
6.8975,-2816.0,-7936.0,-13440.0
6.9,-2816.0,-7872.0,-13440.0
6.9025,-2816.0,-7872.0,-13440.0
6.905,-2816.0,-7872.0,-13440.0
6.9075,-2816.0,-7872.0,-13440.0
6.91,-2752.0,-7936.0,-13440.0
6.9125,-2752.0,-7936.0,-13376.0
6.915,-2752.0,-7936.0,-13312.0
6.9175,-2752.0,-8000.0,-13376.0
6.92,-2752.0,-7936.0,-13376.0
6.9225,-2688.0,-7936.0,-13376.0
6.925,-2688.0,-7936.0,-13312.0
6.9275,-2624.0,-7936.0,-13248.0
6.93,-2688.0,-7936.0,-13312.0
6.9325,-2624.0,-7872.0,-13248.0
6.935,-2560.0,-7872.0,-13248.0
6.9375,-2496.0,-7872.0,-13184.0
6.94,-2560.0,-7872.0,-13248.0
6.9425,-2560.0,-7936.0,-13248.0
6.945,-2496.0,-7808.0,-13312.0
6.9475,-2432.0,-7808.0,-13312.0
6.95,-2432.0,-7872.0,-13312.0
6.9525,-2368.0,-7808.0,-13248.0
6.955,-2368.0,-7808.0,-13312.0
6.9575,-2432.0,-7744.0,-13312.0
6.96,-2432.0,-7808.0,-13376.0
6.9625,-2432.0,-7808.0,-13312.0
6.965,-2368.0,-7744.0,-13376.0
6.9675,-2432.0,-7680.0,-13440.0
6.97,-2432.0,-7680.0,-13376.0
6.9725,-2432.0,-7680.0,-13440.0
6.975,-2432.0,-7616.0,-13504.0
6.9775,-2432.0,-7616.0,-13440.0
6.98,-2432.0,-7616.0,-13504.0
6.9825,-2368.0,-7616.0,-13440.0
6.985,-2432.0,-7680.0,-13504.0
6.9875,-2432.0,-7616.0,-13504.0
6.99,-2432.0,-7616.0,-13568.0
6.9925,-2368.0,-7680.0,-13504.0
6.995,-2368.0,-7680.0,-13568.0
6.9975,-2432.0,-7680.0,-13504.0
7.0,-2496.0,-7744.0,-13696.0
7.0025,-2560.0,-7680.0,-13696.0
7.005,-2560.0,-7744.0,-13760.0
7.0075,-2496.0,-7744.0,-13760.0
7.01,-2560.0,-7808.0,-13824.0
7.0125,-2560.0,-7808.0,-13824.0
7.015,-2560.0,-7808.0,-13824.0
7.0175,-2560.0,-7872.0,-13888.0
7.02,-2624.0,-7808.0,-13888.0
7.0225,-2624.0,-7808.0,-13952.0
7.025,-2624.0,-7808.0,-14016.0
7.0275,-2624.0,-7808.0,-14080.0
7.03,-2688.0,-7808.0,-14144.0
7.0325,-2688.0,-7808.0,-14080.0
7.035,-2624.0,-7744.0,-14144.0
7.0375,-2624.0,-7680.0,-14080.0
7.04,-2688.0,-7680.0,-14080.0
7.0425,-2624.0,-7744.0,-14208.0
7.045,-2688.0,-7680.0,-14144.0
7.0475,-2688.0,-7744.0,-14144.0
7.05,-2752.0,-7680.0,-14144.0
7.0525,-2688.0,-7616.0,-14208.0
7.055,-2752.0,-7616.0,-14208.0
7.0575,-2752.0,-7616.0,-14208.0
7.06,-2752.0,-7616.0,-14272.0
7.0625,-2688.0,-7616.0,-14208.0
7.065,-2752.0,-7680.0,-14272.0
7.0675,-2688.0,-7744.0,-14272.0
7.07,-2752.0,-7680.0,-14336.0
7.0725,-2816.0,-7680.0,-14336.0
7.075,-2880.0,-7744.0,-14400.0
7.0775,-2880.0,-7744.0,-14400.0
7.08,-2816.0,-7744.0,-14464.0
7.0825,-2944.0,-7744.0,-14400.0
7.085,-2944.0,-7744.0,-14400.0
7.0875,-3008.0,-7808.0,-14464.0
7.09,-3072.0,-7744.0,-14464.0
7.0925,-3136.0,-7808.0,-14400.0
7.095,-3136.0,-7744.0,-14336.0
7.0975,-3136.0,-7808.0,-14272.0
7.1,-3136.0,-7808.0,-14272.0
7.1025,-3200.0,-7808.0,-14272.0
7.105,-3200.0,-7872.0,-14208.0
7.1075,-3136.0,-7872.0,-14272.0
7.11,-3200.0,-7872.0,-14144.0
7.1125,-3200.0,-7936.0,-14016.0
7.115,-3200.0,-7936.0,-13952.0
7.1175,-3136.0,-7872.0,-13952.0
7.12,-3200.0,-7872.0,-13952.0
7.1225,-3136.0,-7872.0,-13824.0
7.125,-3136.0,-7808.0,-13824.0
7.1275,-3136.0,-7808.0,-13824.0
7.13,-3136.0,-7808.0,-13824.0
7.1325,-3072.0,-7808.0,-13824.0
7.135,-3072.0,-7808.0,-13824.0
7.1375,-2944.0,-7808.0,-13696.0
7.14,-2944.0,-7808.0,-13632.0
7.1425,-2880.0,-7808.0,-13568.0
7.145,-2816.0,-7808.0,-13504.0
7.1475,-2688.0,-7744.0,-13440.0
7.15,-2624.0,-7744.0,-13376.0
7.1525,-2560.0,-7680.0,-13440.0
7.155,-2560.0,-7680.0,-13312.0
7.1575,-2496.0,-7616.0,-13312.0
7.16,-2496.0,-7616.0,-13248.0
7.1625,-2432.0,-7552.0,-13248.0
7.165,-2368.0,-7488.0,-13120.0
7.1675,-2368.0,-7488.0,-13184.0
7.17,-2368.0,-7488.0,-13120.0
7.1725,-2304.0,-7424.0,-13056.0
7.175,-2304.0,-7424.0,-12992.0
7.1775,-2240.0,-7424.0,-12928.0
7.18,-2176.0,-7424.0,-12864.0
7.1825,-2176.0,-7424.0,-12864.0
7.185,-2112.0,-7424.0,-12864.0
7.1875,-2048.0,-7488.0,-12800.0
7.19,-2112.0,-7424.0,-12736.0
7.1925,-2048.0,-7488.0,-12672.0
7.195,-2112.0,-7488.0,-12672.0
7.1975,-2112.0,-7424.0,-12608.0
7.2,-2176.0,-7488.0,-12608.0
7.2025,-2112.0,-7552.0,-12672.0
7.205,-2048.0,-7552.0,-12672.0
7.2075,-2048.0,-7488.0,-12608.0
7.21,-2048.0,-7488.0,-12608.0
7.2125,-1984.0,-7488.0,-12608.0
7.215,-1984.0,-7488.0,-12544.0
7.2175,-1984.0,-7424.0,-12480.0
7.22,-1984.0,-7424.0,-12544.0
7.2225,-1984.0,-7424.0,-12544.0
7.225,-1984.0,-7424.0,-12480.0
7.2275,-1984.0,-7360.0,-12544.0
7.23,-2048.0,-7296.0,-12480.0
7.2325,-1984.0,-7296.0,-12480.0
7.235,-2048.0,-7360.0,-12416.0
7.2375,-2048.0,-7360.0,-12480.0
7.24,-2048.0,-7296.0,-12416.0
7.2425,-2048.0,-7232.0,-12416.0
7.245,-2112.0,-7232.0,-12416.0
7.2475,-2112.0,-7360.0,-12416.0
7.25,-2112.0,-7360.0,-12416.0
7.2525,-2112.0,-7424.0,-12544.0
7.255,-2240.0,-7360.0,-12608.0
7.2575,-2176.0,-7360.0,-12672.0
7.26,-2240.0,-7424.0,-12736.0
7.2625,-2304.0,-7360.0,-12800.0
7.265,-2432.0,-7296.0,-12928.0
7.2675,-2496.0,-7296.0,-13056.0
7.27,-2560.0,-7296.0,-13056.0
7.2725,-2624.0,-7296.0,-13312.0
7.275,-2688.0,-7296.0,-13248.0
7.2775,-2752.0,-7232.0,-13376.0
7.28,-2816.0,-7232.0,-13440.0
7.2825,-2816.0,-7232.0,-13504.0
7.285,-2880.0,-7232.0,-13568.0
7.2875,-2944.0,-7296.0,-13632.0
7.29,-2944.0,-7296.0,-13632.0
7.2925,-3008.0,-7360.0,-13696.0
7.295,-3072.0,-7360.0,-13696.0
7.2975,-3072.0,-7424.0,-13696.0
7.3,-3072.0,-7424.0,-13696.0
7.3025,-3136.0,-7552.0,-13760.0
7.305,-3072.0,-7552.0,-13696.0
7.3075,-3136.0,-7616.0,-13824.0
7.31,-3200.0,-7744.0,-13824.0
7.3125,-3200.0,-7872.0,-13888.0
7.315,-3264.0,-8064.0,-14016.0
7.3175,-3328.0,-8192.0,-14144.0
7.32,-3328.0,-8320.0,-14336.0
7.3225,-3392.0,-8448.0,-14528.0
7.325,-3456.0,-8512.0,-14656.0
7.3275,-3456.0,-8512.0,-14720.0
7.33,-3456.0,-8512.0,-14784.0
7.3325,-3456.0,-8512.0,-14784.0
7.335,-3456.0,-8512.0,-14848.0
7.3375,-3328.0,-8448.0,-14720.0
7.34,-3328.0,-8384.0,-14720.0
7.3425,-3200.0,-8384.0,-14720.0
7.345,-3200.0,-8192.0,-14656.0
7.3475,-3136.0,-8128.0,-14656.0
7.35,-3136.0,-8064.0,-14592.0
7.3525,-3008.0,-8000.0,-14592.0
7.355,-3072.0,-8000.0,-14656.0
7.3575,-3008.0,-7872.0,-14656.0
7.36,-3008.0,-7744.0,-14592.0
7.3625,-2944.0,-7680.0,-14464.0
7.365,-2880.0,-7552.0,-14400.0
7.3675,-2752.0,-7552.0,-14464.0
7.37,-2752.0,-7488.0,-14464.0
7.3725,-2688.0,-7424.0,-14400.0
7.375,-2624.0,-7424.0,-14336.0
7.3775,-2688.0,-7360.0,-14272.0
7.38,-2624.0,-7360.0,-14336.0
7.3825,-2560.0,-7232.0,-14400.0
7.385,-2624.0,-7232.0,-14336.0
7.3875,-2624.0,-7296.0,-14400.0
7.39,-2688.0,-7296.0,-14336.0
7.3925,-2688.0,-7296.0,-14336.0
7.395,-2624.0,-7360.0,-14400.0
7.3975,-2624.0,-7424.0,-14336.0
7.4,-2688.0,-7488.0,-14400.0
7.4025,-2688.0,-7552.0,-14400.0
7.405,-2688.0,-7680.0,-14400.0
7.4075,-2752.0,-7680.0,-14464.0
7.41,-2816.0,-7808.0,-14464.0
7.4125,-2816.0,-7808.0,-14400.0
7.415,-2816.0,-7936.0,-14400.0
7.4175,-2880.0,-8000.0,-14336.0
7.42,-2816.0,-8000.0,-14336.0
7.4225,-2816.0,-8128.0,-14336.0
7.425,-2816.0,-8192.0,-14208.0
7.4275,-2816.0,-8192.0,-14272.0
7.43,-2880.0,-8256.0,-14272.0
7.4325,-2816.0,-8256.0,-14272.0
7.435,-2880.0,-8256.0,-14272.0
7.4375,-2816.0,-8256.0,-14336.0
7.44,-2816.0,-8192.0,-14336.0
7.4425,-2816.0,-8192.0,-14272.0
7.445,-2752.0,-8128.0,-14144.0
7.4475,-2816.0,-8128.0,-14144.0
7.45,-2752.0,-8128.0,-14080.0
7.4525,-2688.0,-8064.0,-14016.0
7.455,-2688.0,-8000.0,-13952.0
7.4575,-2688.0,-7936.0,-13888.0
7.46,-2688.0,-7872.0,-13824.0
7.4625,-2688.0,-7936.0,-13632.0
7.465,-2624.0,-7936.0,-13696.0
7.4675,-2560.0,-7872.0,-13632.0
7.47,-2496.0,-7744.0,-13632.0
7.4725,-2496.0,-7744.0,-13632.0
7.475,-2496.0,-7744.0,-13696.0
7.4775,-2560.0,-7744.0,-13696.0
7.48,-2560.0,-7744.0,-13696.0
7.4825,-2560.0,-7744.0,-13632.0
7.485,-2560.0,-7680.0,-13632.0
7.4875,-2560.0,-7680.0,-13632.0
7.49,-2496.0,-7680.0,-13632.0
7.4925,-2432.0,-7680.0,-13632.0
7.495,-2432.0,-7616.0,-13632.0
7.4975,-2496.0,-7680.0,-13632.0
7.5,-2496.0,-7680.0,-13696.0
7.5025,-2560.0,-7744.0,-13696.0
7.505,-2624.0,-7872.0,-13824.0
7.5075,-2688.0,-7872.0,-13824.0
7.51,-2688.0,-7872.0,-13760.0
7.5125,-2752.0,-7872.0,-13760.0
7.515,-2816.0,-7936.0,-13760.0
7.5175,-2880.0,-7936.0,-13824.0
7.52,-2880.0,-8000.0,-13824.0
7.5225,-2880.0,-8000.0,-13760.0
7.525,-2880.0,-8064.0,-13824.0
7.5275,-2880.0,-8128.0,-13824.0
7.53,-2880.0,-8128.0,-13760.0
7.5325,-3008.0,-8128.0,-13760.0
7.535,-3008.0,-8192.0,-13824.0
7.5375,-3008.0,-8128.0,-13824.0
7.54,-3072.0,-8192.0,-13888.0
7.5425,-3136.0,-8192.0,-13888.0
7.545,-3136.0,-8192.0,-13888.0
7.5475,-3200.0,-8192.0,-14016.0
7.55,-3264.0,-8192.0,-13952.0
7.5525,-3264.0,-8128.0,-13952.0
7.555,-3328.0,-8064.0,-13952.0
7.5575,-3328.0,-8000.0,-14016.0
7.56,-3328.0,-8064.0,-14016.0
7.5625,-3328.0,-8000.0,-14016.0
7.565,-3328.0,-7872.0,-14016.0
7.5675,-3392.0,-7872.0,-13952.0
7.57,-3456.0,-7872.0,-14016.0
7.5725,-3392.0,-7808.0,-13952.0
7.575,-3392.0,-7744.0,-13952.0
7.5775,-3328.0,-7808.0,-14016.0
7.58,-3392.0,-7808.0,-13952.0
7.5825,-3392.0,-7744.0,-13952.0
7.585,-3456.0,-7680.0,-14016.0
7.5875,-3456.0,-7744.0,-14016.0
7.59,-3392.0,-7616.0,-14016.0
7.5925,-3328.0,-7616.0,-13952.0
7.595,-3328.0,-7552.0,-14016.0
7.5975,-3392.0,-7552.0,-13952.0
7.6,-3392.0,-7488.0,-13888.0
7.6025,-3392.0,-7552.0,-13824.0
7.605,-3328.0,-7552.0,-13824.0
7.6075,-3392.0,-7616.0,-13824.0
7.61,-3456.0,-7616.0,-13824.0
7.6125,-3392.0,-7680.0,-13888.0
7.615,-3392.0,-7616.0,-13888.0
7.6175,-3392.0,-7680.0,-13760.0
7.62,-3392.0,-7680.0,-13824.0
7.6225,-3392.0,-7744.0,-13760.0
7.625,-3392.0,-7744.0,-13632.0
7.6275,-3328.0,-7808.0,-13568.0
7.63,-3328.0,-7808.0,-13568.0
7.6325,-3264.0,-7808.0,-13504.0
7.635,-3328.0,-7808.0,-13376.0
7.6375,-3264.0,-7744.0,-13504.0
7.64,-3200.0,-7744.0,-13440.0
7.6425,-3200.0,-7808.0,-13440.0
7.645,-3200.0,-7744.0,-13312.0
7.6475,-3200.0,-7808.0,-13312.0
7.65,-3200.0,-7744.0,-13248.0
7.6525,-3136.0,-7680.0,-13248.0
7.655,-3136.0,-7680.0,-13184.0
7.6575,-3136.0,-7680.0,-13248.0
7.66,-3072.0,-7616.0,-13184.0
7.6625,-3072.0,-7616.0,-13120.0
7.665,-3008.0,-7552.0,-13120.0
7.6675,-3072.0,-7488.0,-13056.0
7.67,-3008.0,-7424.0,-13120.0
7.6725,-2944.0,-7424.0,-13120.0
7.675,-2880.0,-7424.0,-13056.0
7.6775,-2944.0,-7360.0,-13056.0
7.68,-2944.0,-7296.0,-13056.0
7.6825,-2880.0,-7296.0,-12992.0
7.685,-2880.0,-7360.0,-13056.0
7.6875,-2880.0,-7360.0,-13056.0
7.69,-2880.0,-7296.0,-12992.0
7.6925,-2880.0,-7232.0,-12992.0
7.695,-2752.0,-7232.0,-12928.0
7.6975,-2752.0,-7296.0,-12928.0
7.7,-2752.0,-7296.0,-12928.0
7.7025,-2816.0,-7296.0,-12928.0
7.705,-2752.0,-7296.0,-12992.0
7.7075,-2752.0,-7232.0,-12992.0
7.71,-2816.0,-7296.0,-12992.0
7.7125,-2816.0,-7296.0,-12992.0
7.715,-2816.0,-7296.0,-12928.0
7.7175,-2816.0,-7296.0,-12992.0
7.72,-2752.0,-7360.0,-12928.0
7.7225,-2752.0,-7296.0,-12928.0
7.725,-2752.0,-7424.0,-12928.0
7.7275,-2752.0,-7424.0,-12928.0
7.73,-2752.0,-7424.0,-12928.0
7.7325,-2816.0,-7424.0,-12992.0
7.735,-2816.0,-7488.0,-12992.0
7.7375,-2816.0,-7488.0,-12992.0
7.74,-2816.0,-7488.0,-13120.0
7.7425,-2880.0,-7488.0,-13120.0
7.745,-2880.0,-7552.0,-13120.0
7.7475,-2816.0,-7552.0,-13120.0
7.75,-2816.0,-7552.0,-13120.0
7.7525,-2816.0,-7552.0,-13184.0
7.755,-2816.0,-7616.0,-13184.0
7.7575,-2816.0,-7616.0,-13184.0
7.76,-2752.0,-7616.0,-13184.0
7.7625,-2688.0,-7616.0,-13184.0
7.765,-2688.0,-7616.0,-13312.0
7.7675,-2752.0,-7680.0,-13312.0
7.77,-2752.0,-7616.0,-13376.0
7.7725,-2688.0,-7616.0,-13312.0
7.775,-2688.0,-7552.0,-13376.0
7.7775,-2688.0,-7616.0,-13376.0
7.78,-2688.0,-7616.0,-13376.0
7.7825,-2688.0,-7552.0,-13376.0
7.785,-2560.0,-7552.0,-13312.0
7.7875,-2624.0,-7552.0,-13376.0
7.79,-2624.0,-7616.0,-13376.0
7.7925,-2560.0,-7616.0,-13312.0
7.795,-2560.0,-7616.0,-13376.0
7.7975,-2560.0,-7616.0,-13376.0
7.8,-2624.0,-7744.0,-13376.0
7.8025,-2688.0,-7744.0,-13440.0
7.805,-2624.0,-7744.0,-13440.0
7.8075,-2560.0,-7744.0,-13440.0
7.81,-2624.0,-7744.0,-13504.0
7.8125,-2624.0,-7872.0,-13568.0
7.815,-2560.0,-7872.0,-13504.0
7.8175,-2496.0,-7872.0,-13504.0
7.82,-2560.0,-7872.0,-13568.0
7.8225,-2560.0,-7872.0,-13568.0
7.825,-2624.0,-7872.0,-13632.0
7.8275,-2560.0,-7936.0,-13632.0
7.83,-2624.0,-8000.0,-13760.0
7.8325,-2688.0,-8064.0,-13696.0
7.835,-2624.0,-8064.0,-13760.0
7.8375,-2624.0,-8064.0,-13824.0
7.84,-2624.0,-8128.0,-13760.0
7.8425,-2688.0,-8128.0,-13696.0
7.845,-2688.0,-8128.0,-13760.0
7.8475,-2624.0,-8128.0,-13696.0
7.85,-2560.0,-8128.0,-13696.0
7.8525,-2560.0,-8128.0,-13696.0
7.855,-2560.0,-8128.0,-13760.0
7.8575,-2560.0,-8064.0,-13824.0
7.86,-2496.0,-8128.0,-13824.0
7.8625,-2496.0,-8128.0,-13824.0
7.865,-2496.0,-8128.0,-13824.0
7.8675,-2560.0,-8064.0,-13888.0
7.87,-2560.0,-8064.0,-13824.0
7.8725,-2560.0,-8064.0,-13824.0
7.875,-2560.0,-8128.0,-13824.0
7.8775,-2624.0,-8128.0,-13824.0
7.88,-2560.0,-8128.0,-13824.0
7.8825,-2560.0,-8128.0,-13824.0
7.885,-2560.0,-8128.0,-13760.0
7.8875,-2496.0,-8064.0,-13824.0
7.89,-2496.0,-8192.0,-13824.0
7.8925,-2432.0,-8128.0,-13760.0
7.895,-2432.0,-8064.0,-13824.0
7.8975,-2496.0,-8064.0,-13824.0
7.9,-2496.0,-8064.0,-13824.0
7.9025,-2560.0,-8064.0,-13824.0
7.905,-2496.0,-8000.0,-13824.0
7.9075,-2496.0,-8064.0,-13952.0
7.91,-2560.0,-8064.0,-13888.0
7.9125,-2560.0,-8064.0,-13824.0
7.915,-2560.0,-8064.0,-13824.0
7.9175,-2560.0,-8064.0,-13824.0
7.92,-2560.0,-8064.0,-13760.0
7.9225,-2560.0,-8064.0,-13824.0
7.925,-2560.0,-8064.0,-13696.0
7.9275,-2560.0,-8000.0,-13760.0
7.93,-2560.0,-8000.0,-13760.0
7.9325,-2560.0,-8064.0,-13760.0
7.935,-2624.0,-8000.0,-13824.0
7.9375,-2624.0,-7936.0,-13824.0
7.94,-2624.0,-8000.0,-13824.0
7.9425,-2624.0,-8000.0,-13824.0
7.945,-2624.0,-8000.0,-13760.0
7.9475,-2624.0,-7936.0,-13760.0
7.95,-2624.0,-7936.0,-13760.0
7.9525,-2624.0,-7936.0,-13760.0
7.955,-2624.0,-7936.0,-13760.0
7.9575,-2624.0,-7936.0,-13824.0
7.96,-2688.0,-8000.0,-13824.0
7.9625,-2624.0,-7872.0,-13824.0
7.965,-2624.0,-7872.0,-13824.0
7.9675,-2752.0,-7872.0,-13760.0
7.97,-2752.0,-7808.0,-13824.0
7.9725,-2688.0,-7744.0,-13760.0
7.975,-2688.0,-7744.0,-13760.0
7.9775,-2752.0,-7680.0,-13696.0
7.98,-2752.0,-7680.0,-13760.0
7.9825,-2752.0,-7680.0,-13760.0
7.985,-2688.0,-7680.0,-13760.0
7.9875,-2752.0,-7744.0,-13696.0
7.99,-2752.0,-7744.0,-13824.0
7.9925,-2752.0,-7808.0,-13888.0
7.995,-2816.0,-7808.0,-13952.0
7.9975,-2880.0,-7808.0,-13952.0
8.0,-2944.0,-7872.0,-14080.0
8.0025,-3008.0,-7872.0,-14144.0
8.005,-3008.0,-7872.0,-14208.0
8.0075,-3008.0,-7872.0,-14144.0
8.01,-3008.0,-7872.0,-14208.0
8.0125,-3072.0,-7872.0,-14144.0
8.015,-3072.0,-7808.0,-14144.0
8.0175,-3136.0,-7808.0,-14208.0
8.02,-3200.0,-7872.0,-14208.0
8.0225,-3264.0,-7872.0,-14144.0
8.025,-3264.0,-7936.0,-14144.0
8.0275,-3264.0,-7936.0,-14208.0
8.03,-3264.0,-8000.0,-14208.0
8.0325,-3264.0,-8064.0,-14208.0
8.035,-3328.0,-8000.0,-14272.0
8.0375,-3264.0,-8064.0,-14208.0
8.04,-3264.0,-8000.0,-14144.0
8.0425,-3264.0,-8000.0,-14144.0
8.045,-3264.0,-8000.0,-14144.0
8.0475,-3264.0,-8000.0,-14208.0
8.05,-3264.0,-7872.0,-14208.0
8.0525,-3264.0,-7872.0,-14208.0
8.055,-3264.0,-7872.0,-14208.0
8.0575,-3264.0,-7744.0,-14208.0
8.06,-3200.0,-7744.0,-14144.0
8.0625,-3136.0,-7680.0,-14144.0
8.065,-3008.0,-7680.0,-14016.0
8.0675,-2944.0,-7680.0,-13952.0
8.07,-2880.0,-7680.0,-13952.0
8.0725,-2880.0,-7744.0,-13888.0
8.075,-2880.0,-7680.0,-13888.0
8.0775,-2880.0,-7680.0,-13824.0
8.08,-2880.0,-7744.0,-13760.0
8.0825,-2880.0,-7680.0,-13824.0
8.085,-2880.0,-7616.0,-13760.0
8.0875,-2880.0,-7680.0,-13760.0
8.09,-2880.0,-7680.0,-13696.0
8.0925,-2816.0,-7680.0,-13632.0
8.095,-2816.0,-7680.0,-13632.0
8.0975,-2816.0,-7680.0,-13696.0
8.1,-2816.0,-7680.0,-13568.0
8.1025,-2816.0,-7680.0,-13632.0
8.105,-2880.0,-7680.0,-13632.0
8.1075,-2880.0,-7680.0,-13632.0
8.11,-2880.0,-7808.0,-13632.0
8.1125,-2880.0,-7808.0,-13504.0
8.115,-2880.0,-7808.0,-13504.0
8.1175,-2816.0,-7744.0,-13440.0
8.12,-2816.0,-7808.0,-13376.0
8.1225,-2816.0,-7808.0,-13376.0
8.125,-2816.0,-7872.0,-13376.0
8.1275,-2816.0,-7808.0,-13376.0
8.13,-2816.0,-7808.0,-13312.0
8.1325,-2688.0,-7808.0,-13312.0
8.135,-2752.0,-7808.0,-13248.0
8.1375,-2752.0,-7808.0,-13248.0
8.14,-2752.0,-7744.0,-13312.0
8.1425,-2752.0,-7808.0,-13312.0
8.145,-2752.0,-7808.0,-13312.0
8.1475,-2752.0,-7872.0,-13248.0
8.15,-2816.0,-7872.0,-13312.0
8.1525,-2816.0,-7936.0,-13376.0
8.155,-2880.0,-8000.0,-13312.0
8.1575,-2816.0,-8000.0,-13312.0
8.16,-2880.0,-7936.0,-13312.0
8.1625,-2944.0,-7872.0,-13440.0
8.165,-2880.0,-7936.0,-13376.0
8.1675,-2880.0,-7936.0,-13376.0
8.17,-2816.0,-8000.0,-13376.0
8.1725,-2752.0,-8000.0,-13376.0
8.175,-2752.0,-7936.0,-13312.0
8.1775,-2880.0,-7936.0,-13248.0
8.18,-2880.0,-7872.0,-13184.0
8.1825,-3008.0,-7936.0,-13184.0
8.185,-3072.0,-7936.0,-13184.0
8.1875,-3008.0,-7936.0,-13120.0
8.19,-3008.0,-7872.0,-13184.0
8.1925,-3008.0,-7872.0,-13184.0
8.195,-3008.0,-7872.0,-13184.0
8.1975,-3008.0,-7872.0,-13120.0
8.2,-3008.0,-7872.0,-13120.0
8.2025,-2944.0,-7872.0,-13184.0
8.205,-2944.0,-7744.0,-13184.0
8.2075,-2880.0,-7744.0,-13120.0
8.21,-2880.0,-7808.0,-12992.0
8.2125,-2880.0,-7808.0,-13056.0
8.215,-2880.0,-7808.0,-13120.0
8.2175,-2816.0,-7872.0,-13056.0
8.22,-2816.0,-7872.0,-13056.0
8.2225,-2816.0,-7936.0,-13120.0
8.225,-2880.0,-7936.0,-13184.0
8.2275,-2880.0,-7936.0,-13312.0
8.23,-2816.0,-7936.0,-13312.0
8.2325,-2752.0,-8000.0,-13312.0
8.235,-2752.0,-8000.0,-13312.0
8.2375,-2816.0,-8000.0,-13376.0
8.24,-2880.0,-8000.0,-13440.0
8.2425,-2880.0,-8000.0,-13440.0
8.245,-2880.0,-8000.0,-13376.0
8.2475,-2816.0,-8064.0,-13376.0
8.25,-2816.0,-8000.0,-13312.0
8.2525,-2880.0,-8000.0,-13248.0
8.255,-2880.0,-8064.0,-13312.0
8.2575,-2880.0,-8064.0,-13312.0
8.26,-2944.0,-8128.0,-13312.0
8.2625,-2880.0,-8128.0,-13312.0
8.265,-2816.0,-8128.0,-13248.0
8.2675,-2880.0,-8064.0,-13312.0
8.27,-2752.0,-8064.0,-13312.0
8.2725,-2816.0,-8064.0,-13248.0
8.275,-2816.0,-8064.0,-13184.0
8.2775,-2880.0,-8128.0,-13312.0
8.28,-2816.0,-8128.0,-13312.0
8.2825,-2816.0,-8128.0,-13312.0
8.285,-2816.0,-8128.0,-13312.0
8.2875,-2816.0,-8064.0,-13376.0
8.29,-2944.0,-8128.0,-13440.0
8.2925,-2816.0,-8128.0,-13440.0
8.295,-2880.0,-8064.0,-13376.0
8.2975,-2880.0,-8064.0,-13440.0
8.3,-2880.0,-8064.0,-13376.0
8.3025,-2816.0,-8064.0,-13376.0
8.305,-2816.0,-8064.0,-13440.0
8.3075,-2880.0,-8000.0,-13504.0
8.31,-2944.0,-8064.0,-13504.0
8.3125,-2880.0,-8064.0,-13440.0
8.315,-2944.0,-8000.0,-13440.0
8.3175,-2880.0,-8000.0,-13376.0
8.32,-2880.0,-8000.0,-13248.0
8.3225,-2880.0,-8000.0,-13248.0
8.325,-2880.0,-7936.0,-13248.0
8.3275,-2816.0,-7936.0,-13184.0
8.33,-2816.0,-7936.0,-13184.0
8.3325,-2816.0,-8000.0,-13248.0
8.335,-2816.0,-7936.0,-13184.0
8.3375,-2816.0,-8000.0,-13184.0
8.34,-2752.0,-8000.0,-13184.0
8.3425,-2752.0,-8000.0,-13184.0
8.345,-2752.0,-8000.0,-13248.0
8.3475,-2688.0,-7936.0,-13248.0
8.35,-2688.0,-7936.0,-13248.0
8.3525,-2688.0,-7872.0,-13248.0
8.355,-2688.0,-7936.0,-13312.0
8.3575,-2624.0,-7936.0,-13312.0
8.36,-2688.0,-7936.0,-13376.0
8.3625,-2688.0,-7936.0,-13376.0
8.365,-2624.0,-7936.0,-13376.0
8.3675,-2688.0,-8000.0,-13312.0
8.37,-2688.0,-8000.0,-13440.0
8.3725,-2624.0,-7936.0,-13504.0
8.375,-2688.0,-7936.0,-13568.0
8.3775,-2688.0,-7936.0,-13568.0
8.38,-2688.0,-7936.0,-13568.0
8.3825,-2688.0,-7936.0,-13632.0
8.385,-2752.0,-8000.0,-13504.0
8.3875,-2752.0,-7936.0,-13568.0
8.39,-2816.0,-7936.0,-13504.0
8.3925,-2752.0,-7936.0,-13568.0
8.395,-2816.0,-7872.0,-13504.0
8.3975,-2752.0,-7872.0,-13504.0
8.4,-2752.0,-7872.0,-13504.0
8.4025,-2688.0,-7872.0,-13440.0
8.405,-2688.0,-7936.0,-13440.0
8.4075,-2752.0,-7872.0,-13440.0
8.41,-2816.0,-7872.0,-13376.0
8.4125,-2816.0,-7872.0,-13376.0
8.415,-2880.0,-7808.0,-13376.0
8.4175,-2816.0,-7872.0,-13376.0
8.42,-2816.0,-7872.0,-13440.0
8.4225,-2816.0,-7808.0,-13440.0
8.425,-2816.0,-7808.0,-13440.0
8.4275,-2752.0,-7872.0,-13440.0
8.43,-2688.0,-7872.0,-13440.0
8.4325,-2752.0,-7872.0,-13504.0
8.435,-2752.0,-7808.0,-13504.0
8.4375,-2752.0,-7808.0,-13568.0
8.44,-2688.0,-7872.0,-13568.0
8.4425,-2688.0,-7936.0,-13632.0
8.445,-2624.0,-7936.0,-13632.0
8.4475,-2624.0,-7936.0,-13632.0
8.45,-2624.0,-7936.0,-13632.0
8.4525,-2624.0,-7936.0,-13568.0
8.455,-2624.0,-7936.0,-13568.0
8.4575,-2688.0,-7936.0,-13632.0
8.46,-2688.0,-7936.0,-13696.0
8.4625,-2624.0,-7936.0,-13632.0
8.465,-2688.0,-7936.0,-13632.0
8.4675,-2688.0,-7936.0,-13568.0
8.47,-2688.0,-7936.0,-13568.0
8.4725,-2688.0,-7936.0,-13504.0
8.475,-2688.0,-8000.0,-13440.0
8.4775,-2688.0,-7936.0,-13440.0
8.48,-2688.0,-7936.0,-13504.0
8.4825,-2688.0,-7936.0,-13504.0
8.485,-2688.0,-8064.0,-13568.0
8.4875,-2752.0,-8000.0,-13440.0
8.49,-2752.0,-8000.0,-13440.0
8.4925,-2816.0,-8064.0,-13504.0
8.495,-2816.0,-8064.0,-13440.0
8.4975,-2880.0,-8064.0,-13504.0
8.5,-2880.0,-8128.0,-13504.0
8.5025,-2880.0,-8128.0,-13504.0
8.505,-2816.0,-8128.0,-13440.0
8.5075,-2816.0,-8128.0,-13440.0
8.51,-2752.0,-8128.0,-13440.0
8.5125,-2752.0,-8128.0,-13312.0
8.515,-2752.0,-8128.0,-13312.0
8.5175,-2752.0,-8128.0,-13376.0
8.52,-2688.0,-8192.0,-13312.0
8.5225,-2688.0,-8192.0,-13376.0
8.525,-2752.0,-8128.0,-13376.0
8.5275,-2688.0,-8128.0,-13248.0
8.53,-2688.0,-8128.0,-13312.0
8.5325,-2688.0,-8064.0,-13376.0
8.535,-2624.0,-8000.0,-13376.0
8.5375,-2624.0,-8064.0,-13312.0
8.54,-2688.0,-8064.0,-13376.0
8.5425,-2688.0,-8064.0,-13312.0
8.545,-2560.0,-8064.0,-13376.0
8.5475,-2624.0,-8064.0,-13440.0
8.55,-2688.0,-8064.0,-13376.0
8.5525,-2752.0,-8064.0,-13376.0
8.555,-2688.0,-8128.0,-13376.0
8.5575,-2688.0,-8128.0,-13440.0
8.56,-2688.0,-8128.0,-13504.0
8.5625,-2688.0,-8128.0,-13504.0
8.565,-2752.0,-8064.0,-13440.0
8.5675,-2688.0,-8064.0,-13504.0
8.57,-2688.0,-8128.0,-13504.0
8.5725,-2688.0,-8064.0,-13568.0
8.575,-2752.0,-8128.0,-13504.0
8.5775,-2752.0,-8128.0,-13568.0
8.58,-2752.0,-8192.0,-13504.0
8.5825,-2816.0,-8192.0,-13568.0
8.585,-2752.0,-8256.0,-13632.0
8.5875,-2752.0,-8192.0,-13632.0
8.59,-2880.0,-8192.0,-13568.0
8.5925,-2880.0,-8128.0,-13568.0
8.595,-2880.0,-8192.0,-13568.0
8.5975,-2816.0,-8192.0,-13568.0
8.6,-2816.0,-8128.0,-13632.0
8.6025,-2880.0,-8128.0,-13568.0
8.605,-2880.0,-8128.0,-13632.0
8.6075,-2880.0,-8064.0,-13568.0
8.61,-2944.0,-8064.0,-13568.0
8.6125,-2944.0,-8064.0,-13632.0
8.615,-3008.0,-8000.0,-13632.0
8.6175,-2944.0,-8000.0,-13568.0
8.62,-3008.0,-8000.0,-13568.0
8.6225,-2944.0,-8000.0,-13504.0
8.625,-2944.0,-7936.0,-13504.0
8.6275,-2880.0,-7936.0,-13568.0
8.63,-2944.0,-7936.0,-13568.0
8.6325,-2944.0,-7872.0,-13568.0
8.635,-3072.0,-7872.0,-13504.0
8.6375,-3072.0,-7872.0,-13440.0
8.64,-3072.0,-7872.0,-13440.0
8.6425,-3072.0,-7936.0,-13504.0
8.645,-3072.0,-7936.0,-13504.0
8.6475,-3136.0,-7872.0,-13568.0
8.65,-3072.0,-7936.0,-13504.0
8.6525,-3072.0,-7872.0,-13440.0
8.655,-3072.0,-7872.0,-13504.0
8.6575,-3008.0,-7808.0,-13504.0
8.66,-2944.0,-7808.0,-13440.0
8.6625,-3008.0,-7808.0,-13440.0
8.665,-2944.0,-7872.0,-13376.0
8.6675,-2944.0,-7872.0,-13312.0
8.67,-2944.0,-7872.0,-13376.0
8.6725,-2880.0,-7744.0,-13376.0
8.675,-2880.0,-7680.0,-13376.0
8.6775,-2880.0,-7744.0,-13312.0
8.68,-2816.0,-7680.0,-13376.0
8.6825,-2880.0,-7680.0,-13376.0
8.685,-2752.0,-7744.0,-13440.0
8.6875,-2752.0,-7744.0,-13376.0
8.69,-2688.0,-7680.0,-13376.0
8.6925,-2688.0,-7680.0,-13376.0
8.695,-2752.0,-7680.0,-13248.0
8.6975,-2752.0,-7680.0,-13248.0
8.7,-2816.0,-7680.0,-13248.0
8.7025,-2752.0,-7680.0,-13312.0
8.705,-2752.0,-7680.0,-13312.0
8.7075,-2752.0,-7680.0,-13312.0
8.71,-2752.0,-7680.0,-13248.0
8.7125,-2816.0,-7680.0,-13248.0
8.715,-2816.0,-7616.0,-13312.0
8.7175,-2880.0,-7552.0,-13376.0
8.72,-2816.0,-7616.0,-13312.0
8.7225,-2880.0,-7680.0,-13376.0
8.725,-2880.0,-7680.0,-13376.0
8.7275,-2944.0,-7680.0,-13312.0
8.73,-2944.0,-7744.0,-13312.0
8.7325,-2944.0,-7808.0,-13248.0
8.735,-2944.0,-7872.0,-13312.0
8.7375,-2944.0,-7936.0,-13440.0
8.74,-2944.0,-7936.0,-13376.0
8.7425,-3008.0,-7936.0,-13312.0
8.745,-3072.0,-7872.0,-13248.0
8.7475,-3072.0,-7872.0,-13312.0
8.75,-3072.0,-7936.0,-13248.0
8.7525,-3072.0,-7872.0,-13248.0
8.755,-3072.0,-7872.0,-13248.0
8.7575,-3072.0,-7872.0,-13248.0
8.76,-3008.0,-7872.0,-13184.0
8.7625,-3008.0,-7808.0,-13184.0
8.765,-3008.0,-7872.0,-13184.0
8.7675,-3008.0,-7872.0,-13184.0
8.77,-3008.0,-7872.0,-13248.0
8.7725,-3008.0,-7872.0,-13248.0
8.775,-3008.0,-7808.0,-13312.0
8.7775,-2944.0,-7872.0,-13440.0
8.78,-3008.0,-7872.0,-13440.0
8.7825,-2944.0,-7872.0,-13440.0
8.785,-2944.0,-7872.0,-13440.0
8.7875,-2944.0,-7744.0,-13504.0
8.79,-2944.0,-7872.0,-13440.0
8.7925,-2880.0,-7872.0,-13376.0
8.795,-2944.0,-7872.0,-13504.0
8.7975,-2944.0,-7872.0,-13440.0
8.8,-2944.0,-7872.0,-13504.0
8.8025,-3008.0,-7808.0,-13504.0
8.805,-3008.0,-7808.0,-13504.0
8.8075,-3008.0,-7872.0,-13504.0
8.81,-3072.0,-7936.0,-13504.0
8.8125,-3136.0,-7936.0,-13504.0
8.815,-3136.0,-8000.0,-13440.0
8.8175,-3200.0,-8000.0,-13376.0
8.82,-3136.0,-8064.0,-13440.0
8.8225,-3200.0,-8064.0,-13440.0
8.825,-3200.0,-8064.0,-13376.0
8.8275,-3264.0,-8064.0,-13440.0
8.83,-3200.0,-8064.0,-13376.0
8.8325,-3200.0,-8064.0,-13312.0
8.835,-3200.0,-8064.0,-13376.0
8.8375,-3200.0,-8000.0,-13312.0
8.84,-3200.0,-8064.0,-13376.0
8.8425,-3328.0,-8000.0,-13376.0
8.845,-3264.0,-8064.0,-13312.0
8.8475,-3264.0,-8000.0,-13312.0
8.85,-3200.0,-7936.0,-13312.0
8.8525,-3264.0,-7936.0,-13312.0
8.855,-3200.0,-7936.0,-13312.0
8.8575,-3264.0,-8000.0,-13312.0
8.86,-3264.0,-8000.0,-13248.0
8.8625,-3200.0,-8000.0,-13184.0
8.865,-3200.0,-8000.0,-13184.0
8.8675,-3200.0,-8000.0,-13184.0
8.87,-3136.0,-8000.0,-13184.0
8.8725,-3200.0,-8000.0,-13120.0
8.875,-3200.0,-8000.0,-13120.0
8.8775,-3200.0,-8000.0,-13184.0
8.88,-3200.0,-8000.0,-13248.0
8.8825,-3200.0,-8064.0,-13248.0
8.885,-3136.0,-8064.0,-13312.0
8.8875,-3136.0,-8064.0,-13312.0
8.89,-3136.0,-8064.0,-13312.0
8.8925,-3136.0,-8128.0,-13248.0
8.895,-3136.0,-8128.0,-13248.0
8.8975,-3072.0,-8192.0,-13248.0
8.9,-3072.0,-8192.0,-13248.0
8.9025,-3072.0,-8192.0,-13248.0
8.905,-3072.0,-8256.0,-13248.0
8.9075,-3072.0,-8256.0,-13248.0
8.91,-3008.0,-8256.0,-13248.0
8.9125,-3008.0,-8256.0,-13248.0
8.915,-2944.0,-8192.0,-13248.0
8.9175,-2944.0,-8192.0,-13184.0
8.92,-2944.0,-8256.0,-13120.0
8.9225,-2880.0,-8192.0,-13120.0
8.925,-2880.0,-8256.0,-13120.0
8.9275,-2880.0,-8256.0,-13120.0
8.93,-2880.0,-8256.0,-13120.0
8.9325,-2944.0,-8320.0,-13120.0
8.935,-2944.0,-8320.0,-13184.0
8.9375,-3008.0,-8320.0,-13184.0
8.94,-2944.0,-8320.0,-13248.0
8.9425,-2944.0,-8320.0,-13184.0
8.945,-3008.0,-8320.0,-13184.0
8.9475,-3072.0,-8256.0,-13184.0
8.95,-3072.0,-8320.0,-13184.0
8.9525,-3008.0,-8256.0,-13184.0
8.955,-3008.0,-8320.0,-13248.0
8.9575,-3136.0,-8256.0,-13248.0
8.96,-3136.0,-8256.0,-13184.0
8.9625,-3200.0,-8256.0,-13248.0
8.965,-3200.0,-8256.0,-13120.0
8.9675,-3264.0,-8192.0,-13184.0
8.97,-3264.0,-8256.0,-13248.0
8.9725,-3264.0,-8256.0,-13248.0
8.975,-3328.0,-8192.0,-13312.0
8.9775,-3264.0,-8192.0,-13184.0
8.98,-3264.0,-8192.0,-13184.0
8.9825,-3264.0,-8192.0,-13184.0
8.985,-3264.0,-8192.0,-13184.0
8.9875,-3328.0,-8192.0,-13184.0
8.99,-3264.0,-8192.0,-13248.0
8.9925,-3264.0,-8192.0,-13184.0
8.995,-3264.0,-8128.0,-13184.0
8.9975,-3264.0,-8128.0,-13184.0
9.0,-3328.0,-8192.0,-13248.0
9.0025,-3264.0,-8128.0,-13312.0
9.005,-3328.0,-8192.0,-13440.0
9.0075,-3328.0,-8256.0,-13504.0
9.01,-3328.0,-8256.0,-13504.0
9.0125,-3328.0,-8256.0,-13504.0
9.015,-3392.0,-8256.0,-13504.0
9.0175,-3456.0,-8256.0,-13440.0
9.02,-3456.0,-8256.0,-13504.0
9.0225,-3456.0,-8256.0,-13568.0
9.025,-3456.0,-8256.0,-13568.0
9.0275,-3456.0,-8320.0,-13632.0
9.03,-3520.0,-8256.0,-13504.0
9.0325,-3520.0,-8256.0,-13568.0
9.035,-3584.0,-8256.0,-13568.0
9.0375,-3584.0,-8256.0,-13568.0
9.04,-3584.0,-8192.0,-13632.0
9.0425,-3520.0,-8128.0,-13632.0
9.045,-3520.0,-8192.0,-13504.0
9.0475,-3584.0,-8192.0,-13568.0
9.05,-3648.0,-8192.0,-13568.0
9.0525,-3648.0,-8192.0,-13632.0
9.055,-3648.0,-8128.0,-13632.0
9.0575,-3584.0,-8128.0,-13632.0
9.06,-3584.0,-8128.0,-13632.0
9.0625,-3584.0,-8128.0,-13632.0
9.065,-3648.0,-8128.0,-13504.0
9.0675,-3584.0,-8064.0,-13504.0
9.07,-3648.0,-8064.0,-13440.0
9.0725,-3648.0,-8000.0,-13440.0
9.075,-3648.0,-8064.0,-13504.0
9.0775,-3712.0,-8000.0,-13568.0
9.08,-3712.0,-7936.0,-13568.0
9.0825,-3712.0,-7936.0,-13568.0
9.085,-3776.0,-7872.0,-13632.0
9.0875,-3648.0,-7936.0,-13632.0
9.09,-3712.0,-8000.0,-13696.0
9.0925,-3712.0,-8000.0,-13696.0
9.095,-3648.0,-8064.0,-13760.0
9.0975,-3776.0,-8000.0,-13824.0
9.1,-3776.0,-7936.0,-13888.0
9.1025,-3712.0,-7872.0,-13824.0
9.105,-3776.0,-8000.0,-13888.0
9.1075,-3712.0,-7936.0,-13888.0
9.11,-3712.0,-7936.0,-13952.0
9.1125,-3712.0,-7936.0,-13952.0
9.115,-3712.0,-8000.0,-13888.0
9.1175,-3712.0,-7872.0,-13888.0
9.12,-3648.0,-7808.0,-13952.0
9.1225,-3648.0,-7744.0,-13952.0
9.125,-3584.0,-7808.0,-13888.0
9.1275,-3520.0,-7744.0,-13824.0
9.13,-3520.0,-7680.0,-13888.0
9.1325,-3584.0,-7616.0,-13888.0
9.135,-3584.0,-7552.0,-13824.0
9.1375,-3520.0,-7488.0,-13824.0
9.14,-3520.0,-7424.0,-13760.0
9.1425,-3456.0,-7488.0,-13760.0
9.145,-3456.0,-7488.0,-13760.0
9.1475,-3456.0,-7488.0,-13760.0
9.15,-3456.0,-7424.0,-13824.0
9.1525,-3392.0,-7360.0,-13760.0
9.155,-3456.0,-7232.0,-13696.0
9.1575,-3392.0,-7232.0,-13632.0
9.16,-3392.0,-7232.0,-13632.0
9.1625,-3456.0,-7232.0,-13632.0
9.165,-3392.0,-7232.0,-13568.0
9.1675,-3392.0,-7232.0,-13632.0
9.17,-3328.0,-7232.0,-13632.0
9.1725,-3456.0,-7232.0,-13568.0
9.175,-3392.0,-7232.0,-13568.0
9.1775,-3456.0,-7296.0,-13632.0
9.18,-3392.0,-7296.0,-13568.0
9.1825,-3392.0,-7296.0,-13504.0
9.185,-3328.0,-7296.0,-13824.0
9.1875,-3392.0,-7296.0,-13632.0
9.19,-3456.0,-7296.0,-13632.0
9.1925,-3392.0,-7360.0,-13632.0
9.195,-3456.0,-7360.0,-13696.0
9.1975,-3392.0,-7360.0,-13568.0
9.2,-3392.0,-7424.0,-13568.0
9.2025,-3328.0,-7360.0,-13632.0
9.205,-3456.0,-7296.0,-13568.0
9.2075,-3456.0,-7232.0,-13568.0
9.21,-3456.0,-7232.0,-13568.0
9.2125,-3456.0,-7232.0,-13568.0
9.215,-3456.0,-7232.0,-13632.0
9.2175,-3456.0,-7168.0,-13632.0
9.22,-3456.0,-7168.0,-13568.0
9.2225,-3456.0,-7168.0,-13568.0
9.225,-3520.0,-7104.0,-13632.0
9.2275,-3456.0,-7168.0,-13568.0
9.23,-3456.0,-7104.0,-13504.0
9.2325,-3456.0,-7104.0,-13632.0
9.235,-3520.0,-7168.0,-13568.0
9.2375,-3584.0,-7104.0,-13504.0
9.24,-3520.0,-7104.0,-13440.0
9.2425,-3520.0,-7168.0,-13440.0
9.245,-3520.0,-7168.0,-13376.0
9.2475,-3520.0,-7168.0,-13376.0
9.25,-3584.0,-7168.0,-13376.0
9.2525,-3584.0,-7168.0,-13312.0
9.255,-3584.0,-7168.0,-13312.0
9.2575,-3520.0,-7168.0,-13312.0
9.26,-3520.0,-7232.0,-13184.0
9.2625,-3520.0,-7232.0,-13248.0
9.265,-3520.0,-7296.0,-13312.0
9.2675,-3520.0,-7360.0,-13376.0
9.27,-3520.0,-7360.0,-13376.0
9.2725,-3520.0,-7360.0,-13440.0
9.275,-3584.0,-7424.0,-13440.0
9.2775,-3584.0,-7424.0,-13440.0
9.28,-3584.0,-7424.0,-13440.0
9.2825,-3648.0,-7424.0,-13440.0
9.285,-3648.0,-7424.0,-13440.0
9.2875,-3712.0,-7424.0,-13504.0
9.29,-3584.0,-7424.0,-13504.0
9.2925,-3648.0,-7424.0,-13440.0
9.295,-3584.0,-7360.0,-13440.0
9.2975,-3648.0,-7424.0,-13504.0
9.3,-3648.0,-7360.0,-13504.0
9.3025,-3648.0,-7360.0,-13376.0
9.305,-3712.0,-7360.0,-13376.0
9.3075,-3712.0,-7360.0,-13376.0
9.31,-3648.0,-7424.0,-13376.0
9.3125,-3648.0,-7424.0,-13440.0
9.315,-3648.0,-7360.0,-13376.0
9.3175,-3584.0,-7360.0,-13376.0
9.32,-3648.0,-7360.0,-13440.0
9.3225,-3648.0,-7424.0,-13376.0
9.325,-3648.0,-7488.0,-13312.0
9.3275,-3584.0,-7488.0,-13312.0
9.33,-3584.0,-7424.0,-13312.0
9.3325,-3648.0,-7552.0,-13248.0
9.335,-3648.0,-7552.0,-13312.0
9.3375,-3584.0,-7552.0,-13312.0
9.34,-3584.0,-7616.0,-13248.0
9.3425,-3584.0,-7616.0,-13248.0
9.345,-3584.0,-7552.0,-13376.0
9.3475,-3520.0,-7616.0,-13376.0
9.35,-3520.0,-7616.0,-13312.0
9.3525,-3584.0,-7616.0,-13312.0
9.355,-3584.0,-7616.0,-13312.0
9.3575,-3584.0,-7552.0,-13312.0
9.36,-3584.0,-7552.0,-13376.0
9.3625,-3584.0,-7616.0,-13376.0
9.365,-3584.0,-7552.0,-13376.0
9.3675,-3584.0,-7552.0,-13312.0
9.37,-3584.0,-7552.0,-13376.0
9.3725,-3520.0,-7552.0,-13376.0
9.375,-3584.0,-7616.0,-13376.0
9.3775,-3520.0,-7552.0,-13440.0
9.38,-3520.0,-7616.0,-13440.0
9.3825,-3648.0,-7616.0,-13440.0
9.385,-3584.0,-7680.0,-13440.0
9.3875,-3584.0,-7616.0,-13376.0
9.39,-3584.0,-7680.0,-13376.0
9.3925,-3584.0,-7680.0,-13376.0
9.395,-3648.0,-7680.0,-13376.0
9.3975,-3648.0,-7680.0,-13376.0
9.4,-3648.0,-7744.0,-13376.0
9.4025,-3648.0,-7744.0,-13312.0
9.405,-3648.0,-7808.0,-13248.0
9.4075,-3648.0,-7872.0,-13184.0
9.41,-3648.0,-7872.0,-13184.0
9.4125,-3648.0,-7872.0,-13184.0
9.415,-3712.0,-7872.0,-13248.0
9.4175,-3712.0,-7872.0,-13248.0
9.42,-3712.0,-7872.0,-13248.0
9.4225,-3648.0,-7872.0,-13184.0
9.425,-3648.0,-7936.0,-13184.0
9.4275,-3712.0,-7872.0,-13184.0
9.43,-3648.0,-7872.0,-13120.0
9.4325,-3648.0,-7808.0,-13184.0
9.435,-3648.0,-7808.0,-13120.0
9.4375,-3584.0,-7744.0,-13056.0
9.44,-3456.0,-7744.0,-13120.0
9.4425,-3392.0,-7744.0,-12992.0
9.445,-3392.0,-7744.0,-12928.0
9.4475,-3456.0,-7808.0,-12928.0
9.45,-3392.0,-7744.0,-13056.0
9.4525,-3392.0,-7744.0,-13056.0
9.455,-3328.0,-7808.0,-13120.0
9.4575,-3392.0,-7808.0,-13184.0
9.46,-3328.0,-7808.0,-13120.0
9.4625,-3264.0,-7808.0,-13120.0
9.465,-3200.0,-7808.0,-13120.0
9.4675,-3200.0,-7808.0,-13184.0
9.47,-3200.0,-7808.0,-13184.0
9.4725,-3200.0,-7808.0,-13184.0
9.475,-3200.0,-7744.0,-13184.0
9.4775,-3200.0,-7744.0,-13248.0
9.48,-3200.0,-7808.0,-13248.0
9.4825,-3200.0,-7872.0,-13312.0
9.485,-3200.0,-7936.0,-13312.0
9.4875,-3264.0,-7936.0,-13376.0
9.49,-3264.0,-8000.0,-13440.0
9.4925,-3328.0,-8000.0,-13504.0
9.495,-3392.0,-8000.0,-13504.0
9.4975,-3456.0,-8000.0,-13504.0
9.5,-3456.0,-7936.0,-13504.0
9.5025,-3392.0,-7936.0,-13568.0
9.505,-3520.0,-7936.0,-13568.0
9.5075,-3520.0,-7936.0,-13568.0
9.51,-3584.0,-7936.0,-13568.0
9.5125,-3648.0,-7936.0,-13568.0
9.515,-3584.0,-7936.0,-13632.0
9.5175,-3584.0,-7936.0,-13568.0
9.52,-3584.0,-7936.0,-13568.0
9.5225,-3520.0,-7936.0,-13632.0
9.525,-3584.0,-8000.0,-13632.0
9.5275,-3584.0,-7936.0,-13760.0
9.53,-3584.0,-8000.0,-13760.0
9.5325,-3584.0,-8000.0,-13760.0
9.535,-3584.0,-7936.0,-13696.0
9.5375,-3584.0,-7936.0,-13760.0
9.54,-3584.0,-7936.0,-13760.0
9.5425,-3648.0,-7872.0,-13760.0
9.545,-3584.0,-7808.0,-13696.0
9.5475,-3584.0,-7872.0,-13632.0
9.55,-3584.0,-7808.0,-13696.0
9.5525,-3584.0,-7872.0,-13696.0
9.555,-3648.0,-7872.0,-13760.0
9.5575,-3648.0,-7872.0,-13760.0
9.56,-3712.0,-8000.0,-13760.0
9.5625,-3712.0,-8000.0,-13824.0
9.565,-3776.0,-8064.0,-13888.0
9.5675,-3776.0,-8128.0,-13952.0
9.57,-3776.0,-8128.0,-14016.0
9.5725,-3776.0,-8128.0,-14080.0
9.575,-3712.0,-8192.0,-14080.0
9.5775,-3776.0,-8192.0,-14144.0
9.58,-3712.0,-8256.0,-14208.0
9.5825,-3712.0,-8256.0,-14144.0
9.585,-3776.0,-8320.0,-14144.0
9.5875,-3776.0,-8320.0,-14272.0
9.59,-3840.0,-8384.0,-14272.0
9.5925,-3776.0,-8448.0,-14272.0
9.595,-3904.0,-8384.0,-14336.0
