time_stamp,acc_x,acc_y,acc_z
0.0,-15936.0,-4608.0,-704.0
0.0025,-15936.0,-4672.0,-768.0
0.005,-16000.0,-4672.0,-832.0
0.0075,-16000.0,-4800.0,-896.0
0.01,-16000.0,-4800.0,-960.0
0.0125,-16000.0,-4864.0,-1024.0
0.015,-16064.0,-4800.0,-1088.0
0.0175,-16128.0,-4800.0,-1088.0
0.02,-16128.0,-4800.0,-1152.0
0.0225,-16064.0,-4800.0,-1152.0
0.025,-16000.0,-4800.0,-1152.0
0.0275,-16000.0,-4800.0,-1216.0
0.03,-16000.0,-4736.0,-1216.0
0.0325,-16000.0,-4672.0,-1216.0
0.035,-15936.0,-4736.0,-1280.0
0.0375,-16000.0,-4672.0,-1216.0
0.04,-15872.0,-4672.0,-1216.0
0.0425,-15872.0,-4736.0,-1152.0
0.045,-15872.0,-4736.0,-1216.0
0.0475,-15872.0,-4672.0,-1216.0
0.05,-15808.0,-4672.0,-1152.0
0.0525,-15872.0,-4672.0,-1088.0
0.055,-15872.0,-4608.0,-1152.0
0.0575,-15808.0,-4608.0,-1152.0
0.06,-15808.0,-4608.0,-1088.0
0.0625,-15808.0,-4608.0,-1024.0
0.065,-15872.0,-4608.0,-1088.0
0.0675,-15872.0,-4672.0,-1088.0
0.07,-15872.0,-4672.0,-1088.0
0.0725,-15808.0,-4672.0,-1088.0
0.075,-15936.0,-4672.0,-1088.0
0.0775,-15872.0,-4736.0,-1088.0
0.08,-15872.0,-4736.0,-1088.0
0.0825,-15808.0,-4800.0,-1024.0
0.085,-15808.0,-4800.0,-1024.0
0.0875,-15744.0,-4800.0,-960.0
0.09,-15872.0,-4800.0,-1024.0
0.0925,-15808.0,-4800.0,-960.0
0.095,-15872.0,-4736.0,-896.0
0.0975,-15872.0,-4672.0,-960.0
0.1,-15872.0,-4672.0,-896.0
0.1025,-15872.0,-4672.0,-896.0
0.105,-15872.0,-4608.0,-832.0
0.1075,-15872.0,-4608.0,-896.0
0.11,-15872.0,-4544.0,-768.0
0.1125,-15872.0,-4544.0,-768.0
0.115,-15872.0,-4544.0,-832.0
0.1175,-15872.0,-4416.0,-832.0
0.12,-15872.0,-4416.0,-832.0
0.1225,-15872.0,-4352.0,-832.0
0.125,-15872.0,-4352.0,-832.0
0.1275,-15872.0,-4288.0,-832.0
0.13,-15872.0,-4288.0,-768.0
0.1325,-15872.0,-4288.0,-704.0
0.135,-15936.0,-4352.0,-640.0
0.1375,-16000.0,-4288.0,-704.0
0.14,-16064.0,-4288.0,-704.0
0.1425,-16000.0,-4288.0,-704.0
0.145,-16000.0,-4288.0,-768.0
0.1475,-16000.0,-4352.0,-832.0
0.15,-16000.0,-4352.0,-832.0
0.1525,-15936.0,-4352.0,-832.0
0.155,-15936.0,-4416.0,-960.0
0.1575,-15936.0,-4416.0,-960.0
0.16,-15936.0,-4480.0,-896.0
0.1625,-16000.0,-4480.0,-1024.0
0.165,-15936.0,-4480.0,-1024.0
0.1675,-16000.0,-4544.0,-1024.0
0.17,-16064.0,-4480.0,-1024.0
0.1725,-16000.0,-4544.0,-1024.0
0.175,-16000.0,-4544.0,-1088.0
0.1775,-16064.0,-4544.0,-960.0
0.18,-16064.0,-4416.0,-1024.0
0.1825,-16128.0,-4544.0,-960.0
0.185,-16128.0,-4480.0,-1024.0
0.1875,-16128.0,-4544.0,-1088.0
0.19,-16128.0,-4544.0,-960.0
0.1925,-16192.0,-4544.0,-960.0
0.195,-16192.0,-4544.0,-960.0
0.1975,-16192.0,-4608.0,-960.0
0.2,-16256.0,-4672.0,-896.0
0.2025,-16256.0,-4736.0,-960.0
0.205,-16320.0,-4736.0,-960.0
0.2075,-16320.0,-4800.0,-896.0
0.21,-16320.0,-4864.0,-832.0
0.2125,-16384.0,-4928.0,-896.0
0.215,-16448.0,-4928.0,-832.0
0.2175,-16384.0,-4928.0,-896.0
0.22,-16448.0,-4992.0,-896.0
0.2225,-16384.0,-5056.0,-832.0
0.225,-16384.0,-4992.0,-832.0
0.2275,-16320.0,-5056.0,-768.0
0.23,-16384.0,-5056.0,-896.0
0.2325,-16384.0,-5120.0,-896.0
0.235,-16320.0,-5120.0,-896.0
0.2375,-16320.0,-5120.0,-832.0
0.24,-16256.0,-5120.0,-832.0
0.2425,-16256.0,-5120.0,-832.0
0.245,-16256.0,-5056.0,-768.0
0.2475,-16256.0,-4992.0,-832.0
0.25,-16256.0,-5056.0,-896.0
0.2525,-16256.0,-5120.0,-896.0
0.255,-16192.0,-5056.0,-896.0
0.2575,-16256.0,-5056.0,-896.0
0.26,-16256.0,-5056.0,-896.0
0.2625,-16192.0,-5120.0,-896.0
0.265,-16128.0,-5056.0,-960.0
0.2675,-16192.0,-5120.0,-960.0
0.27,-16192.0,-5120.0,-896.0
0.2725,-16128.0,-5120.0,-960.0
0.275,-16192.0,-5120.0,-1024.0
0.2775,-16128.0,-5120.0,-1024.0
0.28,-16128.0,-5120.0,-960.0
0.2825,-16128.0,-5120.0,-1024.0
0.285,-16128.0,-5120.0,-1024.0
0.2875,-16192.0,-5120.0,-960.0
0.29,-16128.0,-5184.0,-960.0
0.2925,-16192.0,-5184.0,-1024.0
0.295,-16128.0,-5120.0,-1024.0
0.2975,-16128.0,-5120.0,-1024.0
0.3,-16128.0,-5184.0,-1088.0
0.3025,-16064.0,-5120.0,-1024.0
0.305,-16000.0,-5120.0,-960.0
0.3075,-16064.0,-5120.0,-960.0
0.31,-16064.0,-5184.0,-1024.0
0.3125,-16064.0,-5248.0,-1024.0
0.315,-15936.0,-5184.0,-1024.0
0.3175,-15936.0,-5248.0,-1024.0
0.32,-16000.0,-5248.0,-1024.0
0.3225,-15936.0,-5248.0,-1024.0
0.325,-15936.0,-5120.0,-1088.0
0.3275,-15872.0,-5120.0,-1088.0
0.33,-15872.0,-5184.0,-1024.0
0.3325,-15936.0,-5184.0,-1024.0
0.335,-15936.0,-5056.0,-960.0
0.3375,-15872.0,-5056.0,-1024.0
0.34,-15872.0,-5120.0,-960.0
0.3425,-15744.0,-5056.0,-960.0
0.345,-15744.0,-5056.0,-1024.0
0.3475,-15744.0,-4992.0,-1024.0
0.35,-15744.0,-4992.0,-1024.0
0.3525,-15680.0,-4928.0,-1024.0
0.355,-15616.0,-4928.0,-1024.0
0.3575,-15680.0,-4928.0,-1024.0
0.36,-15680.0,-4864.0,-1088.0
0.3625,-15552.0,-4864.0,-1024.0
0.365,-15616.0,-4800.0,-1024.0
0.3675,-15552.0,-4736.0,-1088.0
0.37,-15424.0,-4736.0,-1088.0
0.3725,-15488.0,-4672.0,-1024.0
0.375,-15552.0,-4672.0,-1024.0
0.3775,-15488.0,-4672.0,-1152.0
0.38,-15552.0,-4672.0,-1216.0
0.3825,-15552.0,-4544.0,-1152.0
0.385,-15616.0,-4608.0,-1152.0
0.3875,-15552.0,-4608.0,-1280.0
0.39,-15616.0,-4608.0,-1216.0
0.3925,-15616.0,-4544.0,-1216.0
0.395,-15616.0,-4480.0,-1216.0
0.3975,-15616.0,-4544.0,-1216.0
0.4,-15616.0,-4544.0,-1280.0
0.4025,-15616.0,-4544.0,-1216.0
0.405,-15680.0,-4544.0,-1216.0
0.4075,-15680.0,-4480.0,-1216.0
0.41,-15616.0,-4480.0,-1216.0
0.4125,-15616.0,-4544.0,-1216.0
0.415,-15616.0,-4480.0,-1280.0
0.4175,-15616.0,-4480.0,-1280.0
0.42,-15680.0,-4480.0,-1216.0
0.4225,-15616.0,-4480.0,-1280.0
0.425,-15680.0,-4416.0,-1216.0
0.4275,-15616.0,-4416.0,-1216.0
0.43,-15616.0,-4352.0,-1280.0
0.4325,-15680.0,-4416.0,-1280.0
0.435,-15680.0,-4352.0,-1280.0
0.4375,-15744.0,-4352.0,-1344.0
0.44,-15744.0,-4416.0,-1344.0
0.4425,-15808.0,-4416.0,-1344.0
0.445,-15744.0,-4352.0,-1344.0
0.4475,-15744.0,-4352.0,-1344.0
0.45,-15744.0,-4288.0,-1408.0
0.4525,-15808.0,-4288.0,-1408.0
0.455,-15808.0,-4288.0,-1344.0
0.4575,-15808.0,-4288.0,-1408.0
0.46,-15872.0,-4224.0,-1344.0
0.4625,-15872.0,-4224.0,-1344.0
0.465,-15872.0,-4224.0,-1408.0
0.4675,-15872.0,-4160.0,-1344.0
0.47,-15872.0,-4160.0,-1408.0
0.4725,-15808.0,-4160.0,-1472.0
0.475,-15808.0,-4224.0,-1408.0
0.4775,-15808.0,-4224.0,-1344.0
0.48,-15872.0,-4224.0,-1344.0
0.4825,-15936.0,-4224.0,-1408.0
0.485,-16000.0,-4224.0,-1408.0
0.4875,-16000.0,-4160.0,-1344.0
0.49,-16000.0,-4160.0,-1344.0
0.4925,-16000.0,-4160.0,-1344.0
0.495,-16064.0,-4160.0,-1408.0
0.4975,-16000.0,-4160.0,-1472.0
0.5,-16064.0,-4160.0,-1408.0
0.5025,-16064.0,-4224.0,-1408.0
0.505,-16064.0,-4224.0,-1536.0
0.5075,-16064.0,-4224.0,-1472.0
0.51,-16128.0,-4224.0,-1408.0
0.5125,-16128.0,-4224.0,-1472.0
0.515,-16192.0,-4160.0,-1472.0
0.5175,-16128.0,-4224.0,-1472.0
0.52,-16192.0,-4224.0,-1472.0
0.5225,-16192.0,-4224.0,-1536.0
0.525,-16256.0,-4224.0,-1536.0
0.5275,-16320.0,-4288.0,-1472.0
0.53,-16256.0,-4288.0,-1472.0
0.5325,-16384.0,-4288.0,-1472.0
0.535,-16384.0,-4288.0,-1408.0
0.5375,-16384.0,-4224.0,-1280.0
0.54,-16448.0,-4224.0,-1408.0
0.5425,-16448.0,-4224.0,-1408.0
0.545,-16448.0,-4288.0,-1344.0
0.5475,-16512.0,-4224.0,-1344.0
0.55,-16448.0,-4288.0,-1344.0
0.5525,-16448.0,-4288.0,-1344.0
0.555,-16448.0,-4224.0,-1280.0
0.5575,-16512.0,-4224.0,-1216.0
0.56,-16448.0,-4288.0,-1216.0
0.5625,-16512.0,-4288.0,-1280.0
0.565,-16512.0,-4352.0,-1280.0
0.5675,-16448.0,-4288.0,-1216.0
0.57,-16512.0,-4288.0,-1344.0
0.5725,-16512.0,-4224.0,-1280.0
0.575,-16512.0,-4288.0,-1280.0
0.5775,-16576.0,-4224.0,-1280.0
0.58,-16512.0,-4288.0,-1280.0
0.5825,-16512.0,-4288.0,-1216.0
0.585,-16576.0,-4288.0,-1216.0
0.5875,-16512.0,-4288.0,-1152.0
0.59,-16512.0,-4288.0,-1216.0
0.5925,-16448.0,-4352.0,-1216.0
0.595,-16512.0,-4288.0,-1280.0
0.5975,-16576.0,-4352.0,-1216.0
0.6,-16576.0,-4352.0,-1216.0
0.6025,-16640.0,-4288.0,-1216.0
0.605,-16576.0,-4288.0,-1152.0
0.6075,-16512.0,-4288.0,-1216.0
0.61,-16512.0,-4288.0,-1216.0
0.6125,-16512.0,-4352.0,-1152.0
0.615,-16512.0,-4416.0,-1152.0
0.6175,-16512.0,-4352.0,-1152.0
0.62,-16448.0,-4352.0,-1152.0
0.6225,-16448.0,-4416.0,-1088.0
0.625,-16512.0,-4352.0,-1152.0
0.6275,-16448.0,-4352.0,-1088.0
0.63,-16448.0,-4352.0,-1024.0
0.6325,-16448.0,-4352.0,-1024.0
0.635,-16448.0,-4288.0,-1024.0
0.6375,-16384.0,-4352.0,-960.0
0.64,-16384.0,-4288.0,-960.0
0.6425,-16384.0,-4288.0,-960.0
0.645,-16384.0,-4288.0,-896.0
0.6475,-16384.0,-4224.0,-896.0
0.65,-16320.0,-4224.0,-896.0
0.6525,-16384.0,-4224.0,-896.0
0.655,-16384.0,-4224.0,-832.0
0.6575,-16320.0,-4224.0,-832.0
0.66,-16320.0,-4288.0,-832.0
0.6625,-16256.0,-4288.0,-896.0
0.665,-16256.0,-4288.0,-960.0
0.6675,-16256.0,-4224.0,-960.0
0.67,-16192.0,-4224.0,-1024.0
0.6725,-16192.0,-4288.0,-1024.0
0.675,-16128.0,-4288.0,-960.0
0.6775,-16064.0,-4224.0,-960.0
0.68,-16128.0,-4288.0,-1024.0
0.6825,-16128.0,-4288.0,-1024.0
0.685,-16128.0,-4288.0,-960.0
0.6875,-16128.0,-4352.0,-960.0
0.69,-16000.0,-4416.0,-896.0
0.6925,-16000.0,-4416.0,-832.0
0.695,-16000.0,-4352.0,-832.0
0.6975,-16000.0,-4352.0,-768.0
0.7,-16000.0,-4352.0,-704.0
0.7025,-16000.0,-4352.0,-768.0
0.705,-15936.0,-4288.0,-768.0
0.7075,-15936.0,-4288.0,-704.0
0.71,-16000.0,-4352.0,-704.0
0.7125,-15936.0,-4416.0,-640.0
0.715,-16000.0,-4352.0,-640.0
0.7175,-15936.0,-4416.0,-640.0
0.72,-15936.0,-4480.0,-512.0
0.7225,-16000.0,-4480.0,-640.0
0.725,-16000.0,-4480.0,-640.0
0.7275,-16000.0,-4416.0,-640.0
0.73,-16000.0,-4480.0,-640.0
0.7325,-16000.0,-4480.0,-576.0
0.735,-16000.0,-4480.0,-640.0
0.7375,-16000.0,-4480.0,-640.0
0.74,-16064.0,-4544.0,-640.0
0.7425,-16000.0,-4480.0,-640.0
0.745,-16000.0,-4480.0,-640.0
0.7475,-16000.0,-4480.0,-704.0
0.75,-16000.0,-4416.0,-640.0
0.7525,-16000.0,-4352.0,-640.0
0.755,-15936.0,-4416.0,-512.0
0.7575,-15936.0,-4352.0,-576.0
0.76,-15936.0,-4352.0,-576.0
0.7625,-15936.0,-4288.0,-576.0
0.765,-15872.0,-4288.0,-576.0
0.7675,-15936.0,-4288.0,-640.0
0.77,-15872.0,-4288.0,-640.0
0.7725,-15872.0,-4352.0,-576.0
0.775,-15872.0,-4288.0,-576.0
0.7775,-15872.0,-4352.0,-576.0
0.78,-15808.0,-4352.0,-640.0
0.7825,-15744.0,-4288.0,-704.0
0.785,-15744.0,-4288.0,-576.0
0.7875,-15680.0,-4224.0,-576.0
0.79,-15680.0,-4224.0,-576.0
0.7925,-15680.0,-4224.0,-576.0
0.795,-15616.0,-4160.0,-576.0
0.7975,-15680.0,-4160.0,-512.0
0.8,-15616.0,-4160.0,-512.0
0.8025,-15552.0,-4160.0,-448.0
0.805,-15616.0,-4096.0,-448.0
0.8075,-15552.0,-4096.0,-512.0
0.81,-15488.0,-4160.0,-448.0
0.8125,-15488.0,-4160.0,-384.0
0.815,-15552.0,-4160.0,-448.0
0.8175,-15488.0,-4224.0,-448.0
0.82,-15488.0,-4288.0,-512.0
0.8225,-15424.0,-4288.0,-512.0
0.825,-15488.0,-4288.0,-448.0
0.8275,-15424.0,-4288.0,-512.0
0.83,-15424.0,-4288.0,-576.0
0.8325,-15424.0,-4416.0,-576.0
0.835,-15424.0,-4352.0,-512.0
0.8375,-15488.0,-4288.0,-512.0
0.84,-15488.0,-4352.0,-576.0
0.8425,-15488.0,-4352.0,-576.0
0.845,-15424.0,-4416.0,-576.0
0.8475,-15424.0,-4416.0,-576.0
0.85,-15424.0,-4352.0,-576.0
0.8525,-15488.0,-4480.0,-640.0
0.855,-15552.0,-4480.0,-640.0
0.8575,-15552.0,-4480.0,-576.0
0.86,-15616.0,-4480.0,-576.0
0.8625,-15616.0,-4480.0,-640.0
0.865,-15616.0,-4416.0,-704.0
0.8675,-15616.0,-4416.0,-640.0
0.87,-15616.0,-4416.0,-640.0
0.8725,-15488.0,-4416.0,-704.0
0.875,-15552.0,-4416.0,-704.0
0.8775,-15552.0,-4480.0,-704.0
0.88,-15616.0,-4352.0,-768.0
0.8825,-15680.0,-4352.0,-704.0
0.885,-15680.0,-4416.0,-768.0
0.8875,-15680.0,-4352.0,-704.0
0.89,-15744.0,-4352.0,-768.0
0.8925,-15680.0,-4352.0,-768.0
0.895,-15680.0,-4352.0,-832.0
0.8975,-15616.0,-4352.0,-832.0
0.9,-15616.0,-4352.0,-832.0
0.9025,-15616.0,-4352.0,-832.0
0.905,-15616.0,-4416.0,-896.0
0.9075,-15680.0,-4480.0,-832.0
0.91,-15680.0,-4352.0,-832.0
0.9125,-15680.0,-4352.0,-832.0
0.915,-15744.0,-4352.0,-896.0
0.9175,-15808.0,-4480.0,-896.0
0.92,-15744.0,-4416.0,-896.0
0.9225,-15808.0,-4480.0,-896.0
0.925,-15808.0,-4416.0,-960.0
0.9275,-15744.0,-4416.0,-960.0
0.93,-15808.0,-4480.0,-960.0
0.9325,-15808.0,-4416.0,-960.0
0.935,-15808.0,-4416.0,-960.0
0.9375,-15808.0,-4416.0,-960.0
0.94,-15808.0,-4416.0,-960.0
0.9425,-15808.0,-4480.0,-1024.0
0.945,-15808.0,-4416.0,-1088.0
0.9475,-15808.0,-4416.0,-960.0
0.95,-15808.0,-4480.0,-1024.0
0.9525,-15936.0,-4480.0,-960.0
0.955,-15872.0,-4480.0,-896.0
0.9575,-15872.0,-4544.0,-1024.0
0.96,-16000.0,-4480.0,-1088.0
0.9625,-15936.0,-4480.0,-1024.0
0.965,-15936.0,-4480.0,-960.0
0.9675,-15936.0,-4480.0,-1024.0
0.97,-16000.0,-4480.0,-1024.0
0.9725,-16000.0,-4480.0,-1088.0
0.975,-16000.0,-4480.0,-1088.0
0.9775,-15936.0,-4480.0,-1152.0
0.98,-15936.0,-4416.0,-1024.0
0.9825,-15936.0,-4480.0,-1088.0
0.985,-16000.0,-4544.0,-1024.0
0.9875,-16000.0,-4544.0,-1088.0
0.99,-16000.0,-4544.0,-1088.0
0.9925,-16000.0,-4544.0,-1152.0
0.995,-15936.0,-4480.0,-1216.0
0.9975,-15936.0,-4544.0,-1216.0
1.0,-15936.0,-4544.0,-1152.0
1.0025,-15936.0,-4544.0,-1152.0
1.005,-15936.0,-4608.0,-1216.0
1.0075,-15936.0,-4608.0,-1216.0
1.01,-16000.0,-4544.0,-1216.0
1.0125,-15936.0,-4544.0,-1152.0
1.015,-15936.0,-4608.0,-1216.0
1.0175,-16000.0,-4544.0,-1152.0
1.02,-15936.0,-4480.0,-1152.0
1.0225,-16000.0,-4480.0,-1088.0
1.025,-16000.0,-4480.0,-1152.0
1.0275,-16000.0,-4544.0,-1216.0
1.03,-16000.0,-4480.0,-1152.0
1.0325,-16000.0,-4480.0,-1088.0
1.035,-16000.0,-4544.0,-1088.0
1.0375,-16000.0,-4544.0,-1088.0
1.04,-16064.0,-4672.0,-1152.0
1.0425,-16064.0,-4608.0,-1088.0
1.045,-16128.0,-4544.0,-1088.0
1.0475,-16128.0,-4608.0,-1088.0
1.05,-16064.0,-4544.0,-1088.0
1.0525,-16064.0,-4544.0,-1088.0
1.055,-16064.0,-4480.0,-1088.0
1.0575,-16064.0,-4480.0,-1088.0
1.06,-16064.0,-4544.0,-1088.0
1.0625,-16064.0,-4672.0,-1152.0
1.065,-16064.0,-4672.0,-1152.0
1.0675,-15936.0,-4544.0,-1152.0
1.07,-15936.0,-4608.0,-1216.0
1.0725,-16000.0,-4544.0,-1216.0
1.075,-15936.0,-4544.0,-1216.0
1.0775,-16000.0,-4544.0,-1216.0
1.08,-16000.0,-4544.0,-1216.0
1.0825,-16000.0,-4544.0,-1216.0
1.085,-16000.0,-4544.0,-1216.0
1.0875,-16000.0,-4544.0,-1216.0
1.09,-16064.0,-4480.0,-1280.0
1.0925,-16064.0,-4544.0,-1216.0
1.095,-16064.0,-4544.0,-1216.0
1.0975,-16064.0,-4544.0,-1216.0
1.1,-16064.0,-4480.0,-1280.0
1.1025,-16064.0,-4416.0,-1216.0
1.105,-16064.0,-4480.0,-1216.0
1.1075,-16064.0,-4416.0,-1152.0
1.11,-16000.0,-4480.0,-1152.0
1.1125,-16000.0,-4480.0,-1216.0
1.115,-15936.0,-4480.0,-1152.0
1.1175,-16000.0,-4544.0,-1088.0
1.12,-16000.0,-4416.0,-1024.0
1.1225,-15936.0,-4416.0,-960.0
1.125,-15936.0,-4480.0,-1088.0
1.1275,-15936.0,-4352.0,-1088.0
1.13,-15936.0,-4416.0,-1088.0
1.1325,-16000.0,-4416.0,-1088.0
1.135,-15936.0,-4352.0,-1024.0
1.1375,-15872.0,-4352.0,-1024.0
1.14,-15936.0,-4416.0,-1024.0
1.1425,-15936.0,-4352.0,-1024.0
1.145,-16000.0,-4416.0,-960.0
1.1475,-16000.0,-4416.0,-960.0
1.15,-15936.0,-4352.0,-960.0
1.1525,-15936.0,-4352.0,-1024.0
1.155,-15872.0,-4352.0,-960.0
1.1575,-15872.0,-4352.0,-960.0
1.16,-15936.0,-4288.0,-960.0
1.1625,-15872.0,-4352.0,-960.0
1.165,-15872.0,-4352.0,-960.0
1.1675,-15872.0,-4416.0,-1024.0
1.17,-15936.0,-4416.0,-896.0
1.1725,-15936.0,-4352.0,-896.0
1.175,-15936.0,-4288.0,-896.0
1.1775,-15936.0,-4288.0,-832.0
1.18,-15936.0,-4224.0,-832.0
1.1825,-15936.0,-4288.0,-768.0
1.185,-15936.0,-4288.0,-768.0
1.1875,-15936.0,-4288.0,-704.0
1.19,-15936.0,-4224.0,-768.0
1.1925,-15872.0,-4288.0,-768.0
1.195,-15872.0,-4288.0,-768.0
1.1975,-15936.0,-4352.0,-768.0
1.2,-15872.0,-4352.0,-768.0
1.2025,-15872.0,-4352.0,-832.0
1.205,-15936.0,-4352.0,-832.0
1.2075,-15936.0,-4288.0,-768.0
1.21,-16000.0,-4352.0,-832.0
1.2125,-16000.0,-4288.0,-832.0
1.215,-16000.0,-4288.0,-832.0
1.2175,-15936.0,-4288.0,-832.0
1.22,-16000.0,-4288.0,-896.0
1.2225,-16000.0,-4288.0,-768.0
1.225,-16000.0,-4288.0,-768.0
1.2275,-16064.0,-4288.0,-768.0
1.23,-16064.0,-4288.0,-768.0
1.2325,-16128.0,-4288.0,-768.0
1.235,-16128.0,-4352.0,-768.0
1.2375,-16128.0,-4288.0,-768.0
1.24,-16128.0,-4288.0,-704.0
1.2425,-16128.0,-4288.0,-768.0
1.245,-16192.0,-4288.0,-768.0
1.2475,-16192.0,-4352.0,-768.0
1.25,-16192.0,-4288.0,-768.0
1.2525,-16192.0,-4352.0,-704.0
1.255,-16192.0,-4288.0,-768.0
1.2575,-16256.0,-4224.0,-768.0
1.26,-16256.0,-4224.0,-768.0
1.2625,-16256.0,-4160.0,-768.0
1.265,-16320.0,-4160.0,-640.0
1.2675,-16256.0,-4224.0,-640.0
1.27,-16256.0,-4160.0,-640.0
1.2725,-16192.0,-4224.0,-704.0
1.275,-16192.0,-4224.0,-704.0
1.2775,-16256.0,-4288.0,-704.0
1.28,-16256.0,-4288.0,-704.0
1.2825,-16192.0,-4224.0,-704.0
1.285,-16192.0,-4224.0,-704.0
1.2875,-16192.0,-4160.0,-640.0
1.29,-16192.0,-4160.0,-704.0
1.2925,-16192.0,-4160.0,-768.0
1.295,-16192.0,-4160.0,-768.0
1.2975,-16192.0,-4160.0,-768.0
1.3,-16192.0,-4160.0,-768.0
1.3025,-16192.0,-4224.0,-832.0
1.305,-16128.0,-4224.0,-768.0
1.3075,-16192.0,-4160.0,-832.0
1.31,-16256.0,-4224.0,-832.0
1.3125,-16256.0,-4160.0,-768.0
1.315,-16192.0,-4160.0,-832.0
1.3175,-16192.0,-4160.0,-704.0
1.32,-16192.0,-4160.0,-704.0
1.3225,-16192.0,-4224.0,-704.0
1.325,-16128.0,-4160.0,-704.0
1.3275,-16128.0,-4224.0,-704.0
1.33,-16128.0,-4160.0,-768.0
1.3325,-16128.0,-4224.0,-768.0
1.335,-16128.0,-4160.0,-704.0
1.3375,-16128.0,-4160.0,-640.0
1.34,-16128.0,-4160.0,-640.0
1.3425,-16128.0,-4160.0,-576.0
1.345,-16192.0,-4096.0,-576.0
1.3475,-16064.0,-4096.0,-576.0
1.35,-16064.0,-4096.0,-576.0
1.3525,-16064.0,-4160.0,-576.0
1.355,-16000.0,-4160.0,-576.0
1.3575,-16064.0,-4096.0,-512.0
1.36,-16000.0,-4096.0,-512.0
1.3625,-16000.0,-4096.0,-576.0
1.365,-16000.0,-4096.0,-640.0
1.3675,-16064.0,-4096.0,-640.0
1.37,-16000.0,-4096.0,-576.0
1.3725,-16000.0,-4032.0,-512.0
1.375,-16000.0,-4096.0,-576.0
1.3775,-16000.0,-4032.0,-512.0
1.38,-16000.0,-4032.0,-512.0
1.3825,-16000.0,-4032.0,-448.0
1.385,-15936.0,-4160.0,-512.0
1.3875,-16000.0,-4160.0,-640.0
1.39,-15872.0,-4160.0,-576.0
1.3925,-15872.0,-4160.0,-576.0
1.395,-15936.0,-4160.0,-640.0
1.3975,-15936.0,-4160.0,-640.0
1.4,-15936.0,-4160.0,-640.0
1.4025,-15936.0,-4160.0,-576.0
1.405,-15936.0,-4160.0,-576.0
1.4075,-15936.0,-4160.0,-576.0
1.41,-15936.0,-4160.0,-640.0
1.4125,-15872.0,-4160.0,-704.0
1.415,-15936.0,-4160.0,-640.0
1.4175,-16000.0,-4160.0,-640.0
1.42,-15936.0,-4160.0,-640.0
1.4225,-15936.0,-4160.0,-640.0
1.425,-15936.0,-4160.0,-640.0
1.4275,-15872.0,-4160.0,-640.0
1.43,-15872.0,-4160.0,-640.0
1.4325,-15872.0,-4160.0,-704.0
1.435,-15872.0,-4160.0,-704.0
1.4375,-15872.0,-4160.0,-640.0
1.44,-15936.0,-4160.0,-640.0
1.4425,-15936.0,-4224.0,-640.0
1.445,-15936.0,-4160.0,-704.0
1.4475,-15872.0,-4224.0,-704.0
1.45,-15872.0,-4160.0,-704.0
1.4525,-15872.0,-4224.0,-640.0
1.455,-15872.0,-4224.0,-704.0
1.4575,-15936.0,-4224.0,-768.0
1.46,-15936.0,-4224.0,-704.0
1.4625,-15936.0,-4224.0,-704.0
1.465,-15936.0,-4288.0,-704.0
1.4675,-15936.0,-4288.0,-704.0
1.47,-15936.0,-4224.0,-704.0
1.4725,-15936.0,-4224.0,-768.0
1.475,-15872.0,-4224.0,-832.0
1.4775,-16000.0,-4224.0,-832.0
1.48,-16000.0,-4224.0,-768.0
1.4825,-16000.0,-4288.0,-768.0
1.485,-15936.0,-4288.0,-832.0
1.4875,-16000.0,-4224.0,-896.0
1.49,-15936.0,-4224.0,-832.0
1.4925,-15936.0,-4160.0,-896.0
1.495,-15936.0,-4160.0,-960.0
1.4975,-16000.0,-4224.0,-896.0
1.5,-15936.0,-4224.0,-896.0
1.5025,-16000.0,-4224.0,-960.0
1.505,-16000.0,-4224.0,-960.0
1.5075,-15936.0,-4160.0,-896.0
1.51,-15936.0,-4224.0,-896.0
1.5125,-16000.0,-4224.0,-960.0
1.515,-15936.0,-4224.0,-960.0
1.5175,-15936.0,-4224.0,-896.0
1.52,-16000.0,-4224.0,-960.0
1.5225,-16000.0,-4224.0,-960.0
1.525,-16000.0,-4224.0,-960.0
1.5275,-16000.0,-4224.0,-1024.0
1.53,-16000.0,-4288.0,-1024.0
1.5325,-16064.0,-4288.0,-1024.0
1.535,-16000.0,-4352.0,-1088.0
1.5375,-16000.0,-4288.0,-1024.0
1.54,-16064.0,-4224.0,-1024.0
1.5425,-16064.0,-4288.0,-1088.0
1.545,-16064.0,-4288.0,-1024.0
1.5475,-16000.0,-4288.0,-1088.0
1.55,-16000.0,-4224.0,-1088.0
1.5525,-16064.0,-4288.0,-1024.0
1.555,-16128.0,-4288.0,-1088.0
1.5575,-16064.0,-4224.0,-1088.0
1.56,-16064.0,-4288.0,-1152.0
1.5625,-16064.0,-4288.0,-1152.0
1.565,-16064.0,-4288.0,-1152.0
1.5675,-16064.0,-4288.0,-1152.0
1.57,-16000.0,-4288.0,-1088.0
1.5725,-16064.0,-4288.0,-1088.0
1.575,-16064.0,-4224.0,-1088.0
1.5775,-16064.0,-4224.0,-1088.0
1.58,-16064.0,-4288.0,-1088.0
1.5825,-16064.0,-4288.0,-1216.0
1.585,-16000.0,-4224.0,-1152.0
1.5875,-16000.0,-4224.0,-1152.0
1.59,-16000.0,-4224.0,-1152.0
1.5925,-16000.0,-4352.0,-1088.0
1.595,-16000.0,-4352.0,-1088.0
1.5975,-16064.0,-4288.0,-1152.0
1.6,-16000.0,-4352.0,-1152.0
1.6025,-16000.0,-4416.0,-1216.0
1.605,-15936.0,-4352.0,-1152.0
1.6075,-15936.0,-4416.0,-1152.0
1.61,-15936.0,-4352.0,-1152.0
1.6125,-15936.0,-4416.0,-1152.0
1.615,-15936.0,-4416.0,-1216.0
1.6175,-15936.0,-4416.0,-1152.0
1.62,-16000.0,-4416.0,-1216.0
1.6225,-16000.0,-4352.0,-1216.0
1.625,-16000.0,-4352.0,-1216.0
1.6275,-16000.0,-4416.0,-1152.0
1.63,-16000.0,-4352.0,-1088.0
1.6325,-15936.0,-4416.0,-1152.0
1.635,-15872.0,-4416.0,-1152.0
1.6375,-15936.0,-4416.0,-1216.0
1.64,-15936.0,-4480.0,-1152.0
1.6425,-15936.0,-4480.0,-1152.0
1.645,-15936.0,-4416.0,-1088.0
1.6475,-16000.0,-4416.0,-1216.0
1.65,-16000.0,-4480.0,-1152.0
1.6525,-15936.0,-4480.0,-1152.0
1.655,-15936.0,-4480.0,-1152.0
1.6575,-15936.0,-4480.0,-1152.0
1.66,-15936.0,-4480.0,-1152.0
1.6625,-16000.0,-4480.0,-1088.0
1.665,-16000.0,-4480.0,-1088.0
1.6675,-16000.0,-4544.0,-1024.0
1.67,-15936.0,-4480.0,-1088.0
1.6725,-15872.0,-4544.0,-1152.0
1.675,-15936.0,-4544.0,-1088.0
1.6775,-15872.0,-4544.0,-1024.0
1.68,-15872.0,-4608.0,-1088.0
1.6825,-15936.0,-4608.0,-1088.0
1.685,-15872.0,-4544.0,-1088.0
1.6875,-15872.0,-4608.0,-1024.0
1.69,-15872.0,-4608.0,-1024.0
1.6925,-15872.0,-4608.0,-1088.0
1.695,-15872.0,-4608.0,-1024.0
1.6975,-15872.0,-4608.0,-1088.0
1.7,-15872.0,-4672.0,-1216.0
1.7025,-15872.0,-4672.0,-1152.0
1.705,-15872.0,-4736.0,-1152.0
1.7075,-15872.0,-4736.0,-1216.0
1.71,-15808.0,-4736.0,-1088.0
1.7125,-15872.0,-4736.0,-1152.0
1.715,-15872.0,-4736.0,-1088.0
1.7175,-15872.0,-4800.0,-1088.0
1.72,-15808.0,-4736.0,-1152.0
1.7225,-15808.0,-4736.0,-1088.0
1.725,-15808.0,-4800.0,-1152.0
1.7275,-15808.0,-4800.0,-1152.0
1.73,-15872.0,-4736.0,-1152.0
1.7325,-15872.0,-4800.0,-1152.0
1.735,-15808.0,-4736.0,-1088.0
1.7375,-15808.0,-4736.0,-1152.0
1.74,-15808.0,-4800.0,-1152.0
1.7425,-15872.0,-4800.0,-1152.0
1.745,-15872.0,-4800.0,-1152.0
1.7475,-15936.0,-4800.0,-1088.0
1.75,-15936.0,-4800.0,-1152.0
1.7525,-15872.0,-4800.0,-1088.0
1.755,-15936.0,-4800.0,-1152.0
1.7575,-15936.0,-4800.0,-1088.0
1.76,-15872.0,-4800.0,-1152.0
1.7625,-15936.0,-4864.0,-1152.0
1.765,-15936.0,-4800.0,-1088.0
1.7675,-16000.0,-4800.0,-1024.0
1.77,-15936.0,-4800.0,-1088.0
1.7725,-16000.0,-4800.0,-1088.0
1.775,-16000.0,-4800.0,-1024.0
1.7775,-15936.0,-4736.0,-1024.0
1.78,-15936.0,-4736.0,-1024.0
1.7825,-16000.0,-4736.0,-1024.0
1.785,-16000.0,-4736.0,-1024.0
1.7875,-16000.0,-4672.0,-1024.0
1.79,-16000.0,-4672.0,-1024.0
1.7925,-15936.0,-4672.0,-960.0
1.795,-16000.0,-4736.0,-960.0
1.7975,-16064.0,-4672.0,-1024.0
1.8,-16064.0,-4736.0,-960.0
1.8025,-16128.0,-4736.0,-960.0
1.805,-16064.0,-4672.0,-896.0
1.8075,-16064.0,-4736.0,-896.0
1.81,-16128.0,-4672.0,-896.0
1.8125,-16192.0,-4672.0,-960.0
1.815,-16128.0,-4672.0,-960.0
1.8175,-16064.0,-4608.0,-896.0
1.82,-16064.0,-4736.0,-960.0
1.8225,-16128.0,-4672.0,-960.0
1.825,-16064.0,-4672.0,-960.0
1.8275,-16128.0,-4608.0,-1024.0
1.83,-16064.0,-4608.0,-1024.0
1.8325,-16064.0,-4672.0,-1024.0
1.835,-16064.0,-4608.0,-1024.0
1.8375,-16128.0,-4672.0,-1024.0
1.84,-16128.0,-4544.0,-1024.0
1.8425,-16128.0,-4544.0,-1088.0
1.845,-16064.0,-4544.0,-1024.0
1.8475,-16128.0,-4480.0,-1024.0
1.85,-16064.0,-4480.0,-1024.0
1.8525,-16128.0,-4544.0,-1024.0
1.855,-16064.0,-4480.0,-1024.0
1.8575,-16064.0,-4544.0,-960.0
1.86,-16000.0,-4608.0,-960.0
1.8625,-16000.0,-4608.0,-960.0
1.865,-16000.0,-4608.0,-960.0
1.8675,-16000.0,-4544.0,-960.0
1.87,-15936.0,-4544.0,-896.0
1.8725,-15936.0,-4480.0,-960.0
1.875,-15872.0,-4480.0,-960.0
1.8775,-15936.0,-4416.0,-960.0
1.88,-15872.0,-4416.0,-960.0
1.8825,-15872.0,-4352.0,-896.0
1.885,-15936.0,-4352.0,-896.0
1.8875,-15872.0,-4352.0,-896.0
1.89,-15936.0,-4352.0,-896.0
1.8925,-15872.0,-4352.0,-832.0
1.895,-15808.0,-4352.0,-960.0
1.8975,-15808.0,-4288.0,-896.0
1.9,-15872.0,-4352.0,-896.0
1.9025,-15872.0,-4288.0,-960.0
1.905,-15872.0,-4288.0,-960.0
1.9075,-15808.0,-4224.0,-960.0
1.91,-15808.0,-4288.0,-896.0
1.9125,-15808.0,-4224.0,-960.0
1.915,-15808.0,-4288.0,-896.0
1.9175,-15872.0,-4288.0,-896.0
1.92,-15872.0,-4288.0,-896.0
1.9225,-15872.0,-4224.0,-896.0
1.925,-15872.0,-4224.0,-832.0
1.9275,-15872.0,-4224.0,-832.0
1.93,-15808.0,-4288.0,-832.0
1.9325,-15872.0,-4224.0,-832.0
1.935,-15872.0,-4224.0,-896.0
1.9375,-15872.0,-4224.0,-896.0
1.94,-15808.0,-4224.0,-896.0
1.9425,-15808.0,-4160.0,-896.0
1.945,-15808.0,-4224.0,-960.0
1.9475,-15808.0,-4224.0,-832.0
1.95,-15808.0,-4224.0,-832.0
1.9525,-15808.0,-4224.0,-896.0
1.955,-15808.0,-4160.0,-896.0
1.9575,-15808.0,-4160.0,-896.0
1.96,-15808.0,-4224.0,-896.0
1.9625,-15808.0,-4224.0,-896.0
1.965,-15808.0,-4224.0,-832.0
1.9675,-15872.0,-4224.0,-960.0
1.97,-15936.0,-4224.0,-960.0
1.9725,-15936.0,-4224.0,-896.0
1.975,-15872.0,-4160.0,-896.0
1.9775,-15872.0,-4160.0,-896.0
1.98,-15936.0,-4224.0,-896.0
1.9825,-15936.0,-4224.0,-896.0
1.985,-15936.0,-4160.0,-896.0
1.9875,-15936.0,-4224.0,-832.0
1.99,-15872.0,-4224.0,-832.0
1.9925,-15936.0,-4160.0,-896.0
1.995,-15872.0,-4096.0,-768.0
1.9975,-15936.0,-4096.0,-768.0
2.0,-15936.0,-4160.0,-768.0
2.0025,-15936.0,-4160.0,-896.0
2.005,-15936.0,-4160.0,-896.0
2.0075,-15872.0,-4224.0,-896.0
2.01,-15936.0,-4160.0,-896.0
2.0125,-15936.0,-4224.0,-896.0
2.015,-16000.0,-4224.0,-960.0
2.0175,-16000.0,-4224.0,-960.0
2.02,-16000.0,-4224.0,-960.0
2.0225,-16000.0,-4224.0,-960.0
2.025,-16064.0,-4224.0,-896.0
2.0275,-16000.0,-4288.0,-960.0
2.03,-16064.0,-4288.0,-960.0
2.0325,-16000.0,-4288.0,-960.0
2.035,-16000.0,-4288.0,-960.0
2.0375,-16000.0,-4288.0,-960.0
2.04,-16064.0,-4352.0,-960.0
2.0425,-16000.0,-4352.0,-1024.0
2.045,-16000.0,-4288.0,-1024.0
2.0475,-16064.0,-4352.0,-1024.0
2.05,-16128.0,-4288.0,-960.0
2.0525,-16064.0,-4352.0,-960.0
2.055,-16064.0,-4352.0,-960.0
2.0575,-16064.0,-4352.0,-960.0
2.06,-16064.0,-4352.0,-960.0
2.0625,-16064.0,-4352.0,-960.0
2.065,-16064.0,-4352.0,-960.0
2.0675,-16064.0,-4416.0,-960.0
2.07,-16064.0,-4416.0,-960.0
2.0725,-16000.0,-4416.0,-1024.0
2.075,-16064.0,-4480.0,-960.0
2.0775,-16064.0,-4480.0,-960.0
2.08,-16128.0,-4480.0,-960.0
2.0825,-16064.0,-4480.0,-1088.0
2.085,-16128.0,-4480.0,-1088.0
2.0875,-16064.0,-4480.0,-1024.0
2.09,-16064.0,-4480.0,-1024.0
2.0925,-16064.0,-4480.0,-1024.0
2.095,-16064.0,-4480.0,-1024.0
2.0975,-16064.0,-4544.0,-1152.0
2.1,-16064.0,-4544.0,-960.0
2.1025,-16064.0,-4480.0,-1024.0
2.105,-16064.0,-4480.0,-1088.0
2.1075,-16064.0,-4544.0,-960.0
2.11,-16064.0,-4608.0,-1024.0
2.1125,-16064.0,-4608.0,-1024.0
2.115,-16000.0,-4608.0,-1024.0
2.1175,-16064.0,-4544.0,-960.0
2.12,-16128.0,-4608.0,-960.0
2.1225,-16064.0,-4608.0,-960.0
2.125,-16000.0,-4672.0,-960.0
2.1275,-16000.0,-4608.0,-960.0
2.13,-16000.0,-4672.0,-960.0
2.1325,-16000.0,-4608.0,-832.0
2.135,-16000.0,-4672.0,-832.0
2.1375,-16000.0,-4672.0,-832.0
2.14,-16064.0,-4672.0,-832.0
2.1425,-16000.0,-4672.0,-768.0
2.145,-15936.0,-4608.0,-832.0
2.1475,-15936.0,-4608.0,-832.0
2.15,-15936.0,-4608.0,-768.0
2.1525,-15936.0,-4672.0,-832.0
2.155,-15936.0,-4672.0,-896.0
2.1575,-15936.0,-4672.0,-832.0
2.16,-15872.0,-4608.0,-832.0
2.1625,-15872.0,-4608.0,-832.0
2.165,-15872.0,-4608.0,-832.0
2.1675,-15872.0,-4608.0,-832.0
2.17,-15872.0,-4608.0,-768.0
2.1725,-15808.0,-4608.0,-768.0
2.175,-15808.0,-4544.0,-768.0
2.1775,-15808.0,-4608.0,-768.0
2.18,-15872.0,-4608.0,-768.0
2.1825,-15808.0,-4608.0,-832.0
2.185,-15808.0,-4544.0,-896.0
2.1875,-15808.0,-4608.0,-896.0
2.19,-15808.0,-4608.0,-896.0
2.1925,-15808.0,-4672.0,-896.0
2.195,-15808.0,-4672.0,-896.0
2.1975,-15808.0,-4608.0,-896.0
2.2,-15808.0,-4608.0,-832.0
2.2025,-15808.0,-4608.0,-832.0
2.205,-15808.0,-4544.0,-896.0
2.2075,-15808.0,-4544.0,-896.0
2.21,-15808.0,-4608.0,-832.0
2.2125,-15808.0,-4608.0,-832.0
2.215,-15808.0,-4608.0,-896.0
2.2175,-15808.0,-4544.0,-960.0
2.22,-15808.0,-4544.0,-1024.0
2.2225,-15808.0,-4480.0,-960.0
2.225,-15808.0,-4480.0,-896.0
2.2275,-15808.0,-4480.0,-896.0
2.23,-15808.0,-4416.0,-896.0
2.2325,-15808.0,-4416.0,-896.0
2.235,-15808.0,-4480.0,-896.0
2.2375,-15808.0,-4480.0,-960.0
2.24,-15808.0,-4480.0,-832.0
2.2425,-15744.0,-4480.0,-896.0
2.245,-15808.0,-4544.0,-896.0
2.2475,-15808.0,-4544.0,-1024.0
2.25,-15808.0,-4480.0,-960.0
2.2525,-15808.0,-4544.0,-960.0
2.255,-15808.0,-4544.0,-960.0
2.2575,-15872.0,-4544.0,-960.0
2.26,-15872.0,-4544.0,-960.0
2.2625,-15872.0,-4544.0,-1024.0
2.265,-15872.0,-4544.0,-960.0
2.2675,-15872.0,-4544.0,-960.0
2.27,-15808.0,-4544.0,-1024.0
2.2725,-15872.0,-4480.0,-1088.0
2.275,-15872.0,-4480.0,-1088.0
2.2775,-15872.0,-4480.0,-1024.0
2.28,-15936.0,-4480.0,-1024.0
2.2825,-15872.0,-4416.0,-1024.0
2.285,-15872.0,-4480.0,-960.0
2.2875,-15936.0,-4480.0,-960.0
2.29,-15872.0,-4416.0,-960.0
2.2925,-15872.0,-4416.0,-1024.0
2.295,-15872.0,-4480.0,-1088.0
2.2975,-15936.0,-4480.0,-1024.0
2.3,-15936.0,-4480.0,-1088.0
2.3025,-15872.0,-4480.0,-1088.0
2.305,-15936.0,-4480.0,-1088.0
2.3075,-15936.0,-4480.0,-1088.0
2.31,-15936.0,-4480.0,-1088.0
2.3125,-16000.0,-4544.0,-1088.0
2.315,-15936.0,-4544.0,-1088.0
2.3175,-16000.0,-4544.0,-1088.0
2.32,-16000.0,-4544.0,-1088.0
2.3225,-16000.0,-4544.0,-1088.0
2.325,-16000.0,-4480.0,-1088.0
2.3275,-16000.0,-4416.0,-1088.0
2.33,-16064.0,-4480.0,-1152.0
2.3325,-16064.0,-4416.0,-1088.0
2.335,-16064.0,-4416.0,-1088.0
2.3375,-16000.0,-4416.0,-1024.0
2.34,-16064.0,-4416.0,-1088.0
2.3425,-16064.0,-4480.0,-1088.0
2.345,-16064.0,-4416.0,-1088.0
2.3475,-16064.0,-4416.0,-1088.0
2.35,-16064.0,-4416.0,-1152.0
2.3525,-16064.0,-4480.0,-1152.0
2.355,-16064.0,-4416.0,-1088.0
2.3575,-16064.0,-4352.0,-1088.0
2.36,-16064.0,-4416.0,-1024.0
2.3625,-16000.0,-4416.0,-1024.0
2.365,-16064.0,-4416.0,-1024.0
2.3675,-16064.0,-4416.0,-1024.0
2.37,-16064.0,-4352.0,-1024.0
2.3725,-16064.0,-4416.0,-1088.0
2.375,-16000.0,-4416.0,-1024.0
2.3775,-16000.0,-4416.0,-1088.0
2.38,-16000.0,-4352.0,-1024.0
2.3825,-16000.0,-4352.0,-1024.0
2.385,-16000.0,-4352.0,-1024.0
2.3875,-16000.0,-4352.0,-1024.0
2.39,-16000.0,-4352.0,-1024.0
2.3925,-15936.0,-4416.0,-1024.0
2.395,-16000.0,-4416.0,-1024.0
2.3975,-16000.0,-4352.0,-1024.0
2.4,-15936.0,-4352.0,-1024.0
2.4025,-16000.0,-4352.0,-1024.0
2.405,-16000.0,-4352.0,-1088.0
2.4075,-16000.0,-4416.0,-1088.0
2.41,-16000.0,-4416.0,-1088.0
2.4125,-16000.0,-4352.0,-1088.0
2.415,-15872.0,-4288.0,-1088.0
2.4175,-16000.0,-4288.0,-1024.0
2.42,-15936.0,-4352.0,-1024.0
2.4225,-15936.0,-4288.0,-1024.0
2.425,-16000.0,-4288.0,-1024.0
2.4275,-16000.0,-4352.0,-960.0
2.43,-16000.0,-4352.0,-960.0
2.4325,-16064.0,-4288.0,-960.0
2.435,-16000.0,-4288.0,-960.0
2.4375,-16064.0,-4288.0,-896.0
2.44,-16128.0,-4288.0,-960.0
2.4425,-16000.0,-4288.0,-896.0
2.445,-16000.0,-4288.0,-896.0
2.4475,-16064.0,-4288.0,-896.0
2.45,-16064.0,-4288.0,-896.0
2.4525,-16064.0,-4288.0,-896.0
2.455,-16064.0,-4288.0,-896.0
2.4575,-16000.0,-4288.0,-832.0
2.46,-16000.0,-4288.0,-832.0
2.4625,-16000.0,-4288.0,-832.0
2.465,-15936.0,-4224.0,-768.0
2.4675,-15936.0,-4224.0,-832.0
2.47,-15936.0,-4288.0,-832.0
2.4725,-15936.0,-4224.0,-832.0
2.475,-15936.0,-4224.0,-768.0
2.4775,-15936.0,-4224.0,-768.0
2.48,-15872.0,-4288.0,-768.0
2.4825,-15936.0,-4288.0,-704.0
2.485,-15936.0,-4288.0,-704.0
2.4875,-15936.0,-4224.0,-704.0
2.49,-15936.0,-4288.0,-768.0
2.4925,-15872.0,-4224.0,-768.0
2.495,-15872.0,-4224.0,-768.0
2.4975,-15872.0,-4224.0,-704.0
2.5,-15872.0,-4288.0,-704.0
2.5025,-15936.0,-4288.0,-704.0
2.505,-15936.0,-4288.0,-704.0
2.5075,-15936.0,-4288.0,-640.0
2.51,-15936.0,-4224.0,-640.0
2.5125,-15936.0,-4224.0,-704.0
2.515,-15872.0,-4288.0,-704.0
2.5175,-15872.0,-4352.0,-704.0
2.52,-15872.0,-4288.0,-576.0
2.5225,-15872.0,-4288.0,-576.0
2.525,-15936.0,-4352.0,-640.0
2.5275,-15936.0,-4352.0,-640.0
2.53,-15872.0,-4288.0,-704.0
2.5325,-15872.0,-4288.0,-704.0
2.535,-15936.0,-4288.0,-640.0
2.5375,-16000.0,-4288.0,-640.0
2.54,-15936.0,-4288.0,-704.0
2.5425,-16000.0,-4288.0,-640.0
2.545,-15936.0,-4288.0,-640.0
2.5475,-15936.0,-4288.0,-704.0
2.55,-15872.0,-4288.0,-704.0
2.5525,-15872.0,-4288.0,-704.0
2.555,-15872.0,-4352.0,-704.0
2.5575,-15872.0,-4288.0,-704.0
2.56,-15872.0,-4288.0,-704.0
2.5625,-15936.0,-4288.0,-704.0
2.565,-15936.0,-4352.0,-640.0
2.5675,-15872.0,-4288.0,-640.0
2.57,-15808.0,-4352.0,-704.0
2.5725,-15872.0,-4288.0,-640.0
2.575,-15872.0,-4352.0,-704.0
2.5775,-15872.0,-4352.0,-704.0
2.58,-15872.0,-4352.0,-704.0
2.5825,-15872.0,-4352.0,-704.0
2.585,-15872.0,-4352.0,-704.0
2.5875,-15872.0,-4352.0,-704.0
2.59,-15872.0,-4352.0,-640.0
2.5925,-15872.0,-4352.0,-704.0
2.595,-15936.0,-4416.0,-704.0
2.5975,-15936.0,-4480.0,-704.0
2.6,-15936.0,-4480.0,-640.0
2.6025,-15936.0,-4480.0,-704.0
2.605,-15872.0,-4480.0,-768.0
2.6075,-15936.0,-4416.0,-704.0
2.61,-15936.0,-4416.0,-704.0
2.6125,-16000.0,-4416.0,-704.0
2.615,-15936.0,-4416.0,-768.0
2.6175,-15872.0,-4416.0,-768.0
2.62,-15872.0,-4416.0,-768.0
2.6225,-15936.0,-4416.0,-832.0
2.625,-15936.0,-4416.0,-832.0
2.6275,-16000.0,-4352.0,-896.0
2.63,-16000.0,-4416.0,-896.0
2.6325,-16000.0,-4480.0,-832.0
2.635,-16000.0,-4480.0,-896.0
2.6375,-16000.0,-4480.0,-896.0
2.64,-16064.0,-4480.0,-960.0
2.6425,-16000.0,-4544.0,-896.0
2.645,-16000.0,-4608.0,-960.0
2.6475,-16000.0,-4608.0,-896.0
2.65,-16000.0,-4544.0,-896.0
2.6525,-15936.0,-4608.0,-896.0
2.655,-15936.0,-4608.0,-832.0
2.6575,-16000.0,-4672.0,-832.0
2.66,-16000.0,-4608.0,-768.0
2.6625,-16000.0,-4608.0,-896.0
2.665,-16000.0,-4608.0,-960.0
2.6675,-16000.0,-4608.0,-960.0
2.67,-16000.0,-4608.0,-960.0
2.6725,-16000.0,-4608.0,-960.0
2.675,-15936.0,-4608.0,-896.0
2.6775,-15936.0,-4608.0,-896.0
2.68,-15936.0,-4608.0,-960.0
2.6825,-15936.0,-4608.0,-960.0
2.685,-15936.0,-4672.0,-1024.0
2.6875,-15936.0,-4608.0,-960.0
2.69,-15936.0,-4608.0,-960.0
2.6925,-15936.0,-4608.0,-960.0
2.695,-15936.0,-4544.0,-1024.0
2.6975,-15936.0,-4608.0,-1024.0
2.7,-15936.0,-4608.0,-960.0
2.7025,-15872.0,-4608.0,-1024.0
2.705,-15872.0,-4544.0,-1088.0
2.7075,-15872.0,-4544.0,-960.0
2.71,-15872.0,-4608.0,-1024.0
2.7125,-15936.0,-4608.0,-1024.0
2.715,-15872.0,-4544.0,-1024.0
2.7175,-15872.0,-4544.0,-1024.0
2.72,-15872.0,-4608.0,-1024.0
2.7225,-15936.0,-4544.0,-1088.0
2.725,-15936.0,-4544.0,-960.0
2.7275,-15872.0,-4544.0,-896.0
2.73,-15936.0,-4608.0,-960.0
2.7325,-15936.0,-4544.0,-960.0
2.735,-15872.0,-4544.0,-1024.0
2.7375,-15936.0,-4608.0,-960.0
2.74,-15872.0,-4608.0,-1024.0
2.7425,-15872.0,-4608.0,-1024.0
2.745,-15936.0,-4544.0,-1024.0
2.7475,-15936.0,-4544.0,-1024.0
2.75,-15936.0,-4608.0,-1024.0
2.7525,-15936.0,-4608.0,-1088.0
2.755,-15936.0,-4672.0,-1088.0
2.7575,-15936.0,-4672.0,-1088.0
2.76,-15936.0,-4608.0,-1024.0
2.7625,-15936.0,-4608.0,-1024.0
2.765,-15872.0,-4608.0,-1024.0
2.7675,-15872.0,-4608.0,-1024.0
2.77,-15936.0,-4608.0,-1088.0
2.7725,-15936.0,-4672.0,-1088.0
2.775,-15936.0,-4544.0,-1024.0
2.7775,-15936.0,-4544.0,-1024.0
2.78,-16000.0,-4608.0,-1024.0
2.7825,-15936.0,-4608.0,-1088.0
2.785,-15936.0,-4544.0,-1088.0
2.7875,-15936.0,-4608.0,-1088.0
2.79,-15936.0,-4608.0,-1088.0
2.7925,-16000.0,-4608.0,-1024.0
2.795,-16000.0,-4544.0,-1088.0
2.7975,-16000.0,-4544.0,-1152.0
2.8,-16000.0,-4544.0,-832.0
2.8025,-16000.0,-4544.0,-1024.0
2.805,-16064.0,-4544.0,-960.0
2.8075,-16064.0,-4544.0,-960.0
2.81,-16064.0,-4544.0,-960.0
2.8125,-16064.0,-4544.0,-960.0
2.815,-16000.0,-4544.0,-960.0
2.8175,-16064.0,-4544.0,-960.0
2.82,-16064.0,-4544.0,-960.0
2.8225,-16000.0,-4544.0,-896.0
2.825,-16064.0,-4544.0,-896.0
2.8275,-16064.0,-4544.0,-960.0
2.83,-16000.0,-4544.0,-960.0
2.8325,-15936.0,-4544.0,-896.0
2.835,-16000.0,-4544.0,-896.0
2.8375,-16000.0,-4480.0,-896.0
2.84,-16000.0,-4544.0,-896.0
2.8425,-16000.0,-4544.0,-960.0
2.845,-16000.0,-4544.0,-960.0
2.8475,-16000.0,-4544.0,-896.0
2.85,-16000.0,-4544.0,-896.0
2.8525,-16000.0,-4544.0,-832.0
2.855,-16000.0,-4480.0,-832.0
2.8575,-16000.0,-4480.0,-768.0
2.86,-16064.0,-4480.0,-832.0
2.8625,-15936.0,-4480.0,-768.0
2.865,-15936.0,-4480.0,-832.0
2.8675,-16000.0,-4480.0,-832.0
2.87,-15936.0,-4480.0,-832.0
2.8725,-15936.0,-4480.0,-832.0
2.875,-15936.0,-4480.0,-768.0
2.8775,-15936.0,-4480.0,-768.0
2.88,-15936.0,-4480.0,-768.0
2.8825,-16000.0,-4480.0,-832.0
2.885,-16000.0,-4416.0,-832.0
2.8875,-15936.0,-4416.0,-768.0
2.89,-15936.0,-4416.0,-704.0
2.8925,-15936.0,-4480.0,-768.0
2.895,-16000.0,-4480.0,-832.0
2.8975,-16000.0,-4416.0,-768.0
2.9,-15936.0,-4352.0,-768.0
2.9025,-15936.0,-4416.0,-768.0
2.905,-15936.0,-4416.0,-768.0
2.9075,-15936.0,-4416.0,-832.0
2.91,-15936.0,-4416.0,-768.0
2.9125,-15936.0,-4352.0,-832.0
2.915,-15936.0,-4352.0,-768.0
2.9175,-15936.0,-4416.0,-768.0
2.92,-15936.0,-4416.0,-768.0
2.9225,-15936.0,-4352.0,-768.0
2.925,-15936.0,-4352.0,-768.0
2.9275,-15936.0,-4416.0,-768.0
2.93,-15872.0,-4416.0,-768.0
2.9325,-15808.0,-4352.0,-832.0
2.935,-15872.0,-4352.0,-768.0
2.9375,-15936.0,-4352.0,-704.0
2.94,-15872.0,-4288.0,-768.0
2.9425,-15936.0,-4352.0,-704.0
2.945,-15872.0,-4352.0,-768.0
2.9475,-15872.0,-4352.0,-768.0
2.95,-15872.0,-4288.0,-768.0
2.9525,-15936.0,-4288.0,-768.0
2.955,-15872.0,-4288.0,-768.0
2.9575,-15872.0,-4288.0,-832.0
2.96,-15872.0,-4288.0,-768.0
2.9625,-15936.0,-4288.0,-768.0
2.965,-15936.0,-4288.0,-768.0
2.9675,-15936.0,-4352.0,-832.0
2.97,-15936.0,-4288.0,-896.0
2.9725,-15936.0,-4224.0,-768.0
2.975,-15872.0,-4224.0,-832.0
2.9775,-15872.0,-4288.0,-832.0
2.98,-15872.0,-4352.0,-768.0
2.9825,-15936.0,-4480.0,-832.0
2.985,-16000.0,-4416.0,-832.0
2.9875,-15936.0,-4352.0,-896.0
2.99,-15936.0,-4416.0,-896.0
2.9925,-15936.0,-4416.0,-768.0
2.995,-15936.0,-4480.0,-832.0
2.9975,-15936.0,-4416.0,-896.0
3.0,-15936.0,-4416.0,-896.0
3.0025,-15936.0,-4416.0,-896.0
3.005,-15872.0,-4480.0,-832.0
3.0075,-15872.0,-4480.0,-896.0
3.01,-15936.0,-4480.0,-896.0
3.0125,-15872.0,-4480.0,-832.0
3.015,-15872.0,-4480.0,-960.0
3.0175,-15872.0,-4480.0,-832.0
3.02,-15872.0,-4416.0,-896.0
3.0225,-15936.0,-4480.0,-896.0
3.025,-15936.0,-4480.0,-896.0
3.0275,-15936.0,-4416.0,-896.0
3.03,-15936.0,-4480.0,-960.0
3.0325,-15936.0,-4416.0,-896.0
3.035,-15936.0,-4480.0,-896.0
3.0375,-16000.0,-4544.0,-960.0
3.04,-15936.0,-4544.0,-1024.0
3.0425,-15872.0,-4544.0,-960.0
3.045,-15872.0,-4544.0,-960.0
3.0475,-15872.0,-4544.0,-896.0
3.05,-15936.0,-4608.0,-896.0
3.0525,-15936.0,-4608.0,-896.0
3.055,-15936.0,-4544.0,-960.0
3.0575,-15872.0,-4544.0,-960.0
3.06,-15872.0,-4544.0,-960.0
3.0625,-15936.0,-4608.0,-896.0
3.065,-15936.0,-4544.0,-960.0
3.0675,-15872.0,-4544.0,-1024.0
3.07,-15936.0,-4544.0,-960.0
3.0725,-15936.0,-4672.0,-1024.0
3.075,-15936.0,-4672.0,-1024.0
3.0775,-16000.0,-4672.0,-1024.0
3.08,-15936.0,-4672.0,-1024.0
3.0825,-15936.0,-4672.0,-1024.0
3.085,-15936.0,-4672.0,-960.0
3.0875,-16000.0,-4672.0,-960.0
3.09,-16000.0,-4608.0,-1024.0
3.0925,-15936.0,-4544.0,-960.0
3.095,-15936.0,-4544.0,-960.0
3.0975,-15936.0,-4672.0,-896.0
3.1,-15936.0,-4608.0,-960.0
3.1025,-16000.0,-4608.0,-1024.0
3.105,-16000.0,-4608.0,-1024.0
3.1075,-15936.0,-4608.0,-1024.0
3.11,-15936.0,-4608.0,-960.0
3.1125,-15936.0,-4608.0,-960.0
3.115,-16000.0,-4672.0,-1024.0
3.1175,-15936.0,-4608.0,-1024.0
3.12,-15936.0,-4736.0,-960.0
3.1225,-16000.0,-4672.0,-960.0
3.125,-15936.0,-4672.0,-1024.0
3.1275,-15872.0,-4672.0,-1024.0
3.13,-15936.0,-4608.0,-960.0
3.1325,-15936.0,-4608.0,-960.0
3.135,-15872.0,-4608.0,-1088.0
3.1375,-15872.0,-4608.0,-1024.0
3.14,-15936.0,-4672.0,-1024.0
3.1425,-15936.0,-4608.0,-960.0
3.145,-15936.0,-4608.0,-1024.0
3.1475,-15936.0,-4608.0,-960.0
3.15,-15872.0,-4608.0,-960.0
3.1525,-15936.0,-4544.0,-960.0
3.155,-15936.0,-4544.0,-960.0
3.1575,-15936.0,-4544.0,-960.0
3.16,-15936.0,-4480.0,-960.0
3.1625,-16000.0,-4608.0,-960.0
3.165,-15872.0,-4544.0,-960.0
3.1675,-15936.0,-4608.0,-1024.0
3.17,-15936.0,-4544.0,-1024.0
3.1725,-15936.0,-4544.0,-960.0
3.175,-15872.0,-4544.0,-1024.0
3.1775,-15936.0,-4608.0,-960.0
3.18,-15936.0,-4544.0,-960.0
3.1825,-15936.0,-4544.0,-896.0
3.185,-15936.0,-4416.0,-896.0
3.1875,-15872.0,-4416.0,-896.0
3.19,-15936.0,-4480.0,-832.0
3.1925,-15936.0,-4416.0,-832.0
3.195,-15936.0,-4480.0,-832.0
3.1975,-15936.0,-4416.0,-832.0
3.2,-15872.0,-4480.0,-832.0
3.2025,-15872.0,-4480.0,-896.0
3.205,-15936.0,-4480.0,-896.0
3.2075,-15872.0,-4480.0,-896.0
3.21,-15936.0,-4480.0,-896.0
3.2125,-15936.0,-4544.0,-832.0
3.215,-15936.0,-4544.0,-960.0
3.2175,-15936.0,-4480.0,-896.0
3.22,-15936.0,-4480.0,-896.0
3.2225,-15936.0,-4480.0,-896.0
3.225,-15936.0,-4480.0,-896.0
3.2275,-16000.0,-4544.0,-832.0
3.23,-16000.0,-4480.0,-832.0
3.2325,-16000.0,-4480.0,-896.0
3.235,-15936.0,-4544.0,-832.0
3.2375,-16000.0,-4480.0,-768.0
3.24,-15936.0,-4480.0,-832.0
3.2425,-15936.0,-4416.0,-896.0
3.245,-15936.0,-4416.0,-832.0
3.2475,-15936.0,-4416.0,-896.0
3.25,-15936.0,-4352.0,-896.0
3.2525,-15936.0,-4352.0,-896.0
3.255,-15936.0,-4416.0,-896.0
3.2575,-16000.0,-4416.0,-896.0
3.26,-16000.0,-4416.0,-832.0
3.2625,-16000.0,-4416.0,-832.0
3.265,-15936.0,-4416.0,-832.0
3.2675,-16000.0,-4416.0,-832.0
3.27,-16000.0,-4416.0,-832.0
3.2725,-15936.0,-4416.0,-768.0
3.275,-15936.0,-4416.0,-768.0
3.2775,-15936.0,-4416.0,-768.0
3.28,-15936.0,-4352.0,-832.0
3.2825,-16000.0,-4416.0,-832.0
3.285,-15936.0,-4416.0,-832.0
3.2875,-16000.0,-4416.0,-832.0
3.29,-15936.0,-4416.0,-896.0
3.2925,-15936.0,-4416.0,-896.0
3.295,-16000.0,-4416.0,-832.0
3.2975,-15936.0,-4416.0,-896.0
3.3,-15936.0,-4416.0,-832.0
3.3025,-15936.0,-4416.0,-832.0
3.305,-15936.0,-4352.0,-832.0
3.3075,-15936.0,-4352.0,-768.0
3.31,-16000.0,-4352.0,-896.0
3.3125,-16000.0,-4288.0,-832.0
3.315,-16064.0,-4352.0,-832.0
3.3175,-16000.0,-4352.0,-832.0
3.32,-16064.0,-4352.0,-832.0
3.3225,-16064.0,-4352.0,-832.0
3.325,-16064.0,-4416.0,-768.0
3.3275,-16000.0,-4416.0,-768.0
3.33,-16000.0,-4416.0,-832.0
3.3325,-15936.0,-4352.0,-768.0
3.335,-15936.0,-4352.0,-768.0
3.3375,-15936.0,-4352.0,-768.0
3.34,-15936.0,-4352.0,-768.0
3.3425,-15936.0,-4352.0,-768.0
3.345,-15936.0,-4352.0,-704.0
3.3475,-15936.0,-4416.0,-768.0
3.35,-15872.0,-4416.0,-768.0
3.3525,-15936.0,-4416.0,-832.0
3.355,-15872.0,-4416.0,-832.0
3.3575,-15936.0,-4352.0,-832.0
3.36,-15936.0,-4416.0,-832.0
3.3625,-16000.0,-4416.0,-896.0
3.365,-15936.0,-4416.0,-832.0
3.3675,-15936.0,-4416.0,-896.0
3.37,-15872.0,-4416.0,-832.0
3.3725,-15936.0,-4416.0,-832.0
3.375,-15936.0,-4352.0,-832.0
3.3775,-16000.0,-4416.0,-896.0
3.38,-15936.0,-4416.0,-832.0
3.3825,-15936.0,-4416.0,-832.0
3.385,-15872.0,-4416.0,-896.0
3.3875,-15936.0,-4352.0,-768.0
3.39,-15936.0,-4416.0,-832.0
3.3925,-15936.0,-4480.0,-832.0
3.395,-15936.0,-4544.0,-768.0
3.3975,-15872.0,-4544.0,-832.0
3.4,-15872.0,-4480.0,-832.0
3.4025,-15936.0,-4480.0,-768.0
3.405,-15936.0,-4480.0,-768.0
3.4075,-16000.0,-4480.0,-704.0
3.41,-16000.0,-4416.0,-768.0
3.4125,-16000.0,-4480.0,-768.0
3.415,-16000.0,-4416.0,-704.0
3.4175,-15936.0,-4416.0,-640.0
3.42,-16000.0,-4480.0,-704.0
3.4225,-16000.0,-4416.0,-640.0
3.425,-16000.0,-4416.0,-640.0
3.4275,-16064.0,-4416.0,-704.0
3.43,-16000.0,-4352.0,-768.0
3.4325,-16000.0,-4352.0,-704.0
3.435,-16000.0,-4352.0,-768.0
3.4375,-16000.0,-4352.0,-768.0
3.44,-15936.0,-4416.0,-832.0
3.4425,-15872.0,-4416.0,-768.0
3.445,-15936.0,-4416.0,-704.0
3.4475,-16000.0,-4416.0,-704.0
3.45,-16064.0,-4480.0,-704.0
3.4525,-16064.0,-4544.0,-768.0
3.455,-16064.0,-4544.0,-896.0
3.4575,-16000.0,-4608.0,-960.0
3.46,-16000.0,-4608.0,-960.0
3.4625,-16000.0,-4544.0,-960.0
3.465,-16000.0,-4544.0,-896.0
3.4675,-16000.0,-4672.0,-960.0
3.47,-16000.0,-4736.0,-1024.0
3.4725,-16000.0,-4736.0,-1088.0
3.475,-15936.0,-4800.0,-1088.0
3.4775,-15872.0,-4800.0,-1024.0
3.48,-15872.0,-4864.0,-1088.0
3.4825,-15872.0,-4864.0,-1024.0
3.485,-15872.0,-4800.0,-1024.0
3.4875,-15872.0,-4800.0,-960.0
3.49,-15872.0,-4800.0,-960.0
3.4925,-15872.0,-4736.0,-960.0
3.495,-15808.0,-4736.0,-960.0
3.4975,-15808.0,-4672.0,-960.0
3.5,-15808.0,-4672.0,-960.0
3.5025,-15808.0,-4672.0,-896.0
3.505,-15808.0,-4608.0,-896.0
3.5075,-15744.0,-4544.0,-896.0
3.51,-15744.0,-4544.0,-896.0
3.5125,-15808.0,-4480.0,-832.0
3.515,-15808.0,-4480.0,-896.0
3.5175,-15808.0,-4544.0,-832.0
3.52,-15744.0,-4480.0,-832.0
3.5225,-15808.0,-4480.0,-896.0
3.525,-15808.0,-4480.0,-896.0
3.5275,-15744.0,-4480.0,-960.0
3.53,-15744.0,-4480.0,-832.0
3.5325,-15744.0,-4480.0,-832.0
3.535,-15744.0,-4544.0,-896.0
3.5375,-15680.0,-4480.0,-960.0
3.54,-15744.0,-4480.0,-960.0
3.5425,-15744.0,-4480.0,-960.0
3.545,-15680.0,-4544.0,-960.0
3.5475,-15808.0,-4480.0,-960.0
3.55,-15744.0,-4416.0,-896.0
3.5525,-15744.0,-4416.0,-832.0
3.555,-15744.0,-4352.0,-832.0
3.5575,-15744.0,-4352.0,-832.0
3.56,-15744.0,-4352.0,-832.0
3.5625,-15808.0,-4352.0,-832.0
3.565,-15808.0,-4352.0,-832.0
3.5675,-15872.0,-4352.0,-832.0
3.57,-15808.0,-4416.0,-896.0
3.5725,-15808.0,-4416.0,-960.0
3.575,-15808.0,-4416.0,-960.0
3.5775,-15872.0,-4416.0,-960.0
3.58,-15808.0,-4480.0,-960.0
3.5825,-15872.0,-4416.0,-896.0
3.585,-15872.0,-4544.0,-960.0
3.5875,-15872.0,-4480.0,-960.0
3.59,-15872.0,-4544.0,-1024.0
3.5925,-15872.0,-4480.0,-1024.0
3.595,-15936.0,-4480.0,-1024.0
3.5975,-16000.0,-4480.0,-1024.0
3.6,-16000.0,-4480.0,-1088.0
3.6025,-15936.0,-4416.0,-1152.0
3.605,-16000.0,-4416.0,-1152.0
3.6075,-16000.0,-4416.0,-1152.0
3.61,-16064.0,-4352.0,-1152.0
3.6125,-16064.0,-4416.0,-1152.0
3.615,-16064.0,-4416.0,-1152.0
3.6175,-16064.0,-4416.0,-1152.0
3.62,-16064.0,-4416.0,-1152.0
3.6225,-16064.0,-4480.0,-1152.0
3.625,-16064.0,-4480.0,-1152.0
3.6275,-16064.0,-4416.0,-1088.0
3.63,-16064.0,-4480.0,-1088.0
3.6325,-16128.0,-4480.0,-1088.0
3.635,-16128.0,-4480.0,-1216.0
3.6375,-16128.0,-4416.0,-1152.0
3.64,-16064.0,-4416.0,-1088.0
3.6425,-16064.0,-4480.0,-1088.0
3.645,-16000.0,-4480.0,-1088.0
3.6475,-16064.0,-4544.0,-1024.0
3.65,-16064.0,-4480.0,-1088.0
3.6525,-16064.0,-4480.0,-1088.0
3.655,-16000.0,-4480.0,-1088.0
3.6575,-16064.0,-4480.0,-1088.0
3.66,-16000.0,-4416.0,-1088.0
3.6625,-16000.0,-4416.0,-1088.0
3.665,-16064.0,-4416.0,-1152.0
3.6675,-16064.0,-4480.0,-1088.0
3.67,-16064.0,-4416.0,-1152.0
3.6725,-16064.0,-4480.0,-1088.0
3.675,-16128.0,-4480.0,-1088.0
3.6775,-16064.0,-4544.0,-1024.0
3.68,-16000.0,-4480.0,-1024.0
3.6825,-16000.0,-4480.0,-1024.0
3.685,-16000.0,-4416.0,-960.0
3.6875,-16000.0,-4416.0,-960.0
3.69,-16000.0,-4480.0,-896.0
3.6925,-16000.0,-4416.0,-896.0
3.695,-16000.0,-4352.0,-896.0
3.6975,-15936.0,-4416.0,-960.0
3.7,-15936.0,-4480.0,-960.0
3.7025,-15936.0,-4416.0,-896.0
3.705,-15936.0,-4416.0,-960.0
3.7075,-15936.0,-4480.0,-960.0
3.71,-15936.0,-4480.0,-832.0
3.7125,-15872.0,-4480.0,-960.0
3.715,-15872.0,-4480.0,-832.0
3.7175,-15808.0,-4480.0,-832.0
3.72,-15936.0,-4480.0,-896.0
3.7225,-15872.0,-4416.0,-832.0
3.725,-15872.0,-4416.0,-768.0
3.7275,-15872.0,-4416.0,-832.0
3.73,-15808.0,-4416.0,-832.0
3.7325,-15808.0,-4352.0,-832.0
3.735,-15808.0,-4416.0,-768.0
3.7375,-15808.0,-4480.0,-768.0
3.74,-15808.0,-4416.0,-768.0
3.7425,-15936.0,-4416.0,-704.0
3.745,-15936.0,-4416.0,-768.0
3.7475,-15936.0,-4352.0,-768.0
3.75,-15936.0,-4416.0,-704.0
3.7525,-15936.0,-4352.0,-704.0
3.755,-15872.0,-4352.0,-768.0
3.7575,-15872.0,-4416.0,-768.0
3.76,-16000.0,-4416.0,-768.0
3.7625,-15936.0,-4416.0,-704.0
3.765,-15936.0,-4416.0,-704.0
3.7675,-15872.0,-4416.0,-768.0
3.77,-15936.0,-4416.0,-768.0
3.7725,-15936.0,-4480.0,-768.0
3.775,-15936.0,-4480.0,-704.0
3.7775,-15936.0,-4416.0,-704.0
3.78,-16000.0,-4352.0,-704.0
3.7825,-15936.0,-4352.0,-704.0
3.785,-16000.0,-4352.0,-704.0
3.7875,-16000.0,-4352.0,-704.0
3.79,-15936.0,-4352.0,-704.0
3.7925,-16000.0,-4352.0,-704.0
3.795,-16000.0,-4416.0,-640.0
3.7975,-16000.0,-4352.0,-640.0
3.8,-16064.0,-4480.0,-704.0
3.8025,-16064.0,-4416.0,-640.0
3.805,-16000.0,-4416.0,-704.0
3.8075,-16000.0,-4416.0,-768.0
3.81,-16064.0,-4480.0,-832.0
3.8125,-16000.0,-4480.0,-768.0
3.815,-16000.0,-4480.0,-832.0
3.8175,-16064.0,-4416.0,-768.0
3.82,-16000.0,-4480.0,-768.0
3.8225,-16000.0,-4480.0,-768.0
3.825,-16000.0,-4416.0,-768.0
3.8275,-16000.0,-4480.0,-704.0
3.83,-16064.0,-4416.0,-704.0
3.8325,-16000.0,-4480.0,-768.0
3.835,-16000.0,-4416.0,-768.0
3.8375,-16000.0,-4480.0,-832.0
3.84,-16128.0,-4416.0,-832.0
3.8425,-16000.0,-4416.0,-768.0
3.845,-16064.0,-4416.0,-832.0
3.8475,-16064.0,-4416.0,-832.0
3.85,-16064.0,-4480.0,-832.0
3.8525,-16064.0,-4544.0,-832.0
3.855,-16128.0,-4544.0,-832.0
3.8575,-16064.0,-4544.0,-896.0
3.86,-16064.0,-4480.0,-832.0
3.8625,-16064.0,-4480.0,-832.0
3.865,-16064.0,-4480.0,-832.0
3.8675,-16064.0,-4480.0,-832.0
3.87,-16064.0,-4480.0,-768.0
3.8725,-16064.0,-4480.0,-768.0
3.875,-16000.0,-4480.0,-768.0
3.8775,-16000.0,-4480.0,-832.0
3.88,-16000.0,-4544.0,-768.0
3.8825,-16064.0,-4544.0,-832.0
3.885,-16000.0,-4544.0,-768.0
3.8875,-16000.0,-4480.0,-832.0
3.89,-16064.0,-4544.0,-832.0
3.8925,-16064.0,-4544.0,-832.0
3.895,-16128.0,-4480.0,-896.0
3.8975,-16128.0,-4480.0,-832.0
3.9,-16128.0,-4480.0,-768.0
3.9025,-16192.0,-4480.0,-768.0
3.905,-16192.0,-4544.0,-768.0
3.9075,-16192.0,-4544.0,-768.0
3.91,-16192.0,-4544.0,-768.0
3.9125,-16192.0,-4544.0,-704.0
3.915,-16128.0,-4480.0,-768.0
3.9175,-16192.0,-4480.0,-768.0
3.92,-16128.0,-4480.0,-704.0
3.9225,-16128.0,-4608.0,-704.0
3.925,-16128.0,-4544.0,-704.0
3.9275,-16128.0,-4544.0,-768.0
3.93,-16128.0,-4608.0,-704.0
3.9325,-16128.0,-4608.0,-768.0
3.935,-16064.0,-4608.0,-768.0
3.9375,-16128.0,-4544.0,-768.0
3.94,-16064.0,-4608.0,-768.0
3.9425,-16064.0,-4608.0,-768.0
3.945,-16000.0,-4544.0,-832.0
3.9475,-16064.0,-4544.0,-832.0
3.95,-16000.0,-4544.0,-896.0
3.9525,-15936.0,-4480.0,-832.0
3.955,-15936.0,-4480.0,-832.0
3.9575,-15936.0,-4416.0,-832.0
3.96,-15936.0,-4416.0,-832.0
3.9625,-15872.0,-4480.0,-768.0
3.965,-15936.0,-4480.0,-896.0
3.9675,-16000.0,-4480.0,-832.0
3.97,-15936.0,-4480.0,-704.0
3.9725,-16000.0,-4480.0,-832.0
3.975,-16000.0,-4416.0,-768.0
3.9775,-15936.0,-4416.0,-768.0
3.98,-16000.0,-4352.0,-768.0
3.9825,-16064.0,-4352.0,-768.0
3.985,-16064.0,-4352.0,-640.0
3.9875,-16064.0,-4352.0,-704.0
3.99,-16064.0,-4352.0,-704.0
3.9925,-16064.0,-4352.0,-640.0
3.995,-16064.0,-4352.0,-704.0
3.9975,-16128.0,-4288.0,-704.0
4.0,-16064.0,-4288.0,-768.0
4.0025,-16064.0,-4288.0,-768.0
4.005,-16064.0,-4288.0,-704.0
4.0075,-16000.0,-4224.0,-704.0
4.01,-16000.0,-4288.0,-640.0
4.0125,-16000.0,-4288.0,-704.0
4.015,-16000.0,-4288.0,-704.0
4.0175,-16000.0,-4288.0,-640.0
4.02,-16000.0,-4224.0,-640.0
4.0225,-16000.0,-4288.0,-704.0
4.025,-16064.0,-4288.0,-704.0
4.0275,-16000.0,-4288.0,-640.0
4.03,-16000.0,-4224.0,-640.0
4.0325,-16000.0,-4224.0,-640.0
4.035,-16064.0,-4224.0,-640.0
4.0375,-16000.0,-4288.0,-640.0
4.04,-16000.0,-4224.0,-640.0
4.0425,-16000.0,-4224.0,-768.0
4.045,-16000.0,-4224.0,-704.0
4.0475,-16000.0,-4224.0,-704.0
4.05,-15936.0,-4224.0,-704.0
4.0525,-15936.0,-4224.0,-704.0
4.055,-16000.0,-4224.0,-768.0
4.0575,-15936.0,-4288.0,-704.0
4.06,-15936.0,-4288.0,-704.0
4.0625,-15872.0,-4288.0,-768.0
4.065,-15872.0,-4288.0,-704.0
4.0675,-15808.0,-4224.0,-768.0
4.07,-15808.0,-4288.0,-704.0
4.0725,-15744.0,-4288.0,-768.0
4.075,-15744.0,-4288.0,-768.0
4.0775,-15744.0,-4288.0,-768.0
4.08,-15744.0,-4288.0,-768.0
4.0825,-15680.0,-4288.0,-768.0
4.085,-15680.0,-4288.0,-704.0
4.0875,-15680.0,-4288.0,-704.0
4.09,-15680.0,-4288.0,-576.0
4.0925,-15680.0,-4288.0,-576.0
4.095,-15744.0,-4288.0,-640.0
4.0975,-15744.0,-4224.0,-704.0
4.1,-15808.0,-4224.0,-768.0
4.1025,-15744.0,-4288.0,-704.0
4.105,-15744.0,-4288.0,-640.0
4.1075,-15808.0,-4288.0,-704.0
4.11,-15744.0,-4288.0,-640.0
4.1125,-15808.0,-4288.0,-640.0
4.115,-15808.0,-4288.0,-640.0
4.1175,-15744.0,-4352.0,-704.0
4.12,-15808.0,-4416.0,-704.0
4.1225,-15808.0,-4416.0,-768.0
4.125,-15872.0,-4480.0,-768.0
4.1275,-15872.0,-4544.0,-768.0
4.13,-15808.0,-4416.0,-768.0
4.1325,-15808.0,-4480.0,-768.0
4.135,-15872.0,-4544.0,-832.0
4.1375,-15808.0,-4480.0,-832.0
4.14,-15808.0,-4544.0,-832.0
4.1425,-15808.0,-4480.0,-896.0
4.145,-15808.0,-4480.0,-896.0
4.1475,-15808.0,-4480.0,-832.0
4.15,-15808.0,-4480.0,-832.0
4.1525,-15872.0,-4480.0,-896.0
4.155,-15808.0,-4480.0,-896.0
4.1575,-15808.0,-4480.0,-896.0
4.16,-15744.0,-4480.0,-960.0
4.1625,-15808.0,-4416.0,-960.0
4.165,-15872.0,-4480.0,-1024.0
4.1675,-15808.0,-4544.0,-1024.0
4.17,-15872.0,-4480.0,-1024.0
4.1725,-15808.0,-4480.0,-1024.0
4.175,-15872.0,-4544.0,-1024.0
4.1775,-15808.0,-4480.0,-1024.0
4.18,-15808.0,-4480.0,-1088.0
4.1825,-15808.0,-4416.0,-1152.0
4.185,-15808.0,-4416.0,-1152.0
4.1875,-15808.0,-4480.0,-1088.0
4.19,-15808.0,-4416.0,-1024.0
4.1925,-15808.0,-4416.0,-1088.0
4.195,-15808.0,-4352.0,-1088.0
4.1975,-15808.0,-4352.0,-1216.0
4.2,-15808.0,-4288.0,-1088.0
4.2025,-15808.0,-4352.0,-1152.0
4.205,-15872.0,-4352.0,-1152.0
4.2075,-15872.0,-4352.0,-1152.0
4.21,-15872.0,-4352.0,-1152.0
4.2125,-15872.0,-4288.0,-1216.0
4.215,-15808.0,-4352.0,-1216.0
4.2175,-15808.0,-4352.0,-1280.0
4.22,-15808.0,-4352.0,-1216.0
4.2225,-15680.0,-4352.0,-1152.0
4.225,-15680.0,-4352.0,-1216.0
4.2275,-15744.0,-4352.0,-1216.0
4.23,-15744.0,-4352.0,-1152.0
4.2325,-15744.0,-4288.0,-1152.0
4.235,-15744.0,-4352.0,-1216.0
4.2375,-15744.0,-4352.0,-1216.0
4.24,-15744.0,-4288.0,-1216.0
4.2425,-15808.0,-4288.0,-1216.0
4.245,-15872.0,-4288.0,-1152.0
4.2475,-15872.0,-4288.0,-1152.0
4.25,-15872.0,-4352.0,-1216.0
4.2525,-15872.0,-4288.0,-1216.0
4.255,-15872.0,-4288.0,-1280.0
4.2575,-15872.0,-4288.0,-1344.0
4.26,-16000.0,-4288.0,-1344.0
4.2625,-15936.0,-4288.0,-1344.0
4.265,-16000.0,-4288.0,-1408.0
4.2675,-16000.0,-4288.0,-1472.0
4.27,-16000.0,-4288.0,-1408.0
4.2725,-16000.0,-4224.0,-1408.0
4.275,-15936.0,-4224.0,-1408.0
4.2775,-16000.0,-4160.0,-1408.0
4.28,-16000.0,-4224.0,-1472.0
4.2825,-16000.0,-4224.0,-1472.0
4.285,-15936.0,-4224.0,-1536.0
4.2875,-15936.0,-4160.0,-1472.0
4.29,-16000.0,-4160.0,-1536.0
4.2925,-16000.0,-4224.0,-1536.0
4.295,-15936.0,-4224.0,-1536.0
4.2975,-15872.0,-4224.0,-1536.0
4.3,-15872.0,-4224.0,-1536.0
4.3025,-15872.0,-4160.0,-1536.0
4.305,-15872.0,-4160.0,-1536.0
4.3075,-15808.0,-4224.0,-1536.0
4.31,-15808.0,-4224.0,-1536.0
4.3125,-15808.0,-4160.0,-1472.0
4.315,-15744.0,-4160.0,-1536.0
4.3175,-15680.0,-4160.0,-1536.0
4.32,-15680.0,-4160.0,-1472.0
4.3225,-15616.0,-4096.0,-1472.0
4.325,-15616.0,-4096.0,-1472.0
4.3275,-15616.0,-4096.0,-1472.0
4.33,-15552.0,-4096.0,-1344.0
4.3325,-15552.0,-4096.0,-1408.0
4.335,-15552.0,-4032.0,-1408.0
4.3375,-15552.0,-4096.0,-1408.0
4.34,-15552.0,-4032.0,-1408.0
4.3425,-15552.0,-4032.0,-1344.0
4.345,-15552.0,-4096.0,-1344.0
4.3475,-15552.0,-4096.0,-1344.0
4.35,-15488.0,-4096.0,-1344.0
4.3525,-15488.0,-4032.0,-1344.0
4.355,-15552.0,-4032.0,-1216.0
4.3575,-15616.0,-4032.0,-1216.0
4.36,-15616.0,-4096.0,-1280.0
4.3625,-15680.0,-4160.0,-1280.0
4.365,-15616.0,-4096.0,-1344.0
4.3675,-15552.0,-4096.0,-1344.0
4.37,-15616.0,-4096.0,-1344.0
4.3725,-15616.0,-4160.0,-1280.0
4.375,-15616.0,-4224.0,-1280.0
4.3775,-15616.0,-4224.0,-1280.0
4.38,-15680.0,-4288.0,-1280.0
4.3825,-15744.0,-4288.0,-1280.0
4.385,-15680.0,-4288.0,-1280.0
4.3875,-15808.0,-4288.0,-1280.0
4.39,-15872.0,-4352.0,-1344.0
4.3925,-15872.0,-4288.0,-1344.0
4.395,-15936.0,-4352.0,-1280.0
4.3975,-16000.0,-4352.0,-1280.0
4.4,-15936.0,-4416.0,-1344.0
4.4025,-16064.0,-4544.0,-1344.0
4.405,-16000.0,-4544.0,-1344.0
4.4075,-16128.0,-4480.0,-1344.0
4.41,-16192.0,-4480.0,-1280.0
4.4125,-16192.0,-4480.0,-1216.0
4.415,-16256.0,-4544.0,-1152.0
4.4175,-16320.0,-4544.0,-1088.0
4.42,-16320.0,-4544.0,-1088.0
4.4225,-16384.0,-4608.0,-1088.0
4.425,-16384.0,-4608.0,-1088.0
4.4275,-16448.0,-4672.0,-1088.0
4.43,-16384.0,-4736.0,-1024.0
4.4325,-16448.0,-4672.0,-960.0
4.435,-16448.0,-4608.0,-896.0
4.4375,-16448.0,-4608.0,-896.0
4.44,-16512.0,-4608.0,-832.0
4.4425,-16512.0,-4608.0,-832.0
4.445,-16512.0,-4544.0,-896.0
4.4475,-16512.0,-4672.0,-832.0
4.45,-16512.0,-4736.0,-768.0
4.4525,-16512.0,-4672.0,-704.0
4.455,-16512.0,-4736.0,-768.0
4.4575,-16576.0,-4800.0,-768.0
4.46,-16640.0,-4736.0,-768.0
4.4625,-16576.0,-4736.0,-768.0
4.465,-16576.0,-4800.0,-704.0
4.4675,-16640.0,-4736.0,-704.0
4.47,-16576.0,-4800.0,-704.0
4.4725,-16576.0,-4864.0,-704.0
4.475,-16512.0,-4800.0,-704.0
4.4775,-16512.0,-4800.0,-704.0
4.48,-16512.0,-4800.0,-640.0
4.4825,-16512.0,-4800.0,-576.0
4.485,-16512.0,-4800.0,-512.0
4.4875,-16448.0,-4864.0,-448.0
4.49,-16448.0,-4864.0,-448.0
4.4925,-16384.0,-4928.0,-448.0
4.495,-16448.0,-4864.0,-448.0
4.4975,-16384.0,-4800.0,-384.0
4.5,-16384.0,-4864.0,-320.0
4.5025,-16384.0,-4800.0,-320.0
4.505,-16320.0,-4800.0,-320.0
4.5075,-16384.0,-4736.0,-192.0
4.51,-16384.0,-4736.0,-64.0
4.5125,-16384.0,-4736.0,-64.0
4.515,-16320.0,-4672.0,0.0
4.5175,-16384.0,-4608.0,0.0
4.52,-16320.0,-4608.0,0.0
4.5225,-16192.0,-4608.0,0.0
4.525,-16192.0,-4544.0,64.0
4.5275,-16128.0,-4544.0,-64.0
4.53,-16128.0,-4544.0,0.0
4.5325,-16064.0,-4544.0,-64.0
4.535,-16064.0,-4544.0,0.0
4.5375,-16000.0,-4416.0,-64.0
4.54,-16000.0,-4480.0,-64.0
4.5425,-16000.0,-4416.0,-64.0
4.545,-16000.0,-4416.0,-64.0
4.5475,-15936.0,-4352.0,0.0
4.55,-15872.0,-4288.0,0.0
4.5525,-15808.0,-4288.0,0.0
4.555,-15744.0,-4288.0,-64.0
4.5575,-15680.0,-4288.0,-64.0
4.56,-15552.0,-4160.0,-64.0
4.5625,-15552.0,-4224.0,-128.0
4.565,-15552.0,-4096.0,-128.0
4.5675,-15488.0,-4096.0,-128.0
4.57,-15424.0,-4032.0,-256.0
4.5725,-15360.0,-4032.0,-192.0
4.575,-15424.0,-3968.0,-256.0
4.5775,-15424.0,-3968.0,-256.0
4.58,-15360.0,-3968.0,-192.0
4.5825,-15360.0,-3968.0,-256.0
4.585,-15424.0,-3904.0,-384.0
4.5875,-15360.0,-3840.0,-384.0
4.59,-15424.0,-3840.0,-384.0
4.5925,-15488.0,-3840.0,-384.0
4.595,-15424.0,-3776.0,-384.0
4.5975,-15488.0,-3712.0,-512.0
4.6,-15488.0,-3712.0,-512.0
4.6025,-15424.0,-3712.0,-576.0
4.605,-15552.0,-3648.0,-576.0
4.6075,-15552.0,-3712.0,-576.0
4.61,-15552.0,-3648.0,-576.0
4.6125,-15552.0,-3648.0,-576.0
4.615,-15616.0,-3648.0,-576.0
4.6175,-15616.0,-3648.0,-512.0
4.62,-15680.0,-3648.0,-576.0
4.6225,-15808.0,-3584.0,-576.0
4.625,-15872.0,-3648.0,-576.0
4.6275,-15872.0,-3584.0,-576.0
4.63,-15872.0,-3648.0,-640.0
4.6325,-15872.0,-3648.0,-704.0
4.635,-15936.0,-3712.0,-704.0
4.6375,-16000.0,-3712.0,-768.0
4.64,-16064.0,-3776.0,-832.0
4.6425,-16128.0,-3840.0,-832.0
4.645,-16128.0,-3840.0,-896.0
4.6475,-16128.0,-3840.0,-960.0
4.65,-16256.0,-3904.0,-960.0
4.6525,-16256.0,-3904.0,-1024.0
4.655,-16320.0,-3904.0,-1024.0
4.6575,-16384.0,-3904.0,-1088.0
4.66,-16384.0,-3968.0,-1216.0
4.6625,-16384.0,-3840.0,-1216.0
4.665,-16384.0,-3904.0,-1216.0
4.6675,-16448.0,-3904.0,-1216.0
4.67,-16448.0,-3904.0,-1216.0
4.6725,-16384.0,-3968.0,-1152.0
4.675,-16320.0,-3968.0,-1216.0
4.6775,-16320.0,-3968.0,-1216.0
4.68,-16256.0,-3968.0,-1280.0
4.6825,-16320.0,-3968.0,-1280.0
4.685,-16320.0,-4032.0,-1280.0
4.6875,-16256.0,-4032.0,-1280.0
4.69,-16192.0,-4032.0,-1280.0
4.6925,-16256.0,-4096.0,-1280.0
4.695,-16256.0,-4160.0,-1280.0
4.6975,-16256.0,-4096.0,-1280.0
4.7,-16256.0,-4224.0,-1344.0
4.7025,-16256.0,-4224.0,-1408.0
4.705,-16192.0,-4224.0,-1408.0
4.7075,-16128.0,-4288.0,-1472.0
4.71,-16128.0,-4352.0,-1472.0
4.7125,-16128.0,-4352.0,-1472.0
4.715,-16064.0,-4352.0,-1408.0
4.7175,-16064.0,-4416.0,-1408.0
4.72,-16064.0,-4480.0,-1408.0
4.7225,-16064.0,-4544.0,-1408.0
4.725,-16000.0,-4544.0,-1408.0
4.7275,-16000.0,-4544.0,-1472.0
4.73,-16000.0,-4544.0,-1536.0
4.7325,-16000.0,-4608.0,-1472.0
4.735,-16000.0,-4608.0,-1472.0
4.7375,-16000.0,-4608.0,-1472.0
4.74,-16000.0,-4672.0,-1408.0
4.7425,-15936.0,-4672.0,-1408.0
4.745,-15936.0,-4672.0,-1472.0
4.7475,-15936.0,-4672.0,-1472.0
4.75,-15936.0,-4608.0,-1344.0
4.7525,-15936.0,-4608.0,-1344.0
4.755,-15872.0,-4608.0,-1344.0
4.7575,-15872.0,-4672.0,-1408.0
4.76,-15936.0,-4672.0,-1408.0
4.7625,-15872.0,-4736.0,-1344.0
4.765,-15872.0,-4672.0,-1280.0
4.7675,-15872.0,-4736.0,-1280.0
4.77,-15872.0,-4736.0,-1344.0
4.7725,-15872.0,-4736.0,-1344.0
4.775,-15872.0,-4800.0,-1344.0
4.7775,-15872.0,-4864.0,-1344.0
4.78,-15872.0,-4864.0,-1344.0
4.7825,-15872.0,-4864.0,-1344.0
4.785,-15872.0,-4864.0,-1344.0
4.7875,-15936.0,-4864.0,-1408.0
4.79,-15872.0,-4864.0,-1344.0
4.7925,-15872.0,-4864.0,-1344.0
4.795,-15936.0,-4800.0,-1408.0
4.7975,-15936.0,-4800.0,-1344.0
4.8,-15936.0,-4800.0,-1408.0
4.8025,-15936.0,-4800.0,-1408.0
4.805,-15936.0,-4800.0,-1472.0
4.8075,-15936.0,-4864.0,-1408.0
4.81,-15936.0,-4800.0,-1408.0
4.8125,-15872.0,-4864.0,-1408.0
4.815,-15872.0,-4864.0,-1472.0
4.8175,-16000.0,-4864.0,-1472.0
4.82,-15936.0,-4864.0,-1344.0
4.8225,-15936.0,-4864.0,-1408.0
4.825,-15936.0,-4800.0,-1408.0
4.8275,-15936.0,-4800.0,-1344.0
4.83,-15936.0,-4800.0,-1408.0
4.8325,-15936.0,-4736.0,-1344.0
4.835,-15936.0,-4736.0,-1408.0
4.8375,-15872.0,-4736.0,-1344.0
4.84,-15936.0,-4672.0,-1472.0
4.8425,-15872.0,-4672.0,-1472.0
4.845,-15872.0,-4608.0,-1472.0
4.8475,-15872.0,-4544.0,-1536.0
4.85,-15872.0,-4544.0,-1536.0
4.8525,-15936.0,-4416.0,-1472.0
4.855,-15936.0,-4480.0,-1472.0
4.8575,-15936.0,-4480.0,-1536.0
4.86,-15936.0,-4480.0,-1600.0
4.8625,-15936.0,-4416.0,-1536.0
4.865,-15936.0,-4288.0,-1472.0
4.8675,-15936.0,-4288.0,-1536.0
4.87,-16000.0,-4288.0,-1536.0
4.8725,-15936.0,-4288.0,-1536.0
4.875,-16000.0,-4288.0,-1472.0
4.8775,-16000.0,-4224.0,-1472.0
4.88,-16000.0,-4224.0,-1472.0
4.8825,-16000.0,-4224.0,-1408.0
4.885,-16000.0,-4160.0,-1472.0
4.8875,-16000.0,-4224.0,-1408.0
4.89,-16000.0,-4160.0,-1536.0
4.8925,-16000.0,-4160.0,-1472.0
4.895,-16000.0,-4160.0,-1408.0
4.8975,-16000.0,-4096.0,-1344.0
4.9,-16064.0,-4160.0,-1344.0
4.9025,-16000.0,-4096.0,-1408.0
4.905,-16000.0,-4096.0,-1408.0
4.9075,-15936.0,-4096.0,-1408.0
4.91,-15936.0,-4096.0,-1344.0
4.9125,-15936.0,-4096.0,-1408.0
4.915,-15936.0,-4160.0,-1472.0
4.9175,-16064.0,-4032.0,-1472.0
4.92,-15936.0,-4096.0,-1408.0
4.9225,-16000.0,-4032.0,-1408.0
4.925,-16000.0,-4096.0,-1472.0
4.9275,-16064.0,-4032.0,-1408.0
4.93,-16064.0,-4032.0,-1408.0
4.9325,-16064.0,-4096.0,-1536.0
4.935,-16128.0,-4032.0,-1472.0
4.9375,-16064.0,-4096.0,-1472.0
4.94,-16064.0,-4032.0,-1472.0
4.9425,-16128.0,-4096.0,-1472.0
4.945,-16064.0,-4032.0,-1408.0
4.9475,-16064.0,-4032.0,-1344.0
4.95,-16128.0,-4096.0,-1472.0
4.9525,-16192.0,-4096.0,-1472.0
4.955,-16192.0,-4096.0,-1472.0
4.9575,-16192.0,-4096.0,-1536.0
4.96,-16192.0,-4032.0,-1408.0
4.9625,-16128.0,-4096.0,-1408.0
4.965,-16192.0,-4032.0,-1344.0
4.9675,-16128.0,-4032.0,-1280.0
4.97,-16192.0,-4032.0,-1280.0
4.9725,-16192.0,-4032.0,-1216.0
4.975,-16192.0,-4032.0,-1216.0
4.9775,-16192.0,-4032.0,-1216.0
4.98,-16192.0,-4032.0,-1216.0
4.9825,-16256.0,-4096.0,-1216.0
4.985,-16256.0,-4096.0,-1216.0
4.9875,-16256.0,-4096.0,-1024.0
4.99,-16256.0,-4096.0,-1024.0
4.9925,-16192.0,-4096.0,-1088.0
4.995,-16192.0,-4096.0,-1088.0
4.9975,-16192.0,-4160.0,-1024.0
5.0,-16192.0,-4160.0,-1024.0
5.0025,-16128.0,-4160.0,-1088.0
5.005,-16128.0,-4224.0,-1088.0
5.0075,-16128.0,-4288.0,-1088.0
5.01,-16192.0,-4224.0,-1152.0
5.0125,-16064.0,-4288.0,-1152.0
5.015,-16064.0,-4288.0,-1152.0
5.0175,-16064.0,-4224.0,-1088.0
5.02,-16064.0,-4224.0,-1088.0
5.0225,-16064.0,-4224.0,-1088.0
5.025,-16128.0,-4224.0,-1088.0
5.0275,-16128.0,-4224.0,-1024.0
5.03,-16128.0,-4224.0,-1088.0
5.0325,-16064.0,-4224.0,-1024.0
5.035,-16128.0,-4224.0,-1024.0
5.0375,-16064.0,-4288.0,-1024.0
5.04,-16064.0,-4224.0,-1024.0
5.0425,-16064.0,-4224.0,-960.0
5.045,-16064.0,-4224.0,-896.0
5.0475,-16064.0,-4288.0,-896.0
5.05,-16000.0,-4288.0,-896.0
5.0525,-16000.0,-4160.0,-896.0
5.055,-16064.0,-4224.0,-896.0
5.0575,-16064.0,-4224.0,-896.0
5.06,-16064.0,-4288.0,-832.0
5.0625,-16064.0,-4288.0,-704.0
5.065,-16000.0,-4224.0,-768.0
5.0675,-16000.0,-4288.0,-768.0
5.07,-16000.0,-4288.0,-768.0
5.0725,-16000.0,-4288.0,-704.0
5.075,-16000.0,-4288.0,-704.0
5.0775,-16064.0,-4352.0,-768.0
5.08,-16064.0,-4352.0,-832.0
5.0825,-15936.0,-4352.0,-832.0
5.085,-15872.0,-4480.0,-832.0
5.0875,-15936.0,-4416.0,-896.0
5.09,-15872.0,-4416.0,-960.0
5.0925,-15872.0,-4544.0,-896.0
5.095,-15872.0,-4544.0,-896.0
5.0975,-15872.0,-4608.0,-960.0
5.1,-15872.0,-4544.0,-1024.0
5.1025,-15872.0,-4544.0,-1024.0
5.105,-15872.0,-4608.0,-1088.0
5.1075,-15872.0,-4672.0,-1088.0
5.11,-15872.0,-4736.0,-1088.0
5.1125,-15808.0,-4672.0,-1088.0
5.115,-15872.0,-4736.0,-1024.0
5.1175,-15872.0,-4672.0,-1088.0
5.12,-15808.0,-4736.0,-1024.0
5.1225,-15872.0,-4736.0,-1088.0
5.125,-15808.0,-4672.0,-1024.0
5.1275,-15808.0,-4736.0,-1024.0
5.13,-15872.0,-4736.0,-960.0
5.1325,-15936.0,-4672.0,-1024.0
5.135,-15872.0,-4608.0,-1024.0
5.1375,-15872.0,-4608.0,-1088.0
5.14,-15808.0,-4608.0,-960.0
5.1425,-15808.0,-4544.0,-960.0
5.145,-15808.0,-4544.0,-960.0
5.1475,-15680.0,-4544.0,-960.0
5.15,-15616.0,-4608.0,-960.0
5.1525,-15552.0,-4608.0,-1024.0
5.155,-15616.0,-4544.0,-1088.0
5.1575,-15552.0,-4608.0,-1024.0
5.16,-15552.0,-4544.0,-960.0
5.1625,-15488.0,-4544.0,-1024.0
5.165,-15424.0,-4544.0,-1024.0
5.1675,-15488.0,-4544.0,-1024.0
5.17,-15424.0,-4544.0,-1024.0
5.1725,-15296.0,-4544.0,-1024.0
5.175,-15296.0,-4480.0,-1152.0
5.1775,-15232.0,-4480.0,-1216.0
5.18,-15168.0,-4544.0,-1152.0
5.1825,-15168.0,-4544.0,-1216.0
5.185,-15104.0,-4480.0,-1216.0
5.1875,-15040.0,-4544.0,-1216.0
5.19,-15040.0,-4608.0,-1216.0
5.1925,-15040.0,-4544.0,-1216.0
5.195,-15040.0,-4544.0,-1216.0
5.1975,-15104.0,-4480.0,-1280.0
5.2,-15104.0,-4544.0,-1408.0
5.2025,-15168.0,-4480.0,-1408.0
5.205,-15104.0,-4480.0,-1472.0
5.2075,-15104.0,-4480.0,-1536.0
5.21,-15040.0,-4544.0,-1536.0
5.2125,-14976.0,-4480.0,-1600.0
5.215,-14976.0,-4416.0,-1728.0
5.2175,-14912.0,-4480.0,-1792.0
5.22,-14848.0,-4416.0,-1856.0
5.2225,-14848.0,-4352.0,-1920.0
5.225,-14720.0,-4352.0,-1984.0
5.2275,-14784.0,-4352.0,-1984.0
5.23,-14720.0,-4288.0,-1984.0
5.2325,-14720.0,-4288.0,-2048.0
5.235,-14720.0,-4224.0,-2048.0
5.2375,-14784.0,-4160.0,-1984.0
5.24,-14784.0,-4160.0,-1920.0
5.2425,-14848.0,-4096.0,-1856.0
5.245,-14976.0,-4032.0,-1856.0
5.2475,-14976.0,-4032.0,-1856.0
5.25,-15040.0,-4096.0,-1920.0
5.2525,-15168.0,-4032.0,-1856.0
5.255,-15232.0,-4032.0,-1856.0
5.2575,-15296.0,-4096.0,-1856.0
5.26,-15360.0,-4096.0,-1728.0
5.2625,-15424.0,-4096.0,-1664.0
5.265,-15616.0,-4160.0,-1472.0
5.2675,-15744.0,-4096.0,-1408.0
5.27,-15808.0,-4032.0,-1472.0
5.2725,-15936.0,-4032.0,-1472.0
5.275,-16064.0,-3968.0,-1472.0
5.2775,-16128.0,-3968.0,-1600.0
5.28,-16192.0,-3968.0,-1664.0
5.2825,-16192.0,-3904.0,-1728.0
5.285,-16192.0,-3968.0,-1792.0
5.2875,-16256.0,-3904.0,-1984.0
5.29,-16192.0,-3840.0,-2112.0
5.2925,-16192.0,-3840.0,-2240.0
5.295,-16192.0,-3840.0,-2368.0
5.2975,-16256.0,-3840.0,-2560.0
5.3,-16192.0,-3840.0,-2624.0
5.3025,-16192.0,-3712.0,-2688.0
5.305,-16128.0,-3712.0,-2816.0
5.3075,-16128.0,-3712.0,-2880.0
5.31,-16128.0,-3648.0,-3072.0
5.3125,-16064.0,-3584.0,-3072.0
5.315,-16000.0,-3520.0,-3136.0
5.3175,-16000.0,-3520.0,-3136.0
5.32,-15936.0,-3456.0,-3136.0
5.3225,-15808.0,-3392.0,-3136.0
5.325,-15808.0,-3264.0,-3008.0
5.3275,-15744.0,-3328.0,-3008.0
5.33,-15744.0,-3264.0,-2944.0
5.3325,-15744.0,-3200.0,-2944.0
5.335,-15680.0,-3264.0,-2944.0
5.3375,-15744.0,-3264.0,-2752.0
5.34,-15744.0,-3264.0,-2816.0
5.3425,-15680.0,-3264.0,-2752.0
5.345,-15744.0,-3200.0,-2368.0
5.3475,-15808.0,-3264.0,-2496.0
5.35,-15936.0,-3328.0,-2432.0
5.3525,-16000.0,-3328.0,-2368.0
5.355,-16064.0,-3264.0,-2368.0
5.3575,-16000.0,-3392.0,-2304.0
5.36,-16064.0,-3392.0,-2304.0
5.3625,-16128.0,-3328.0,-2240.0
5.365,-16128.0,-3328.0,-2176.0
5.3675,-16192.0,-3392.0,-2240.0
5.37,-16192.0,-3392.0,-2176.0
5.3725,-16256.0,-3456.0,-2240.0
5.375,-16320.0,-3392.0,-2112.0
5.3775,-16320.0,-3456.0,-2176.0
5.38,-16384.0,-3392.0,-2176.0
5.3825,-16384.0,-3392.0,-2176.0
5.385,-16448.0,-3392.0,-2240.0
5.3875,-16448.0,-3328.0,-2304.0
5.39,-16576.0,-3392.0,-2304.0
5.3925,-16576.0,-3328.0,-2304.0
5.395,-16576.0,-3392.0,-2432.0
5.3975,-16704.0,-3328.0,-2432.0
5.4,-16704.0,-3328.0,-2432.0
5.4025,-16832.0,-3328.0,-2496.0
5.405,-16832.0,-3328.0,-2560.0
5.4075,-16960.0,-3328.0,-2624.0
5.41,-16896.0,-3392.0,-2624.0
5.4125,-16960.0,-3392.0,-2688.0
5.415,-17088.0,-3456.0,-2752.0
5.4175,-17216.0,-3520.0,-2752.0
5.42,-17280.0,-3520.0,-2816.0
5.4225,-17344.0,-3520.0,-2880.0
5.425,-17472.0,-3584.0,-2816.0
5.4275,-17600.0,-3648.0,-2816.0
5.43,-17664.0,-3648.0,-2944.0
5.4325,-17728.0,-3648.0,-2880.0
5.435,-17856.0,-3648.0,-2880.0
5.4375,-17920.0,-3712.0,-2880.0
5.44,-18048.0,-3712.0,-2816.0
5.4425,-18112.0,-3712.0,-2816.0
5.445,-18048.0,-3712.0,-2816.0
5.4475,-18112.0,-3712.0,-2880.0
5.45,-18176.0,-3712.0,-2880.0
5.4525,-18240.0,-3776.0,-2880.0
5.455,-18176.0,-3776.0,-2816.0
5.4575,-18240.0,-3712.0,-2816.0
5.46,-18304.0,-3712.0,-2816.0
5.4625,-18304.0,-3776.0,-2880.0
5.465,-18304.0,-3776.0,-2816.0
5.4675,-18240.0,-3776.0,-2816.0
5.47,-18240.0,-3712.0,-2816.0
5.4725,-18240.0,-3648.0,-2944.0
5.475,-18176.0,-3648.0,-2944.0
5.4775,-18176.0,-3584.0,-2880.0
5.48,-18112.0,-3520.0,-2816.0
5.4825,-18048.0,-3456.0,-2816.0
5.485,-17984.0,-3456.0,-2944.0
5.4875,-17856.0,-3456.0,-3008.0
5.49,-17792.0,-3392.0,-3008.0
5.4925,-17728.0,-3328.0,-3008.0
5.495,-17600.0,-3392.0,-3008.0
5.4975,-17536.0,-3328.0,-3008.0
5.5,-17472.0,-3328.0,-3072.0
5.5025,-17344.0,-3264.0,-3008.0
5.505,-17280.0,-3264.0,-3008.0
5.5075,-17216.0,-3200.0,-3072.0
5.51,-17088.0,-3200.0,-3008.0
5.5125,-17024.0,-3200.0,-2944.0
5.515,-16960.0,-3200.0,-2944.0
5.5175,-16832.0,-3200.0,-2944.0
5.52,-16832.0,-3200.0,-2880.0
5.5225,-16768.0,-3264.0,-2816.0
5.525,-16640.0,-3264.0,-2752.0
5.5275,-16576.0,-3328.0,-2688.0
5.53,-16512.0,-3328.0,-2560.0
5.5325,-16448.0,-3392.0,-2496.0
5.535,-16384.0,-3328.0,-2368.0
5.5375,-16256.0,-3392.0,-2368.0
5.54,-16128.0,-3392.0,-2240.0
5.5425,-16064.0,-3456.0,-2240.0
5.545,-15936.0,-3520.0,-2176.0
5.5475,-15936.0,-3584.0,-2112.0
5.55,-15936.0,-3584.0,-2048.0
5.5525,-15872.0,-3648.0,-2048.0
5.555,-15808.0,-3712.0,-2048.0
5.5575,-15744.0,-3776.0,-2048.0
5.56,-15744.0,-3840.0,-2048.0
5.5625,-15680.0,-3904.0,-2048.0
5.565,-15680.0,-3904.0,-1984.0
5.5675,-15680.0,-3968.0,-1920.0
5.57,-15744.0,-3968.0,-1856.0
5.5725,-15616.0,-3968.0,-1856.0
5.575,-15552.0,-4032.0,-1920.0
5.5775,-15680.0,-3968.0,-1984.0
5.58,-15680.0,-4032.0,-1984.0
5.5825,-15680.0,-4096.0,-1920.0
5.585,-15680.0,-4160.0,-2112.0
5.5875,-15552.0,-4224.0,-2048.0
5.59,-15552.0,-4288.0,-2112.0
5.5925,-15552.0,-4352.0,-2112.0
5.595,-15424.0,-4416.0,-2112.0
5.5975,-15360.0,-4480.0,-2176.0
5.6,-15296.0,-4544.0,-2112.0
5.6025,-15232.0,-4672.0,-2112.0
5.605,-15168.0,-4736.0,-2176.0
5.6075,-15232.0,-4864.0,-2112.0
5.61,-15168.0,-4864.0,-2112.0
5.6125,-15104.0,-4864.0,-2048.0
5.615,-15040.0,-4992.0,-2112.0
5.6175,-14976.0,-4992.0,-2112.0
5.62,-14912.0,-5056.0,-1984.0
5.6225,-14912.0,-5120.0,-1920.0
5.625,-14912.0,-5184.0,-1856.0
5.6275,-14848.0,-5120.0,-1856.0
5.63,-14848.0,-5056.0,-1728.0
5.6325,-14784.0,-5056.0,-1600.0
5.635,-14848.0,-5056.0,-1472.0
5.6375,-14784.0,-5056.0,-1344.0
5.64,-14784.0,-4992.0,-1280.0
5.6425,-14848.0,-4992.0,-1152.0
5.645,-14976.0,-5056.0,-1024.0
5.6475,-14976.0,-4992.0,-960.0
5.65,-15168.0,-5056.0,-896.0
5.6525,-15232.0,-4992.0,-832.0
5.655,-15360.0,-4992.0,-832.0
5.6575,-15424.0,-4992.0,-704.0
5.66,-15552.0,-4992.0,-704.0
5.6625,-15616.0,-4992.0,-768.0
5.665,-15872.0,-4928.0,-704.0
5.6675,-16000.0,-4992.0,-832.0
5.67,-16000.0,-4992.0,-896.0
5.6725,-16256.0,-4992.0,-960.0
5.675,-16320.0,-4928.0,-1024.0
5.6775,-16384.0,-4928.0,-1152.0
5.68,-16512.0,-4864.0,-1152.0
5.6825,-16576.0,-4864.0,-1280.0
5.685,-16640.0,-4864.0,-1344.0
5.6875,-16768.0,-4864.0,-1408.0
5.69,-16896.0,-4928.0,-1472.0
5.6925,-17024.0,-4928.0,-1408.0
5.695,-17088.0,-4928.0,-1536.0
5.6975,-17088.0,-4992.0,-1472.0
5.7,-17152.0,-4928.0,-1472.0
5.7025,-17152.0,-4992.0,-1408.0
5.705,-17088.0,-4992.0,-1344.0
5.7075,-17024.0,-5056.0,-1216.0
5.71,-16960.0,-5120.0,-1216.0
5.7125,-16832.0,-5184.0,-1152.0
5.715,-16704.0,-5184.0,-1088.0
5.7175,-16512.0,-5248.0,-1024.0
5.72,-16320.0,-5248.0,-896.0
5.7225,-16192.0,-5184.0,-832.0
5.725,-16000.0,-5248.0,-832.0
5.7275,-15872.0,-5248.0,-832.0
5.73,-15744.0,-5312.0,-768.0
5.7325,-15552.0,-5376.0,-832.0
5.735,-15424.0,-5312.0,-832.0
5.7375,-15232.0,-5312.0,-896.0
5.74,-15104.0,-5312.0,-896.0
5.7425,-14976.0,-5312.0,-896.0
5.745,-14784.0,-5248.0,-896.0
5.7475,-14656.0,-5184.0,-896.0
5.75,-14656.0,-5120.0,-960.0
5.7525,-14528.0,-5056.0,-896.0
5.755,-14464.0,-4992.0,-896.0
5.7575,-14400.0,-5056.0,-1024.0
5.76,-14336.0,-5056.0,-960.0
5.7625,-14336.0,-4992.0,-960.0
5.765,-14336.0,-5056.0,-896.0
5.7675,-14336.0,-5056.0,-832.0
5.77,-14336.0,-5056.0,-768.0
5.7725,-14336.0,-5120.0,-768.0
5.775,-14400.0,-5120.0,-832.0
5.7775,-14464.0,-5120.0,-768.0
5.78,-14528.0,-5120.0,-640.0
5.7825,-14528.0,-5184.0,-640.0
5.785,-14656.0,-5248.0,-640.0
5.7875,-14656.0,-5184.0,-640.0
5.79,-14720.0,-5184.0,-640.0
5.7925,-14784.0,-5184.0,-640.0
5.795,-14848.0,-5248.0,-640.0
5.7975,-14912.0,-5248.0,-704.0
5.8,-14912.0,-5248.0,-640.0
5.8025,-15040.0,-5312.0,-640.0
5.805,-15104.0,-5312.0,-640.0
5.8075,-15104.0,-5312.0,-640.0
5.81,-15168.0,-5376.0,-576.0
5.8125,-15232.0,-5376.0,-512.0
5.815,-15296.0,-5504.0,-512.0
5.8175,-15424.0,-5568.0,-512.0
5.82,-15552.0,-5568.0,-512.0
5.8225,-15616.0,-5568.0,-512.0
5.825,-15872.0,-5504.0,-576.0
5.8275,-15936.0,-5504.0,-640.0
5.83,-16000.0,-5504.0,-768.0
5.8325,-16064.0,-5440.0,-768.0
5.835,-16192.0,-5440.0,-832.0
5.8375,-16256.0,-5568.0,-896.0
5.84,-16320.0,-5504.0,-960.0
5.8425,-16384.0,-5504.0,-1024.0
5.845,-16448.0,-5504.0,-1088.0
5.8475,-16576.0,-5568.0,-1088.0
5.85,-16576.0,-5760.0,-1088.0
5.8525,-16640.0,-5824.0,-1088.0
5.855,-16640.0,-5888.0,-1152.0
5.8575,-16704.0,-5888.0,-1088.0
5.86,-16704.0,-6016.0,-1088.0
5.8625,-16768.0,-5952.0,-1088.0
5.865,-16768.0,-6016.0,-1152.0
5.8675,-16768.0,-6080.0,-1088.0
5.87,-16768.0,-6080.0,-1152.0
5.8725,-16768.0,-6144.0,-1152.0
5.875,-16768.0,-6080.0,-1152.0
5.8775,-16832.0,-6080.0,-1088.0
5.88,-16768.0,-6144.0,-1088.0
5.8825,-16768.0,-6080.0,-1024.0
5.885,-16640.0,-6144.0,-960.0
5.8875,-16640.0,-6080.0,-960.0
5.89,-16512.0,-6080.0,-832.0
5.8925,-16384.0,-6144.0,-768.0
5.895,-16384.0,-6080.0,-704.0
5.8975,-16256.0,-6144.0,-768.0
5.9,-16256.0,-6144.0,-768.0
5.9025,-16192.0,-6144.0,-768.0
5.905,-16000.0,-6016.0,-832.0
5.9075,-15872.0,-6080.0,-832.0
5.91,-15744.0,-6080.0,-832.0
5.9125,-15616.0,-6144.0,-832.0
5.915,-15552.0,-6208.0,-768.0
5.9175,-15424.0,-6208.0,-768.0
5.92,-15232.0,-6272.0,-768.0
5.9225,-15040.0,-6336.0,-704.0
5.925,-14912.0,-6272.0,-640.0
5.9275,-14848.0,-6272.0,-512.0
5.93,-14656.0,-6336.0,-576.0
5.9325,-14464.0,-6336.0,-448.0
5.935,-14272.0,-6272.0,-448.0
5.9375,-14144.0,-6400.0,-448.0
5.94,-14016.0,-6400.0,-448.0
5.9425,-13888.0,-6400.0,-448.0
5.945,-13824.0,-6400.0,-576.0
5.9475,-13696.0,-6464.0,-576.0
5.95,-13632.0,-6464.0,-640.0
5.9525,-13504.0,-6528.0,-640.0
5.955,-13376.0,-6464.0,-576.0
5.9575,-13248.0,-6528.0,-576.0
5.96,-13248.0,-6592.0,-576.0
5.9625,-13056.0,-6656.0,-576.0
5.965,-12992.0,-6656.0,-512.0
5.9675,-12928.0,-6656.0,-448.0
5.97,-12864.0,-6720.0,-448.0
5.9725,-12800.0,-6784.0,-512.0
5.975,-12800.0,-6720.0,-512.0
5.9775,-12736.0,-6784.0,-512.0
5.98,-12672.0,-6720.0,-512.0
5.9825,-12672.0,-6720.0,-512.0
5.985,-12672.0,-6656.0,-576.0
5.9875,-12608.0,-6592.0,-576.0
5.99,-12672.0,-6656.0,-640.0
5.9925,-12608.0,-6656.0,-576.0
5.995,-12608.0,-6720.0,-576.0
5.9975,-12608.0,-6784.0,-512.0
6.0,-12672.0,-6848.0,-512.0
6.0025,-12672.0,-6784.0,-576.0
6.005,-12672.0,-6784.0,-512.0
6.0075,-12672.0,-6784.0,-576.0
6.01,-12736.0,-6784.0,-640.0
6.0125,-12736.0,-6720.0,-640.0
6.015,-12736.0,-6784.0,-704.0
6.0175,-12736.0,-6848.0,-704.0
6.02,-12800.0,-6848.0,-768.0
6.0225,-12800.0,-6848.0,-768.0
6.025,-12800.0,-6912.0,-832.0
6.0275,-12800.0,-6848.0,-896.0
6.03,-12864.0,-6912.0,-832.0
6.0325,-12992.0,-6848.0,-832.0
6.035,-12992.0,-6656.0,-896.0
6.0375,-13056.0,-6528.0,-1024.0
6.04,-13056.0,-6336.0,-1088.0
6.0425,-13056.0,-6080.0,-1344.0
6.045,-13120.0,-6016.0,-1408.0
6.0475,-13120.0,-5952.0,-1664.0
6.05,-13120.0,-6016.0,-1792.0
6.0525,-13120.0,-6016.0,-1920.0
6.055,-13120.0,-6272.0,-1920.0
6.0575,-13248.0,-6400.0,-1856.0
6.06,-13440.0,-6592.0,-1792.0
6.0625,-13568.0,-6784.0,-1728.0
6.065,-13952.0,-7104.0,-1472.0
6.0675,-14208.0,-7296.0,-1344.0
6.07,-14528.0,-7424.0,-1344.0
6.0725,-14720.0,-7552.0,-1280.0
6.075,-14912.0,-7680.0,-1408.0
6.0775,-15104.0,-7744.0,-1472.0
6.08,-15296.0,-7872.0,-1408.0
6.0825,-15488.0,-8000.0,-1472.0
6.085,-15680.0,-8000.0,-1408.0
6.0875,-15872.0,-8064.0,-1408.0
6.09,-16064.0,-8128.0,-1280.0
6.0925,-16192.0,-8192.0,-1152.0
6.095,-16384.0,-8192.0,-1152.0
6.0975,-16576.0,-8192.0,-1152.0
6.1,-16704.0,-8192.0,-1088.0
6.1025,-16896.0,-8192.0,-1088.0
6.105,-17024.0,-8128.0,-1088.0
6.1075,-17152.0,-8064.0,-1152.0
6.11,-17216.0,-8064.0,-1152.0
6.1125,-17344.0,-8000.0,-1088.0
6.115,-17408.0,-7936.0,-1152.0
6.1175,-17472.0,-7808.0,-1216.0
6.12,-17472.0,-7808.0,-1280.0
6.1225,-17664.0,-7808.0,-1408.0
6.125,-17664.0,-7744.0,-1472.0
6.1275,-17664.0,-7744.0,-1472.0
6.13,-17728.0,-7680.0,-1536.0
6.1325,-17728.0,-7680.0,-1600.0
6.135,-17664.0,-7552.0,-1664.0
6.1375,-17600.0,-7616.0,-1664.0
6.14,-17472.0,-7552.0,-1664.0
6.1425,-17408.0,-7488.0,-1728.0
6.145,-17088.0,-7424.0,-1728.0
6.1475,-16960.0,-7360.0,-1728.0
6.15,-16832.0,-7296.0,-1728.0
6.1525,-16640.0,-7232.0,-1728.0
6.155,-16448.0,-7168.0,-1664.0
6.1575,-16256.0,-7168.0,-1728.0
6.16,-16064.0,-7104.0,-1600.0
6.1625,-15808.0,-7104.0,-1664.0
6.165,-15616.0,-7040.0,-1728.0
6.1675,-15360.0,-6976.0,-1728.0
6.17,-15040.0,-6976.0,-1664.0
6.1725,-14848.0,-6912.0,-1664.0
6.175,-14592.0,-6912.0,-1536.0
6.1775,-14336.0,-6912.0,-1536.0
6.18,-14144.0,-6848.0,-1536.0
6.1825,-13952.0,-6720.0,-1536.0
6.185,-13696.0,-6720.0,-1472.0
6.1875,-13440.0,-6720.0,-1472.0
6.19,-13248.0,-6720.0,-1408.0
6.1925,-12992.0,-6720.0,-1344.0
6.195,-12800.0,-6656.0,-1344.0
6.1975,-12608.0,-6592.0,-1216.0
6.2,-12352.0,-6528.0,-1216.0
6.2025,-12288.0,-6464.0,-1152.0
6.205,-12096.0,-6464.0,-1216.0
6.2075,-12032.0,-6528.0,-1280.0
6.21,-11968.0,-6464.0,-1344.0
6.2125,-11840.0,-6400.0,-1280.0
6.215,-11776.0,-6400.0,-1344.0
6.2175,-11712.0,-6400.0,-1408.0
6.22,-11648.0,-6400.0,-1344.0
6.2225,-11584.0,-6336.0,-1344.0
6.225,-11456.0,-6336.0,-1344.0
6.2275,-11456.0,-6272.0,-1344.0
6.23,-11328.0,-6208.0,-1408.0
6.2325,-11264.0,-6208.0,-1408.0
6.235,-11200.0,-6080.0,-1408.0
6.2375,-11136.0,-6016.0,-1472.0
6.24,-11136.0,-6016.0,-1536.0
6.2425,-11136.0,-5952.0,-1472.0
6.245,-11200.0,-5888.0,-1600.0
6.2475,-11136.0,-5824.0,-1664.0
6.25,-11200.0,-5760.0,-1664.0
6.2525,-11264.0,-5696.0,-1728.0
6.255,-11328.0,-5632.0,-1728.0
6.2575,-11392.0,-5632.0,-1792.0
6.26,-11392.0,-5632.0,-1856.0
6.2625,-11456.0,-5568.0,-1856.0
6.265,-11584.0,-5632.0,-1856.0
6.2675,-11648.0,-5632.0,-1920.0
6.27,-11776.0,-5632.0,-1856.0
6.2725,-11904.0,-5696.0,-1920.0
6.275,-12096.0,-5696.0,-1920.0
6.2775,-12288.0,-5696.0,-2048.0
6.28,-12416.0,-5760.0,-2048.0
6.2825,-12608.0,-5888.0,-2048.0
6.285,-12736.0,-5888.0,-2176.0
6.2875,-12928.0,-5952.0,-2240.0
6.29,-13120.0,-6016.0,-2368.0
6.2925,-13312.0,-6016.0,-2368.0
6.295,-13504.0,-6080.0,-2368.0
6.2975,-13632.0,-6144.0,-2368.0
6.3,-13760.0,-6208.0,-2432.0
6.3025,-14016.0,-6272.0,-2560.0
6.305,-14592.0,-6336.0,-2752.0
6.3075,-14784.0,-6336.0,-2880.0
6.31,-14912.0,-6336.0,-2880.0
6.3125,-15168.0,-6336.0,-3008.0
6.315,-15488.0,-6464.0,-2944.0
6.3175,-15744.0,-6464.0,-3008.0
6.32,-15936.0,-6464.0,-3072.0
6.3225,-16256.0,-6464.0,-3072.0
6.325,-16576.0,-6528.0,-3136.0
6.3275,-16832.0,-6528.0,-3136.0
6.33,-17088.0,-6464.0,-3328.0
6.3325,-17344.0,-6464.0,-3200.0
6.335,-17728.0,-6464.0,-3328.0
6.3375,-17984.0,-6528.0,-3392.0
6.34,-18240.0,-6528.0,-3328.0
6.3425,-18496.0,-6656.0,-3456.0
6.345,-18752.0,-6784.0,-3456.0
6.3475,-18944.0,-6848.0,-3456.0
6.35,-19200.0,-6848.0,-3520.0
6.3525,-19456.0,-6976.0,-3520.0
6.355,-19712.0,-7104.0,-3584.0
6.3575,-19904.0,-7232.0,-3584.0
6.36,-20160.0,-7296.0,-3648.0
6.3625,-20416.0,-7296.0,-3648.0
6.365,-20672.0,-7360.0,-3776.0
6.3675,-20800.0,-7488.0,-3776.0
6.37,-20800.0,-7488.0,-3776.0
6.3725,-20992.0,-7552.0,-3840.0
6.375,-21120.0,-7616.0,-3840.0
6.3775,-21248.0,-7744.0,-3904.0
6.38,-21312.0,-7808.0,-3776.0
6.3825,-21440.0,-7872.0,-3840.0
6.385,-21504.0,-7936.0,-3840.0
6.3875,-21440.0,-8000.0,-3904.0
6.39,-21248.0,-8000.0,-3904.0
6.3925,-21056.0,-8000.0,-3968.0
6.395,-20864.0,-7936.0,-3968.0
6.3975,-20672.0,-8000.0,-4032.0
6.4,-20416.0,-8000.0,-3968.0
6.4025,-20096.0,-8064.0,-3968.0
6.405,-19712.0,-8064.0,-3904.0
6.4075,-19392.0,-8000.0,-3904.0
6.41,-19008.0,-8000.0,-3904.0
6.4125,-18624.0,-8000.0,-3776.0
6.415,-18240.0,-8000.0,-3712.0
6.4175,-17792.0,-8064.0,-3712.0
6.42,-17216.0,-8128.0,-3520.0
6.4225,-16768.0,-8064.0,-3520.0
6.425,-16320.0,-8064.0,-3456.0
6.4275,-15872.0,-8064.0,-3392.0
6.43,-15360.0,-8128.0,-3264.0
6.4325,-14976.0,-8128.0,-3200.0
6.435,-14528.0,-8128.0,-3072.0
6.4375,-14080.0,-8128.0,-2880.0
6.44,-13696.0,-8128.0,-2752.0
6.4425,-13248.0,-8064.0,-2624.0
6.445,-12928.0,-8000.0,-2432.0
6.4475,-12544.0,-8000.0,-2368.0
6.45,-12224.0,-8000.0,-2240.0
6.4525,-12032.0,-8000.0,-2176.0
6.455,-11840.0,-7936.0,-2176.0
6.4575,-11584.0,-7936.0,-2112.0
6.46,-11328.0,-7872.0,-2112.0
6.4625,-11200.0,-7872.0,-2048.0
6.465,-10944.0,-7808.0,-1984.0
6.4675,-10816.0,-7808.0,-2048.0
6.47,-10752.0,-7872.0,-2048.0
6.4725,-10688.0,-7872.0,-2048.0
6.475,-10560.0,-7872.0,-2048.0
6.4775,-10496.0,-7872.0,-1984.0
6.48,-10432.0,-7936.0,-1920.0
6.4825,-10432.0,-8000.0,-1920.0
6.485,-10560.0,-8000.0,-1984.0
6.4875,-10624.0,-8000.0,-2048.0
6.49,-10688.0,-7936.0,-2048.0
6.4925,-10816.0,-8000.0,-2176.0
6.495,-11008.0,-8064.0,-2240.0
6.4975,-11200.0,-8064.0,-2304.0
6.5,-11456.0,-8064.0,-2432.0
6.5025,-11712.0,-8064.0,-2560.0
6.505,-11968.0,-8128.0,-2688.0
6.5075,-12352.0,-8128.0,-2816.0
6.51,-12608.0,-8192.0,-2944.0
6.5125,-12992.0,-8192.0,-3072.0
6.515,-13376.0,-8192.0,-3200.0
6.5175,-13760.0,-8192.0,-3264.0
6.52,-14144.0,-8192.0,-3392.0
6.5225,-14592.0,-8192.0,-3456.0
6.525,-14976.0,-8192.0,-3456.0
6.5275,-15424.0,-8256.0,-3584.0
6.53,-15744.0,-8256.0,-3648.0
6.5325,-16128.0,-8256.0,-3712.0
6.535,-16448.0,-8256.0,-3776.0
6.5375,-16832.0,-8320.0,-3776.0
6.54,-17152.0,-8384.0,-3840.0
6.5425,-17408.0,-8384.0,-3904.0
6.545,-17920.0,-8576.0,-3904.0
6.5475,-18112.0,-8704.0,-4032.0
6.55,-18368.0,-8832.0,-4096.0
6.5525,-18560.0,-8896.0,-4096.0
6.555,-18688.0,-8896.0,-4160.0
6.5575,-18752.0,-8960.0,-4224.0
6.56,-18752.0,-9024.0,-4160.0
6.5625,-18752.0,-8960.0,-4160.0
6.565,-18752.0,-8896.0,-4160.0
6.5675,-18816.0,-8896.0,-4032.0
6.57,-18752.0,-8960.0,-4032.0
6.5725,-18688.0,-8960.0,-4096.0
6.575,-18560.0,-8896.0,-4032.0
6.5775,-18368.0,-8832.0,-3968.0
6.58,-18176.0,-8896.0,-3968.0
6.5825,-17856.0,-8832.0,-3840.0
6.585,-17728.0,-8768.0,-3840.0
6.5875,-17536.0,-8640.0,-3776.0
6.59,-17344.0,-8512.0,-3712.0
6.5925,-17152.0,-8384.0,-3648.0
6.595,-16960.0,-8320.0,-3520.0
6.5975,-16640.0,-8320.0,-3392.0
6.6,-16384.0,-8256.0,-3264.0
6.6025,-16064.0,-8192.0,-3136.0
6.605,-15744.0,-8128.0,-2944.0
6.6075,-15424.0,-8128.0,-2752.0
6.61,-15104.0,-8128.0,-2560.0
6.6125,-14784.0,-8000.0,-2432.0
6.615,-14336.0,-7936.0,-2304.0
6.6175,-14016.0,-7872.0,-2112.0
6.62,-13632.0,-7808.0,-1920.0
6.6225,-13248.0,-7808.0,-1664.0
6.625,-12480.0,-7744.0,-1344.0
6.6275,-12096.0,-7680.0,-1280.0
6.63,-11840.0,-7616.0,-1152.0
6.6325,-11456.0,-7616.0,-1152.0
6.635,-11136.0,-7552.0,-960.0
6.6375,-10816.0,-7552.0,-832.0
6.64,-10368.0,-7488.0,-768.0
6.6425,-10112.0,-7488.0,-768.0
6.645,-9728.0,-7424.0,-704.0
6.6475,-9408.0,-7360.0,-640.0
6.65,-9152.0,-7360.0,-640.0
6.6525,-8896.0,-7360.0,-576.0
6.655,-8704.0,-7296.0,-576.0
6.6575,-8512.0,-7296.0,-576.0
6.66,-8384.0,-7296.0,-640.0
6.6625,-8256.0,-7360.0,-640.0
6.665,-8128.0,-7424.0,-704.0
6.6675,-8000.0,-7424.0,-768.0
6.67,-7936.0,-7424.0,-896.0
6.6725,-7872.0,-7424.0,-960.0
6.675,-7808.0,-7424.0,-960.0
6.6775,-7744.0,-7424.0,-1024.0
6.68,-7808.0,-7424.0,-960.0
6.6825,-7872.0,-7360.0,-1088.0
6.685,-7872.0,-7424.0,-1152.0
6.6875,-8064.0,-7424.0,-1216.0
6.69,-8192.0,-7360.0,-1344.0
6.6925,-8320.0,-7360.0,-1408.0
6.695,-8512.0,-7296.0,-1472.0
6.6975,-8768.0,-7296.0,-1728.0
6.7,-8960.0,-7232.0,-1856.0
6.7025,-9344.0,-7296.0,-1984.0
6.705,-10176.0,-7360.0,-2240.0
6.7075,-10688.0,-7424.0,-2368.0
6.71,-11264.0,-7488.0,-2432.0
6.7125,-11776.0,-7552.0,-2496.0
6.715,-12288.0,-7616.0,-2624.0
6.7175,-12864.0,-7616.0,-2752.0
6.72,-13440.0,-7680.0,-2880.0
6.7225,-14016.0,-7680.0,-2944.0
6.725,-14656.0,-7680.0,-3072.0
6.7275,-15296.0,-7680.0,-3136.0
6.73,-15872.0,-7744.0,-3200.0
6.7325,-16512.0,-7808.0,-3264.0
6.735,-17152.0,-7872.0,-3392.0
6.7375,-17792.0,-7872.0,-3392.0
6.74,-18368.0,-7936.0,-3392.0
6.7425,-18944.0,-7936.0,-3456.0
6.745,-19456.0,-7872.0,-3456.0
6.7475,-19840.0,-7936.0,-3392.0
6.75,-20096.0,-7936.0,-3392.0
6.7525,-20352.0,-8064.0,-3392.0
6.755,-20544.0,-8128.0,-3392.0
6.7575,-20672.0,-8256.0,-3328.0
6.76,-20864.0,-8256.0,-3328.0
6.7625,-20864.0,-8320.0,-3328.0
6.765,-20928.0,-8320.0,-3264.0
6.7675,-20928.0,-8320.0,-3136.0
6.77,-20864.0,-8384.0,-3008.0
6.7725,-20864.0,-8448.0,-3008.0
6.775,-20736.0,-8448.0,-3008.0
6.7775,-20544.0,-8448.0,-3008.0
6.78,-20224.0,-8512.0,-2944.0
6.7825,-19904.0,-8576.0,-2880.0
6.785,-19264.0,-8448.0,-2688.0
6.7875,-18880.0,-8448.0,-2624.0
6.79,-18624.0,-8448.0,-2432.0
6.7925,-18304.0,-8512.0,-2432.0
6.795,-17856.0,-8512.0,-2304.0
6.7975,-17472.0,-8448.0,-2176.0
6.8,-17088.0,-8448.0,-2048.0
6.8025,-16576.0,-8448.0,-1920.0
6.805,-16256.0,-8448.0,-1856.0
6.8075,-15872.0,-8448.0,-1600.0
6.81,-15424.0,-8384.0,-1472.0
6.8125,-14912.0,-8384.0,-1280.0
6.815,-14400.0,-8384.0,-1088.0
6.8175,-13888.0,-8448.0,-1024.0
6.82,-13440.0,-8448.0,-896.0
6.8225,-13056.0,-8448.0,-704.0
6.825,-12672.0,-8448.0,-640.0
6.8275,-12288.0,-8512.0,-512.0
6.83,-11968.0,-8512.0,-384.0
6.8325,-11776.0,-8512.0,-320.0
6.835,-11520.0,-8512.0,-256.0
6.8375,-11392.0,-8512.0,-256.0
6.84,-11328.0,-8448.0,-320.0
6.8425,-11264.0,-8512.0,-256.0
6.845,-11328.0,-8448.0,-384.0
6.8475,-11392.0,-8448.0,-512.0
6.85,-11392.0,-8448.0,-512.0
6.8525,-11392.0,-8448.0,-576.0
6.855,-11456.0,-8448.0,-640.0
6.8575,-11584.0,-8448.0,-704.0
6.86,-11648.0,-8512.0,-960.0
6.8625,-11776.0,-8512.0,-1024.0
6.865,-12032.0,-8448.0,-1408.0
6.8675,-12160.0,-8512.0,-1472.0
6.87,-12288.0,-8512.0,-1600.0
6.8725,-12352.0,-8576.0,-1728.0
6.875,-12480.0,-8576.0,-1856.0
6.8775,-12608.0,-8704.0,-1856.0
6.88,-12672.0,-8768.0,-1920.0
6.8825,-12672.0,-8768.0,-2048.0
6.885,-12736.0,-8832.0,-2112.0
6.8875,-12736.0,-8896.0,-2176.0
6.89,-12864.0,-8960.0,-2176.0
6.8925,-12928.0,-8960.0,-2112.0
6.895,-12992.0,-8896.0,-2112.0
6.8975,-12992.0,-8896.0,-2176.0
6.9,-13056.0,-8832.0,-2112.0
6.9025,-13056.0,-8768.0,-2048.0
6.905,-13120.0,-8768.0,-1984.0
6.9075,-13184.0,-8768.0,-1920.0
6.91,-13248.0,-8704.0,-1856.0
6.9125,-13184.0,-8704.0,-1856.0
6.915,-13248.0,-8768.0,-1792.0
6.9175,-13248.0,-8704.0,-1792.0
6.92,-13312.0,-8640.0,-1792.0
6.9225,-13248.0,-8576.0,-1792.0
6.925,-13184.0,-8576.0,-1792.0
6.9275,-13248.0,-8640.0,-1792.0
6.93,-13248.0,-8640.0,-1792.0
6.9325,-13312.0,-8576.0,-1728.0
6.935,-13312.0,-8512.0,-1728.0
6.9375,-13248.0,-8448.0,-1792.0
6.94,-13312.0,-8448.0,-1856.0
6.9425,-13312.0,-8448.0,-1728.0
6.945,-13312.0,-8384.0,-1728.0
6.9475,-13248.0,-8384.0,-1792.0
6.95,-13120.0,-8448.0,-1856.0
6.9525,-13120.0,-8448.0,-1920.0
6.955,-13184.0,-8448.0,-2112.0
6.9575,-13184.0,-8320.0,-2048.0
6.96,-13184.0,-8256.0,-2112.0
6.9625,-13120.0,-8192.0,-2176.0
6.965,-13184.0,-8192.0,-2240.0
6.9675,-13056.0,-8064.0,-2304.0
6.97,-13056.0,-8000.0,-2368.0
6.9725,-12992.0,-7936.0,-2368.0
6.975,-12992.0,-7808.0,-2368.0
6.9775,-12928.0,-7744.0,-2368.0
6.98,-12864.0,-7744.0,-2368.0
6.9825,-12800.0,-7616.0,-2496.0
6.985,-12736.0,-7616.0,-2496.0
6.9875,-12736.0,-7552.0,-2432.0
6.99,-12736.0,-7552.0,-2432.0
6.9925,-12864.0,-7552.0,-2496.0
6.995,-12800.0,-7552.0,-2496.0
6.9975,-12800.0,-7552.0,-2624.0
7.0,-12736.0,-7552.0,-2688.0
7.0025,-12800.0,-7488.0,-2688.0
7.005,-12800.0,-7552.0,-2752.0
7.0075,-12736.0,-7616.0,-2688.0
7.01,-12800.0,-7616.0,-2688.0
7.0125,-12800.0,-7744.0,-2624.0
7.015,-12800.0,-7680.0,-2624.0
7.0175,-12864.0,-7680.0,-2688.0
7.02,-12928.0,-7680.0,-2688.0
7.0225,-12992.0,-7680.0,-2560.0
7.025,-13184.0,-7808.0,-2624.0
7.0275,-13248.0,-7872.0,-2624.0
7.03,-13312.0,-7936.0,-2688.0
7.0325,-13440.0,-7936.0,-2624.0
7.035,-13504.0,-8000.0,-2624.0
7.0375,-13568.0,-8000.0,-2624.0
7.04,-13568.0,-8064.0,-2560.0
7.0425,-13632.0,-8064.0,-2560.0
7.045,-13632.0,-8064.0,-2624.0
7.0475,-13760.0,-8128.0,-2624.0
7.05,-13760.0,-8064.0,-2624.0
7.0525,-13824.0,-8064.0,-2560.0
7.055,-13888.0,-8128.0,-2560.0
7.0575,-13952.0,-8064.0,-2560.0
7.06,-13952.0,-8128.0,-2496.0
7.0625,-14016.0,-8128.0,-2496.0
7.065,-14080.0,-8192.0,-2560.0
7.0675,-14144.0,-8192.0,-2496.0
7.07,-14208.0,-8192.0,-2496.0
7.0725,-14272.0,-8192.0,-2560.0
7.075,-14336.0,-8192.0,-2560.0
7.0775,-14464.0,-8192.0,-2624.0
7.08,-14528.0,-8192.0,-2624.0
7.0825,-14528.0,-8192.0,-2688.0
7.085,-14656.0,-8256.0,-2624.0
7.0875,-14720.0,-8256.0,-2688.0
7.09,-14784.0,-8320.0,-2624.0
7.0925,-14784.0,-8320.0,-2624.0
7.095,-14848.0,-8320.0,-2688.0
7.0975,-14848.0,-8320.0,-2560.0
7.1,-14912.0,-8384.0,-2560.0
7.1025,-14912.0,-8448.0,-2560.0
7.105,-14976.0,-8384.0,-2560.0
7.1075,-14976.0,-8384.0,-2560.0
7.11,-14912.0,-8384.0,-2560.0
7.1125,-14912.0,-8384.0,-2496.0
7.115,-14848.0,-8384.0,-2496.0
7.1175,-14848.0,-8384.0,-2496.0
7.12,-14848.0,-8320.0,-2496.0
7.1225,-14848.0,-8320.0,-2432.0
7.125,-14784.0,-8320.0,-2496.0
7.1275,-14784.0,-8256.0,-2432.0
7.13,-14720.0,-8192.0,-2432.0
7.1325,-14656.0,-8128.0,-2432.0
7.135,-14528.0,-8128.0,-2368.0
7.1375,-14400.0,-8064.0,-2432.0
7.14,-14336.0,-8128.0,-2368.0
7.1425,-14208.0,-8128.0,-2368.0
7.145,-14144.0,-8128.0,-2368.0
7.1475,-14144.0,-8192.0,-2432.0
7.15,-14208.0,-8256.0,-2496.0
7.1525,-14080.0,-8256.0,-2496.0
7.155,-14016.0,-8256.0,-2560.0
7.1575,-14016.0,-8320.0,-2560.0
7.16,-14016.0,-8320.0,-2560.0
7.1625,-13952.0,-8320.0,-2496.0
7.165,-13888.0,-8384.0,-2496.0
7.1675,-13824.0,-8384.0,-2432.0
7.17,-13760.0,-8320.0,-2432.0
7.1725,-13696.0,-8320.0,-2368.0
7.175,-13696.0,-8256.0,-2368.0
7.1775,-13568.0,-8256.0,-2368.0
7.18,-13504.0,-8192.0,-2240.0
7.1825,-13440.0,-8128.0,-2240.0
7.185,-13440.0,-8128.0,-2112.0
7.1875,-13376.0,-8064.0,-2112.0
7.19,-13312.0,-7936.0,-2112.0
7.1925,-13312.0,-7936.0,-2112.0
7.195,-13312.0,-7872.0,-2112.0
7.1975,-13312.0,-7872.0,-2048.0
7.2,-13248.0,-7744.0,-2112.0
7.2025,-13248.0,-7744.0,-2176.0
7.205,-13184.0,-7744.0,-2176.0
7.2075,-13184.0,-7744.0,-2240.0
7.21,-13184.0,-7808.0,-2240.0
7.2125,-13248.0,-7744.0,-2240.0
7.215,-13248.0,-7680.0,-2240.0
7.2175,-13248.0,-7680.0,-2240.0
7.22,-13248.0,-7552.0,-2240.0
7.2225,-13312.0,-7680.0,-2304.0
7.225,-13312.0,-7680.0,-2240.0
7.2275,-13312.0,-7808.0,-2304.0
7.23,-13440.0,-7808.0,-2304.0
7.2325,-13440.0,-7808.0,-2304.0
7.235,-13504.0,-7808.0,-2304.0
7.2375,-13568.0,-7744.0,-2304.0
7.24,-13568.0,-7808.0,-2304.0
7.2425,-13632.0,-7872.0,-2240.0
7.245,-13696.0,-7872.0,-2240.0
7.2475,-13696.0,-7936.0,-2240.0
7.25,-13824.0,-7872.0,-2304.0
7.2525,-13824.0,-7936.0,-2304.0
7.255,-13888.0,-8000.0,-2304.0
7.2575,-14016.0,-8000.0,-2304.0
7.26,-13952.0,-8064.0,-2368.0
7.2625,-14080.0,-8064.0,-2368.0
7.265,-14144.0,-8192.0,-2432.0
7.2675,-14208.0,-8256.0,-2496.0
7.27,-14208.0,-8192.0,-2496.0
7.2725,-14208.0,-8192.0,-2496.0
7.275,-14208.0,-8192.0,-2560.0
7.2775,-14208.0,-8256.0,-2496.0
7.28,-14208.0,-8256.0,-2496.0
7.2825,-14208.0,-8192.0,-2560.0
7.285,-14144.0,-8256.0,-2560.0
7.2875,-14080.0,-8192.0,-2496.0
7.29,-14016.0,-8192.0,-2496.0
7.2925,-13952.0,-8128.0,-2496.0
7.295,-13888.0,-8128.0,-2432.0
7.2975,-13824.0,-8128.0,-2432.0
7.3,-13888.0,-8000.0,-2496.0
7.3025,-13824.0,-8000.0,-2368.0
7.305,-13760.0,-7936.0,-2240.0
7.3075,-13696.0,-7936.0,-2240.0
7.31,-13632.0,-7936.0,-2176.0
7.3125,-13632.0,-7936.0,-2112.0
7.315,-13632.0,-7872.0,-1984.0
7.3175,-13632.0,-7872.0,-2048.0
7.32,-13632.0,-7808.0,-1984.0
7.3225,-13632.0,-7808.0,-2048.0
7.325,-13632.0,-7872.0,-1984.0
7.3275,-13632.0,-7872.0,-1984.0
7.33,-13632.0,-7872.0,-1984.0
7.3325,-13632.0,-7936.0,-1984.0
7.335,-13696.0,-7936.0,-2048.0
7.3375,-13760.0,-7936.0,-2048.0
7.34,-13760.0,-8064.0,-2048.0
7.3425,-13824.0,-8128.0,-2048.0
7.345,-14016.0,-8192.0,-2112.0
7.3475,-14016.0,-8192.0,-2176.0
7.35,-14144.0,-8192.0,-2304.0
7.3525,-14144.0,-8192.0,-2304.0
7.355,-14272.0,-8256.0,-2304.0
7.3575,-14272.0,-8192.0,-2368.0
7.36,-14336.0,-8256.0,-2368.0
7.3625,-14464.0,-8256.0,-2432.0
7.365,-14464.0,-8192.0,-2432.0
7.3675,-14464.0,-8192.0,-2496.0
7.37,-14592.0,-8192.0,-2496.0
7.3725,-14656.0,-8128.0,-2496.0
7.375,-14784.0,-8192.0,-2560.0
7.3775,-14784.0,-8128.0,-2560.0
7.38,-14848.0,-8128.0,-2560.0
7.3825,-14848.0,-8128.0,-2560.0
7.385,-14912.0,-8064.0,-2624.0
7.3875,-14912.0,-8064.0,-2496.0
7.39,-14912.0,-8064.0,-2560.0
7.3925,-14976.0,-8000.0,-2560.0
7.395,-15104.0,-7936.0,-2560.0
7.3975,-15104.0,-7936.0,-2560.0
7.4,-15104.0,-7936.0,-2496.0
7.4025,-15168.0,-7872.0,-2432.0
7.405,-15232.0,-7808.0,-2496.0
7.4075,-15232.0,-7744.0,-2432.0
7.41,-15232.0,-7744.0,-2432.0
7.4125,-15232.0,-7808.0,-2368.0
7.415,-15168.0,-7808.0,-2368.0
7.4175,-15040.0,-7744.0,-2304.0
7.42,-14976.0,-7808.0,-2368.0
7.4225,-14912.0,-7808.0,-2304.0
7.425,-14720.0,-7872.0,-2176.0
7.4275,-14592.0,-7808.0,-2240.0
7.43,-14464.0,-7936.0,-2176.0
7.4325,-14400.0,-7936.0,-2112.0
7.435,-14208.0,-7936.0,-2176.0
7.4375,-14080.0,-7872.0,-2112.0
7.44,-13952.0,-7872.0,-2112.0
7.4425,-13760.0,-7936.0,-2112.0
7.445,-13632.0,-8000.0,-2048.0
7.4475,-13632.0,-7936.0,-1984.0
7.45,-13376.0,-7872.0,-2048.0
7.4525,-13248.0,-7872.0,-2048.0
7.455,-13120.0,-7808.0,-2048.0
7.4575,-12992.0,-7872.0,-1984.0
7.46,-12928.0,-7872.0,-1984.0
7.4625,-12800.0,-7872.0,-1984.0
7.465,-12672.0,-7808.0,-1984.0
7.4675,-12608.0,-7808.0,-1920.0
7.47,-12544.0,-7808.0,-1920.0
7.4725,-12416.0,-7872.0,-1856.0
7.475,-12352.0,-7936.0,-1856.0
7.4775,-12352.0,-7936.0,-1856.0
7.48,-12352.0,-7936.0,-1920.0
7.4825,-12352.0,-8000.0,-1984.0
7.485,-12352.0,-8000.0,-1920.0
7.4875,-12416.0,-8000.0,-1920.0
7.49,-12480.0,-7936.0,-1984.0
7.4925,-12544.0,-7872.0,-2048.0
7.495,-12608.0,-7808.0,-2048.0
7.4975,-12736.0,-7744.0,-2048.0
7.5,-12864.0,-7680.0,-2112.0
7.5025,-13056.0,-7744.0,-2176.0
7.505,-13440.0,-7616.0,-2240.0
7.5075,-13632.0,-7488.0,-2304.0
7.51,-13888.0,-7488.0,-2304.0
7.5125,-14080.0,-7488.0,-2304.0
7.515,-14336.0,-7616.0,-2368.0
7.5175,-14592.0,-7616.0,-2496.0
7.52,-14784.0,-7744.0,-2560.0
7.5225,-14976.0,-7808.0,-2560.0
7.525,-15232.0,-7744.0,-2624.0
7.5275,-15488.0,-7808.0,-2688.0
7.53,-15680.0,-7872.0,-2688.0
7.5325,-15808.0,-7936.0,-2688.0
7.535,-16000.0,-8000.0,-2752.0
7.5375,-16128.0,-8128.0,-2752.0
7.54,-16192.0,-8128.0,-2880.0
7.5425,-16320.0,-8256.0,-2816.0
7.545,-16320.0,-8320.0,-2880.0
7.5475,-16320.0,-8256.0,-2944.0
7.55,-16384.0,-8320.0,-2880.0
7.5525,-16320.0,-8320.0,-2944.0
7.555,-16384.0,-8320.0,-2880.0
7.5575,-16320.0,-8320.0,-2880.0
7.56,-16320.0,-8320.0,-2944.0
7.5625,-16192.0,-8320.0,-2816.0
7.565,-16064.0,-8256.0,-2880.0
7.5675,-16000.0,-8256.0,-2816.0
7.57,-16000.0,-8256.0,-2880.0
7.5725,-15936.0,-8192.0,-2880.0
7.575,-15872.0,-8128.0,-2880.0
7.5775,-15808.0,-8064.0,-2816.0
7.58,-15744.0,-8064.0,-2880.0
7.5825,-15680.0,-8000.0,-2880.0
7.585,-15488.0,-7808.0,-2880.0
7.5875,-15424.0,-7744.0,-2880.0
7.59,-15424.0,-7680.0,-2944.0
7.5925,-15360.0,-7680.0,-2944.0
7.595,-15360.0,-7680.0,-2944.0
7.5975,-15296.0,-7616.0,-2880.0
7.6,-15232.0,-7552.0,-2880.0
7.6025,-15232.0,-7616.0,-2752.0
7.605,-15168.0,-7552.0,-2752.0
7.6075,-15104.0,-7424.0,-2752.0
7.61,-14976.0,-7360.0,-2624.0
7.6125,-14912.0,-7296.0,-2560.0
7.615,-14848.0,-7360.0,-2496.0
7.6175,-14784.0,-7360.0,-2432.0
7.62,-14720.0,-7424.0,-2304.0
7.6225,-14592.0,-7424.0,-2304.0
7.625,-14528.0,-7424.0,-2368.0
7.6275,-14528.0,-7424.0,-2304.0
7.63,-14592.0,-7424.0,-2304.0
7.6325,-14528.0,-7488.0,-2368.0
7.635,-14400.0,-7488.0,-2304.0
7.6375,-14400.0,-7552.0,-2432.0
7.64,-14336.0,-7488.0,-2432.0
7.6425,-14336.0,-7552.0,-2496.0
7.645,-14336.0,-7616.0,-2496.0
7.6475,-14336.0,-7552.0,-2496.0
7.65,-14336.0,-7552.0,-2560.0
7.6525,-14336.0,-7552.0,-2560.0
7.655,-14336.0,-7552.0,-2560.0
7.6575,-14400.0,-7488.0,-2560.0
7.66,-14464.0,-7488.0,-2624.0
7.6625,-14464.0,-7552.0,-2560.0
7.665,-14400.0,-7424.0,-2560.0
7.6675,-14400.0,-7424.0,-2624.0
7.67,-14464.0,-7424.0,-2624.0
7.6725,-14400.0,-7360.0,-2688.0
7.675,-14528.0,-7360.0,-2688.0
7.6775,-14592.0,-7424.0,-2688.0
7.68,-14592.0,-7424.0,-2752.0
7.6825,-14592.0,-7360.0,-2816.0
7.685,-14656.0,-7232.0,-2880.0
7.6875,-14720.0,-7232.0,-2880.0
7.69,-14656.0,-7104.0,-2880.0
7.6925,-14656.0,-7104.0,-2880.0
7.695,-14656.0,-7104.0,-2816.0
7.6975,-14656.0,-7104.0,-2816.0
7.7,-14720.0,-7104.0,-2880.0
7.7025,-14848.0,-7104.0,-2816.0
7.705,-14848.0,-7104.0,-2816.0
7.7075,-14848.0,-7104.0,-2880.0
7.71,-14912.0,-7104.0,-2880.0
7.7125,-15040.0,-7040.0,-2880.0
7.715,-15168.0,-7040.0,-2816.0
7.7175,-15232.0,-7040.0,-2816.0
7.72,-15296.0,-7040.0,-2816.0
7.7225,-15424.0,-6976.0,-2816.0
7.725,-15488.0,-7040.0,-2816.0
7.7275,-15552.0,-7104.0,-2816.0
7.73,-15552.0,-7104.0,-2880.0
7.7325,-15680.0,-7104.0,-2816.0
7.735,-15744.0,-7168.0,-2880.0
7.7375,-15744.0,-7168.0,-2816.0
7.74,-15808.0,-7232.0,-2880.0
7.7425,-15872.0,-7232.0,-2880.0
7.745,-15936.0,-7168.0,-2880.0
7.7475,-15936.0,-7232.0,-2880.0
7.75,-15936.0,-7168.0,-2880.0
7.7525,-15872.0,-7232.0,-2944.0
7.755,-15808.0,-7296.0,-2944.0
7.7575,-15808.0,-7296.0,-2880.0
7.76,-15680.0,-7232.0,-2816.0
7.7625,-15680.0,-7296.0,-2816.0
7.765,-15680.0,-7296.0,-2880.0
7.7675,-15552.0,-7232.0,-2816.0
7.77,-15488.0,-7232.0,-2752.0
7.7725,-15488.0,-7232.0,-2752.0
7.775,-15424.0,-7232.0,-2752.0
7.7775,-15360.0,-7168.0,-2816.0
7.78,-15360.0,-7168.0,-2816.0
7.7825,-15232.0,-7232.0,-2752.0
7.785,-15104.0,-7232.0,-2752.0
7.7875,-14976.0,-7104.0,-2688.0
7.79,-14848.0,-7104.0,-2688.0
7.7925,-14784.0,-7040.0,-2624.0
7.795,-14656.0,-6976.0,-2688.0
7.7975,-14528.0,-6912.0,-2624.0
7.8,-14400.0,-6848.0,-2496.0
7.8025,-14272.0,-6848.0,-2496.0
7.805,-14144.0,-6784.0,-2432.0
7.8075,-13952.0,-6784.0,-2432.0
7.81,-13888.0,-6848.0,-2368.0
7.8125,-13760.0,-6784.0,-2432.0
7.815,-13632.0,-6848.0,-2368.0
7.8175,-13568.0,-6848.0,-2304.0
7.82,-13440.0,-6784.0,-2176.0
7.8225,-13248.0,-6784.0,-2176.0
7.825,-12992.0,-6784.0,-2048.0
7.8275,-12864.0,-6720.0,-2048.0
7.83,-12608.0,-6784.0,-1984.0
7.8325,-12480.0,-6848.0,-1920.0
7.835,-12288.0,-6784.0,-1856.0
7.8375,-12160.0,-6720.0,-1728.0
7.84,-11968.0,-6656.0,-1664.0
7.8425,-11840.0,-6656.0,-1600.0
7.845,-11776.0,-6592.0,-1536.0
7.8475,-11520.0,-6592.0,-1536.0
7.85,-11456.0,-6592.0,-1472.0
7.8525,-11264.0,-6528.0,-1472.0
7.855,-11072.0,-6464.0,-1408.0
7.8575,-10944.0,-6400.0,-1408.0
7.86,-10752.0,-6400.0,-1408.0
7.8625,-10624.0,-6336.0,-1344.0
7.865,-10432.0,-6336.0,-1280.0
7.8675,-10304.0,-6272.0,-1216.0
7.87,-10112.0,-6208.0,-1216.0
7.8725,-10048.0,-6208.0,-1024.0
7.875,-9920.0,-6208.0,-960.0
7.8775,-9792.0,-6144.0,-832.0
7.88,-9664.0,-6080.0,-832.0
7.8825,-9664.0,-6016.0,-832.0
7.885,-9600.0,-6016.0,-832.0
7.8875,-9600.0,-6144.0,-768.0
7.89,-9600.0,-6208.0,-832.0
7.8925,-9664.0,-6336.0,-960.0
7.895,-9792.0,-6400.0,-1024.0
7.8975,-9920.0,-6400.0,-1152.0
7.9,-10048.0,-6336.0,-1472.0
7.9025,-10240.0,-6336.0,-1600.0
7.905,-10688.0,-6272.0,-1856.0
7.9075,-10816.0,-6336.0,-2112.0
7.91,-10880.0,-6336.0,-2304.0
7.9125,-11072.0,-6336.0,-2496.0
7.915,-11200.0,-6464.0,-2688.0
7.9175,-11328.0,-6784.0,-2816.0
7.92,-11520.0,-6912.0,-3072.0
7.9225,-11648.0,-7168.0,-3264.0
7.925,-11904.0,-7296.0,-3520.0
7.9275,-12096.0,-7424.0,-3776.0
7.93,-12288.0,-7360.0,-3968.0
7.9325,-12480.0,-7360.0,-4096.0
7.935,-12736.0,-7360.0,-4288.0
7.9375,-12928.0,-7360.0,-4352.0
7.94,-13248.0,-7296.0,-4480.0
7.9425,-13504.0,-7232.0,-4608.0
7.945,-13824.0,-7168.0,-4672.0
7.9475,-14080.0,-7168.0,-4672.0
7.95,-14336.0,-7232.0,-4736.0
7.9525,-14592.0,-7232.0,-4864.0
7.955,-14976.0,-7232.0,-4800.0
7.9575,-15232.0,-7232.0,-4800.0
7.96,-15424.0,-7232.0,-4672.0
7.9625,-15616.0,-7232.0,-4480.0
7.965,-15808.0,-7296.0,-4224.0
7.9675,-16064.0,-7424.0,-3904.0
7.97,-16256.0,-7488.0,-3648.0
7.9725,-16448.0,-7488.0,-3392.0
7.975,-16576.0,-7552.0,-3072.0
7.9775,-16832.0,-7744.0,-2752.0
7.98,-16960.0,-7872.0,-2560.0
7.9825,-17216.0,-8000.0,-2432.0
7.985,-17728.0,-7936.0,-2048.0
7.9875,-18048.0,-8000.0,-1920.0
7.99,-18176.0,-8000.0,-1856.0
7.9925,-18432.0,-8000.0,-1792.0
7.995,-18624.0,-8000.0,-1728.0
7.9975,-18880.0,-8128.0,-1728.0
8.0,-19200.0,-8192.0,-1664.0
8.0025,-19520.0,-8320.0,-1664.0
8.005,-19840.0,-8384.0,-1664.0
8.0075,-20224.0,-8448.0,-1728.0
8.01,-20608.0,-8640.0,-1856.0
8.0125,-20928.0,-8832.0,-1920.0
8.015,-21184.0,-9088.0,-1920.0
8.0175,-21184.0,-9088.0,-1920.0
8.02,-21568.0,-9216.0,-1984.0
8.0225,-21952.0,-9472.0,-2112.0
8.025,-22272.0,-9600.0,-2112.0
8.0275,-22592.0,-9728.0,-2176.0
8.03,-22976.0,-9792.0,-2240.0
8.0325,-23360.0,-9920.0,-2240.0
8.035,-23808.0,-10048.0,-2240.0
8.0375,-24000.0,-10176.0,-2304.0
8.04,-24320.0,-10240.0,-2432.0
8.0425,-24576.0,-10368.0,-2496.0
8.045,-24768.0,-10432.0,-2624.0
8.0475,-25088.0,-10560.0,-2816.0
8.05,-25280.0,-10624.0,-2880.0
8.0525,-25664.0,-10560.0,-3072.0
8.055,-25920.0,-10560.0,-3264.0
8.0575,-26240.0,-10496.0,-3392.0
8.06,-26624.0,-10432.0,-3584.0
8.0625,-27008.0,-10432.0,-3712.0
8.065,-27904.0,-10176.0,-4224.0
8.0675,-28352.0,-10112.0,-4416.0
8.07,-28864.0,-9984.0,-4608.0
8.0725,-29568.0,-9920.0,-4736.0
8.075,-30336.0,-9856.0,-4992.0
8.0775,-31104.0,-9728.0,-5184.0
8.08,-31808.0,-9600.0,-5248.0
8.0825,-32192.0,-9472.0,-5376.0
8.085,-32448.0,-9344.0,-5440.0
8.0875,-32576.0,-9152.0,-5312.0
8.09,-32576.0,-8960.0,-5184.0
8.0925,-32640.0,-8768.0,-5184.0
8.095,-32640.0,-8704.0,-5120.0
8.0975,-32640.0,-8640.0,-4992.0
8.1,-32640.0,-8640.0,-4928.0
8.1025,-32640.0,-8768.0,-4864.0
8.105,-32640.0,-8960.0,-4800.0
8.1075,-32640.0,-9088.0,-4800.0
8.11,-32640.0,-9152.0,-4608.0
8.1125,-32640.0,-9216.0,-4544.0
8.115,-32640.0,-9280.0,-4288.0
8.1175,-32640.0,-9216.0,-4032.0
8.12,-32640.0,-9152.0,-3776.0
8.1225,-32512.0,-9024.0,-3584.0
8.125,-32000.0,-8768.0,-3264.0
8.1275,-31104.0,-8384.0,-2880.0
8.13,-30208.0,-8128.0,-2560.0
8.1325,-29312.0,-7744.0,-2112.0
8.135,-28416.0,-7360.0,-1600.0
8.1375,-27520.0,-6912.0,-1216.0
8.14,-26432.0,-6272.0,-896.0
8.1425,-25280.0,-5632.0,-640.0
8.145,-22784.0,-4416.0,-64.0
8.1475,-21696.0,-3904.0,256.0
8.15,-20672.0,-3392.0,512.0
8.1525,-19584.0,-2880.0,704.0
8.155,-18560.0,-2368.0,960.0
8.1575,-17472.0,-2048.0,1024.0
8.16,-16448.0,-1792.0,1024.0
8.1625,-15424.0,-1664.0,1024.0
8.165,-14528.0,-1600.0,1024.0
8.1675,-13568.0,-1664.0,896.0
8.17,-12736.0,-1600.0,896.0
8.1725,-11840.0,-1664.0,768.0
8.175,-11136.0,-1664.0,704.0
8.1775,-10432.0,-1728.0,576.0
8.18,-9792.0,-1792.0,576.0
8.1825,-9280.0,-1856.0,512.0
8.185,-8896.0,-1920.0,384.0
8.1875,-8576.0,-1920.0,320.0
8.19,-8384.0,-2048.0,192.0
8.1925,-8192.0,-2048.0,0.0
8.195,-8128.0,-2048.0,-64.0
8.1975,-8192.0,-2112.0,-256.0
8.2,-8320.0,-2176.0,-320.0
8.2025,-8448.0,-2304.0,-448.0
8.205,-8640.0,-2368.0,-576.0
8.2075,-8896.0,-2432.0,-640.0
8.21,-9216.0,-2560.0,-640.0
8.2125,-9600.0,-2688.0,-576.0
8.215,-9920.0,-2816.0,-576.0
8.2175,-10176.0,-2880.0,-576.0
8.22,-10432.0,-2880.0,-512.0
8.2225,-10752.0,-2816.0,-384.0
8.225,-11136.0,-2432.0,-64.0
8.2275,-11392.0,-2368.0,64.0
8.23,-11648.0,-2304.0,128.0
8.2325,-11840.0,-2304.0,128.0
8.235,-12096.0,-2240.0,256.0
8.2375,-12352.0,-2304.0,256.0
8.24,-12544.0,-2304.0,384.0
8.2425,-12736.0,-2240.0,448.0
8.245,-12800.0,-2048.0,576.0
8.2475,-12864.0,-1856.0,704.0
8.25,-12928.0,-1600.0,832.0
8.2525,-12928.0,-1472.0,960.0
8.255,-12864.0,-1472.0,1024.0
8.2575,-12736.0,-1408.0,1024.0
8.26,-12736.0,-1344.0,960.0
8.2625,-12736.0,-1280.0,896.0
8.265,-12736.0,-1216.0,768.0
8.2675,-12736.0,-1088.0,832.0
8.27,-12672.0,-1024.0,704.0
8.2725,-12736.0,-960.0,704.0
8.275,-12800.0,-896.0,640.0
8.2775,-12800.0,-896.0,640.0
8.28,-12800.0,-960.0,512.0
8.2825,-12800.0,-832.0,512.0
8.285,-12864.0,-832.0,512.0
8.2875,-12864.0,-768.0,448.0
8.29,-12864.0,-768.0,512.0
8.2925,-12864.0,-768.0,448.0
8.295,-12864.0,-768.0,512.0
8.2975,-12864.0,-768.0,512.0
8.3,-12864.0,-768.0,512.0
8.3025,-12864.0,-768.0,512.0
8.305,-12864.0,-768.0,576.0
8.3075,-12864.0,-704.0,640.0
8.31,-12800.0,-704.0,704.0
8.3125,-12864.0,-704.0,704.0
8.315,-12800.0,-640.0,768.0
8.3175,-12800.0,-640.0,832.0
8.32,-12800.0,-640.0,960.0
8.3225,-12800.0,-640.0,1088.0
8.325,-12864.0,-576.0,1216.0
8.3275,-12864.0,-512.0,1344.0
8.33,-12928.0,-448.0,1344.0
8.3325,-12928.0,-320.0,1472.0
8.335,-12928.0,-256.0,1600.0
8.3375,-12928.0,-192.0,1600.0
8.34,-12928.0,-256.0,1600.0
8.3425,-13056.0,-256.0,1664.0
8.345,-13120.0,-320.0,1664.0
8.3475,-13184.0,-384.0,1856.0
8.35,-13312.0,-448.0,1792.0
8.3525,-13376.0,-448.0,1664.0
8.355,-13440.0,-512.0,1600.0
8.3575,-13376.0,-576.0,1536.0
8.36,-13504.0,-704.0,1472.0
8.3625,-13504.0,-832.0,1344.0
8.365,-13696.0,-1024.0,1280.0
8.3675,-13824.0,-1152.0,1216.0
8.37,-14016.0,-1152.0,1216.0
8.3725,-14080.0,-1152.0,1152.0
8.375,-14208.0,-1216.0,1152.0
8.3775,-14272.0,-1152.0,1024.0
8.38,-14272.0,-1152.0,960.0
8.3825,-14336.0,-1024.0,896.0
8.385,-14400.0,-832.0,832.0
8.3875,-14528.0,-704.0,832.0
8.39,-14592.0,-640.0,832.0
8.3925,-14720.0,-640.0,832.0
8.395,-14784.0,-512.0,896.0
8.3975,-14784.0,-512.0,1024.0
8.4,-14912.0,-448.0,1024.0
8.4025,-14912.0,-384.0,960.0
8.405,-15040.0,-384.0,1152.0
8.4075,-15104.0,-320.0,1152.0
8.41,-15168.0,-256.0,1152.0
8.4125,-15168.0,-256.0,1152.0
8.415,-15104.0,-320.0,1216.0
8.4175,-15168.0,-320.0,1216.0
8.42,-15168.0,-256.0,1344.0
8.4225,-15232.0,-256.0,1408.0
8.425,-15232.0,-256.0,1472.0
8.4275,-15232.0,-320.0,1472.0
8.43,-15232.0,-320.0,1536.0
8.4325,-15232.0,-384.0,1536.0
8.435,-15232.0,-384.0,1536.0
8.4375,-15360.0,-448.0,1536.0
8.44,-15360.0,-448.0,1536.0
8.4425,-15360.0,-512.0,1600.0
8.445,-15360.0,-576.0,1664.0
8.4475,-15296.0,-704.0,1664.0
8.45,-15360.0,-768.0,1600.0
8.4525,-15296.0,-832.0,1600.0
8.455,-15296.0,-896.0,1600.0
8.4575,-15232.0,-960.0,1600.0
8.46,-15296.0,-960.0,1536.0
8.4625,-15296.0,-1024.0,1472.0
8.465,-15360.0,-1088.0,1344.0
8.4675,-15296.0,-1088.0,1280.0
8.47,-15296.0,-1088.0,1280.0
8.4725,-15232.0,-960.0,1216.0
8.475,-15232.0,-896.0,1216.0
8.4775,-15232.0,-768.0,1216.0
8.48,-15232.0,-640.0,1216.0
8.4825,-15168.0,-640.0,1216.0
8.485,-15104.0,-640.0,1280.0
8.4875,-15104.0,-640.0,1216.0
8.49,-15168.0,-576.0,1280.0
8.4925,-15104.0,-512.0,1344.0
8.495,-15104.0,-512.0,1344.0
8.4975,-15104.0,-448.0,1536.0
8.5,-15040.0,-448.0,1536.0
8.5025,-15040.0,-448.0,1600.0
8.505,-15040.0,-448.0,1600.0
8.5075,-15104.0,-448.0,1600.0
8.51,-15040.0,-512.0,1600.0
8.5125,-15040.0,-512.0,1664.0
8.515,-15040.0,-576.0,1664.0
8.5175,-14976.0,-576.0,1728.0
8.52,-15104.0,-576.0,1664.0
8.5225,-15104.0,-576.0,1664.0
8.525,-15040.0,-640.0,1664.0
8.5275,-15040.0,-640.0,1664.0
8.53,-15104.0,-768.0,1536.0
8.5325,-15104.0,-832.0,1408.0
8.535,-15168.0,-960.0,1280.0
8.5375,-15168.0,-1024.0,1280.0
8.54,-15168.0,-1024.0,1280.0
8.5425,-15296.0,-1088.0,1216.0
8.545,-15360.0,-1088.0,1088.0
8.5475,-15424.0,-1088.0,1152.0
8.55,-15488.0,-1152.0,1152.0
8.5525,-15552.0,-1152.0,1152.0
8.555,-15616.0,-1152.0,1088.0
8.5575,-15616.0,-1088.0,1216.0
8.56,-15616.0,-1088.0,1216.0
8.5625,-15680.0,-1024.0,1216.0
8.565,-15680.0,-1024.0,1216.0
8.5675,-15680.0,-960.0,1344.0
8.57,-15680.0,-896.0,1344.0
8.5725,-15680.0,-832.0,1472.0
8.575,-15744.0,-768.0,1536.0
8.5775,-15744.0,-640.0,1600.0
8.58,-15744.0,-576.0,1600.0
8.5825,-15680.0,-576.0,1600.0
8.585,-15744.0,-512.0,1664.0
8.5875,-15680.0,-512.0,1600.0
8.59,-15680.0,-512.0,1664.0
8.5925,-15744.0,-576.0,1600.0
8.595,-15680.0,-640.0,1664.0
8.5975,-15616.0,-768.0,1536.0
8.6,-15552.0,-896.0,1536.0
8.6025,-15552.0,-1024.0,1536.0
8.605,-15616.0,-1152.0,1472.0
8.6075,-15488.0,-1216.0,1472.0
8.61,-15488.0,-1280.0,1408.0
8.6125,-15488.0,-1280.0,1280.0
8.615,-15424.0,-1344.0,1280.0
8.6175,-15360.0,-1408.0,1152.0
8.62,-15424.0,-1344.0,1216.0
8.6225,-15360.0,-1344.0,1152.0
8.625,-15360.0,-1280.0,1024.0
8.6275,-15360.0,-1152.0,1024.0
8.63,-15296.0,-1088.0,1152.0
8.6325,-15232.0,-1024.0,1152.0
8.635,-15232.0,-1024.0,1216.0
8.6375,-15232.0,-960.0,1152.0
8.64,-15232.0,-960.0,1152.0
8.6425,-15168.0,-960.0,1216.0
8.645,-15168.0,-896.0,1280.0
8.6475,-15104.0,-832.0,1344.0
8.65,-15104.0,-896.0,1344.0
8.6525,-15040.0,-832.0,1408.0
8.655,-15104.0,-832.0,1472.0
8.6575,-15040.0,-960.0,1472.0
8.66,-15040.0,-960.0,1472.0
8.6625,-15104.0,-960.0,1472.0
8.665,-15104.0,-960.0,1536.0
8.6675,-15168.0,-1024.0,1536.0
8.67,-15232.0,-1088.0,1472.0
8.6725,-15232.0,-1088.0,1472.0
8.675,-15232.0,-1152.0,1472.0
8.6775,-15232.0,-1152.0,1472.0
8.68,-15232.0,-1216.0,1472.0
8.6825,-15232.0,-1216.0,1344.0
8.685,-15360.0,-1152.0,1344.0
8.6875,-15360.0,-1216.0,1344.0
8.69,-15360.0,-1280.0,1344.0
8.6925,-15360.0,-1280.0,1344.0
8.695,-15360.0,-1216.0,1344.0
8.6975,-15424.0,-1216.0,1472.0
8.7,-15424.0,-1088.0,1472.0
8.7025,-15488.0,-1088.0,1536.0
8.705,-15616.0,-1024.0,1600.0
8.7075,-15616.0,-960.0,1600.0
8.71,-15680.0,-960.0,1536.0
8.7125,-15680.0,-1088.0,1408.0
8.715,-15680.0,-1024.0,1472.0
8.7175,-15680.0,-1088.0,1408.0
8.72,-15680.0,-1152.0,1408.0
8.7225,-15680.0,-1152.0,1408.0
8.725,-15680.0,-1088.0,1408.0
8.7275,-15616.0,-1088.0,1344.0
8.73,-15616.0,-1024.0,1408.0
8.7325,-15616.0,-960.0,1344.0
8.735,-15552.0,-960.0,1280.0
8.7375,-15616.0,-896.0,1216.0
8.74,-15552.0,-832.0,1216.0
8.7425,-15616.0,-832.0,1216.0
8.745,-15552.0,-832.0,1152.0
8.7475,-15616.0,-896.0,1088.0
8.75,-15616.0,-832.0,1024.0
8.7525,-15552.0,-832.0,1024.0
8.755,-15552.0,-768.0,1024.0
8.7575,-15552.0,-832.0,960.0
8.76,-15552.0,-768.0,960.0
8.7625,-15552.0,-896.0,960.0
8.765,-15552.0,-896.0,960.0
8.7675,-15552.0,-896.0,1024.0
8.77,-15616.0,-896.0,1088.0
8.7725,-15552.0,-960.0,1088.0
8.775,-15616.0,-960.0,960.0
8.7775,-15616.0,-1024.0,960.0
8.78,-15552.0,-1024.0,1024.0
8.7825,-15680.0,-1024.0,1024.0
8.785,-15616.0,-1088.0,1088.0
8.7875,-15552.0,-1088.0,1152.0
8.79,-15552.0,-1216.0,1152.0
8.7925,-15424.0,-1280.0,1152.0
8.795,-15424.0,-1344.0,1152.0
8.7975,-15488.0,-1280.0,1216.0
8.8,-15552.0,-1344.0,1152.0
8.8025,-15552.0,-1344.0,1152.0
8.805,-15616.0,-1344.0,1088.0
8.8075,-15616.0,-1216.0,1152.0
8.81,-15680.0,-1152.0,1088.0
8.8125,-15744.0,-1152.0,1088.0
8.815,-15680.0,-1088.0,1024.0
8.8175,-15872.0,-1152.0,960.0
8.82,-15936.0,-1152.0,960.0
8.8225,-16064.0,-1152.0,832.0
8.825,-16128.0,-1216.0,704.0
8.8275,-16256.0,-1216.0,640.0
8.83,-16384.0,-1216.0,640.0
8.8325,-16512.0,-1216.0,576.0
8.835,-16576.0,-1280.0,512.0
8.8375,-16640.0,-1344.0,448.0
8.84,-16768.0,-1408.0,384.0
8.8425,-16832.0,-1472.0,384.0
8.845,-16896.0,-1472.0,448.0
8.8475,-16960.0,-1536.0,384.0
8.85,-17088.0,-1472.0,320.0
8.8525,-17152.0,-1472.0,256.0
8.855,-17216.0,-1472.0,256.0
8.8575,-17280.0,-1536.0,320.0
8.86,-17344.0,-1536.0,384.0
8.8625,-17344.0,-1536.0,384.0
8.865,-17472.0,-1536.0,320.0
8.8675,-17664.0,-1536.0,320.0
8.87,-17600.0,-1536.0,320.0
8.8725,-17600.0,-1536.0,256.0
8.875,-17664.0,-1472.0,256.0
8.8775,-17664.0,-1472.0,320.0
8.88,-17600.0,-1344.0,384.0
8.8825,-17664.0,-1216.0,384.0
8.885,-17536.0,-1216.0,384.0
8.8875,-17536.0,-1152.0,448.0
8.89,-17408.0,-1152.0,448.0
8.8925,-17408.0,-1088.0,512.0
8.895,-17344.0,-1024.0,448.0
8.8975,-17216.0,-960.0,512.0
8.9,-17216.0,-960.0,448.0
8.9025,-17152.0,-1024.0,448.0
8.905,-17024.0,-1024.0,384.0
8.9075,-16960.0,-1024.0,384.0
8.91,-16832.0,-1088.0,320.0
8.9125,-16640.0,-1088.0,384.0
8.915,-16512.0,-1152.0,320.0
8.9175,-16320.0,-1152.0,256.0
8.92,-16192.0,-1088.0,256.0
8.9225,-16000.0,-1152.0,320.0
8.925,-15872.0,-1088.0,384.0
8.9275,-15680.0,-1152.0,384.0
8.93,-15552.0,-1280.0,448.0
8.9325,-15424.0,-1344.0,448.0
8.935,-15296.0,-1408.0,448.0
8.9375,-15104.0,-1472.0,384.0
8.94,-14976.0,-1536.0,448.0
8.9425,-14784.0,-1536.0,448.0
8.945,-14528.0,-1600.0,448.0
8.9475,-14400.0,-1536.0,448.0
8.95,-14208.0,-1536.0,448.0
8.9525,-14144.0,-1472.0,384.0
8.955,-14016.0,-1408.0,320.0
8.9575,-13952.0,-1280.0,320.0
8.96,-13888.0,-1280.0,256.0
8.9625,-13760.0,-1216.0,192.0
8.965,-13696.0,-1152.0,192.0
8.9675,-13568.0,-1216.0,64.0
8.97,-13504.0,-1152.0,-64.0
8.9725,-13440.0,-1152.0,-64.0
8.975,-13440.0,-1152.0,-64.0
8.9775,-13376.0,-1216.0,0.0
8.98,-13312.0,-1152.0,64.0
8.9825,-13248.0,-1152.0,64.0
8.985,-13248.0,-1152.0,0.0
8.9875,-13184.0,-1216.0,64.0
8.99,-13184.0,-1216.0,64.0
8.9925,-13248.0,-1280.0,64.0
8.995,-13184.0,-1280.0,0.0
8.9975,-13248.0,-1344.0,64.0
9.0,-13312.0,-1408.0,64.0
9.0025,-13312.0,-1408.0,64.0
9.005,-13376.0,-1408.0,0.0
9.0075,-13440.0,-1408.0,64.0
9.01,-13504.0,-1408.0,64.0
9.0125,-13632.0,-1408.0,64.0
9.015,-13760.0,-1408.0,0.0
9.0175,-13952.0,-1408.0,0.0
9.02,-14080.0,-1408.0,0.0
9.0225,-14272.0,-1344.0,-64.0
9.025,-14592.0,-1344.0,-64.0
9.0275,-14848.0,-1408.0,-128.0
9.03,-15040.0,-1408.0,-128.0
9.0325,-15296.0,-1408.0,-64.0
9.035,-15552.0,-1344.0,-128.0
9.0375,-15744.0,-1344.0,-128.0
9.04,-15936.0,-1344.0,-192.0
9.0425,-16192.0,-1280.0,-128.0
9.045,-16384.0,-1280.0,-128.0
9.0475,-16576.0,-1280.0,-192.0
9.05,-16768.0,-1280.0,-192.0
9.0525,-17088.0,-1216.0,-192.0
9.055,-17216.0,-1216.0,-64.0
9.0575,-17472.0,-1216.0,-64.0
9.06,-17664.0,-1216.0,-128.0
9.0625,-17856.0,-1216.0,-128.0
9.065,-18048.0,-1216.0,-64.0
9.0675,-18240.0,-1280.0,-128.0
9.07,-18368.0,-1280.0,-64.0
9.0725,-18496.0,-1280.0,-128.0
9.075,-18560.0,-1280.0,-128.0
9.0775,-18624.0,-1280.0,-128.0
9.08,-18752.0,-1280.0,-128.0
9.0825,-18816.0,-1280.0,-128.0
9.085,-18816.0,-1280.0,-128.0
9.0875,-18880.0,-1280.0,-128.0
9.09,-18944.0,-1216.0,-192.0
9.0925,-18880.0,-1216.0,-128.0
9.095,-18944.0,-1216.0,-192.0
9.0975,-18880.0,-1216.0,-128.0
9.1,-18816.0,-1216.0,-128.0
9.1025,-18752.0,-1152.0,-64.0
9.105,-18688.0,-1280.0,0.0
9.1075,-18624.0,-1344.0,0.0
9.11,-18560.0,-1344.0,128.0
9.1125,-18432.0,-1344.0,128.0
9.115,-18432.0,-1408.0,128.0
9.1175,-18304.0,-1408.0,128.0
9.12,-18176.0,-1408.0,192.0
9.1225,-18048.0,-1472.0,256.0
9.125,-17920.0,-1536.0,256.0
9.1275,-17728.0,-1600.0,256.0
9.13,-17600.0,-1664.0,256.0
9.1325,-17536.0,-1664.0,256.0
9.135,-17344.0,-1664.0,256.0
9.1375,-17280.0,-1728.0,256.0
9.14,-17088.0,-1664.0,256.0
9.1425,-16960.0,-1664.0,192.0
9.145,-16832.0,-1600.0,192.0
9.1475,-16704.0,-1664.0,192.0
9.15,-16512.0,-1600.0,192.0
9.1525,-16384.0,-1536.0,192.0
9.155,-16256.0,-1536.0,128.0
9.1575,-16128.0,-1472.0,128.0
9.16,-16000.0,-1536.0,64.0
9.1625,-15872.0,-1600.0,64.0
9.165,-15680.0,-1600.0,0.0
9.1675,-15616.0,-1536.0,64.0
9.17,-15552.0,-1536.0,64.0
9.1725,-15424.0,-1536.0,0.0
9.175,-15424.0,-1536.0,0.0
9.1775,-15296.0,-1600.0,-64.0
9.18,-15168.0,-1664.0,0.0
9.1825,-15104.0,-1664.0,0.0
9.185,-15040.0,-1664.0,0.0
9.1875,-15040.0,-1600.0,64.0
9.19,-14976.0,-1664.0,0.0
9.1925,-14976.0,-1664.0,0.0
9.195,-14976.0,-1664.0,0.0
9.1975,-15040.0,-1728.0,64.0
9.2,-14976.0,-1792.0,64.0
9.2025,-15040.0,-1728.0,0.0
9.205,-15040.0,-1728.0,64.0
9.2075,-15040.0,-1792.0,64.0
9.21,-15104.0,-1856.0,0.0
9.2125,-15168.0,-1856.0,-64.0
9.215,-15296.0,-1856.0,-64.0
9.2175,-15360.0,-1984.0,-64.0
9.22,-15488.0,-1984.0,0.0
9.2225,-15552.0,-1984.0,0.0
9.225,-15616.0,-1984.0,-64.0
9.2275,-15808.0,-1984.0,-128.0
9.23,-15872.0,-1984.0,-128.0
9.2325,-15872.0,-1984.0,-192.0
9.235,-15936.0,-1984.0,-128.0
9.2375,-16000.0,-1920.0,-64.0
9.24,-16000.0,-1856.0,0.0
9.2425,-16064.0,-1792.0,64.0
9.245,-16128.0,-1728.0,0.0
9.2475,-16128.0,-1728.0,64.0
9.25,-16128.0,-1664.0,64.0
9.2525,-16128.0,-1728.0,128.0
9.255,-16128.0,-1600.0,128.0
9.2575,-16128.0,-1664.0,128.0
9.26,-16128.0,-1600.0,128.0
9.2625,-16128.0,-1536.0,128.0
9.265,-16192.0,-1600.0,64.0
9.2675,-16128.0,-1600.0,64.0
9.27,-16192.0,-1536.0,128.0
9.2725,-16192.0,-1600.0,64.0
9.275,-16064.0,-1600.0,128.0
9.2775,-16064.0,-1664.0,128.0
9.28,-16000.0,-1664.0,192.0
9.2825,-16000.0,-1664.0,192.0
9.285,-16000.0,-1728.0,192.0
9.2875,-15936.0,-1728.0,256.0
9.29,-16000.0,-1856.0,320.0
9.2925,-15872.0,-1856.0,384.0
9.295,-15936.0,-1920.0,320.0
9.2975,-15936.0,-1984.0,320.0
9.3,-15936.0,-1984.0,320.0
9.3025,-15936.0,-1984.0,192.0
9.305,-16064.0,-2048.0,128.0
9.3075,-16128.0,-2048.0,0.0
9.31,-16128.0,-2048.0,-64.0
9.3125,-16192.0,-2048.0,-128.0
9.315,-16192.0,-1984.0,-256.0
9.3175,-16320.0,-2048.0,-320.0
9.32,-16384.0,-1984.0,-384.0
9.3225,-16448.0,-2048.0,-384.0
9.325,-16512.0,-1984.0,-448.0
9.3275,-16576.0,-1920.0,-448.0
9.33,-16640.0,-1920.0,-448.0
9.3325,-16704.0,-1920.0,-384.0
9.335,-16704.0,-1920.0,-448.0
9.3375,-16832.0,-1984.0,-384.0
9.34,-16960.0,-2048.0,-384.0
9.3425,-17088.0,-2048.0,-384.0
9.345,-17152.0,-2112.0,-320.0
9.3475,-17280.0,-2176.0,-256.0
9.35,-17344.0,-2176.0,-128.0
9.3525,-17408.0,-2112.0,-192.0
9.355,-17472.0,-2176.0,-64.0
9.3575,-17536.0,-2176.0,0.0
9.36,-17536.0,-2112.0,64.0
9.3625,-17536.0,-2112.0,64.0
9.365,-17536.0,-2112.0,192.0
9.3675,-17536.0,-2048.0,64.0
9.37,-17536.0,-2048.0,0.0
9.3725,-17472.0,-2048.0,64.0
9.375,-17408.0,-2112.0,64.0
9.3775,-17344.0,-2112.0,64.0
9.38,-17280.0,-2048.0,64.0
9.3825,-17216.0,-2112.0,64.0
9.385,-17088.0,-2112.0,0.0
9.3875,-17024.0,-2112.0,0.0
9.39,-16896.0,-2112.0,-64.0
9.3925,-16768.0,-2176.0,-64.0
9.395,-16704.0,-2240.0,-64.0
9.3975,-16576.0,-2304.0,-64.0
9.4,-16448.0,-2304.0,-64.0
9.4025,-16320.0,-2304.0,-64.0
9.405,-16192.0,-2432.0,-128.0
9.4075,-16128.0,-2432.0,-192.0
9.41,-15936.0,-2432.0,-128.0
9.4125,-15872.0,-2432.0,-256.0
9.415,-15808.0,-2496.0,-320.0
9.4175,-15744.0,-2368.0,-320.0
9.42,-15680.0,-2368.0,-384.0
9.4225,-15552.0,-2368.0,-448.0
9.425,-15360.0,-2368.0,-384.0
9.4275,-15232.0,-2304.0,-384.0
9.43,-15168.0,-2240.0,-448.0
9.4325,-15104.0,-2368.0,-384.0
9.435,-15104.0,-2304.0,-384.0
9.4375,-15040.0,-2368.0,-384.0
9.44,-15040.0,-2432.0,-320.0
9.4425,-14976.0,-2432.0,-256.0
9.445,-14912.0,-2368.0,-256.0
9.4475,-14848.0,-2368.0,-192.0
9.45,-14784.0,-2368.0,-192.0
9.4525,-14592.0,-2432.0,0.0
9.455,-14464.0,-2432.0,0.0
9.4575,-14464.0,-2432.0,0.0
9.46,-14336.0,-2368.0,64.0
9.4625,-14144.0,-2368.0,64.0
9.465,-14080.0,-2432.0,64.0
9.4675,-14016.0,-2432.0,192.0
9.47,-14016.0,-2496.0,128.0
9.4725,-14016.0,-2496.0,128.0
9.475,-13952.0,-2496.0,64.0
9.4775,-13952.0,-2496.0,64.0
9.48,-14016.0,-2496.0,64.0
9.4825,-13952.0,-2560.0,0.0
9.485,-14016.0,-2624.0,0.0
9.4875,-14016.0,-2688.0,0.0
9.49,-14080.0,-2624.0,0.0
9.4925,-14144.0,-2688.0,0.0
9.495,-14208.0,-2752.0,0.0
9.4975,-14400.0,-2816.0,0.0
9.5,-14528.0,-2816.0,0.0
9.5025,-14720.0,-2816.0,0.0
9.505,-15104.0,-2816.0,-64.0
9.5075,-15232.0,-2752.0,-192.0
9.51,-15424.0,-2688.0,-192.0
9.5125,-15552.0,-2688.0,-192.0
9.515,-15744.0,-2624.0,-256.0
9.5175,-16000.0,-2624.0,-320.0
9.52,-16128.0,-2624.0,-384.0
9.5225,-16384.0,-2688.0,-448.0
9.525,-16576.0,-2688.0,-512.0
9.5275,-16768.0,-2752.0,-576.0
9.53,-16832.0,-2752.0,-576.0
9.5325,-17088.0,-2752.0,-640.0
9.535,-17280.0,-2816.0,-640.0
9.5375,-17408.0,-2816.0,-640.0
9.54,-17600.0,-2816.0,-704.0
9.5425,-17728.0,-2816.0,-832.0
9.545,-17920.0,-2816.0,-768.0
9.5475,-18048.0,-2752.0,-832.0
9.55,-18112.0,-2688.0,-896.0
9.5525,-18240.0,-2752.0,-896.0
9.555,-18240.0,-2816.0,-896.0
9.5575,-18304.0,-2880.0,-896.0
9.56,-18304.0,-2816.0,-832.0
9.5625,-18304.0,-2816.0,-960.0
9.565,-18240.0,-2816.0,-960.0
9.5675,-18240.0,-2880.0,-1024.0
9.57,-18112.0,-2880.0,-1088.0
9.5725,-17984.0,-2816.0,-1152.0
9.575,-17792.0,-2752.0,-1216.0
9.5775,-17600.0,-2752.0,-1280.0
9.58,-17408.0,-2688.0,-1280.0
9.5825,-17280.0,-2752.0,-1280.0
9.585,-16960.0,-2688.0,-1344.0
9.5875,-16832.0,-2688.0,-1344.0
9.59,-16704.0,-2624.0,-1344.0
9.5925,-16512.0,-2560.0,-1408.0
9.595,-16256.0,-2496.0,-1472.0
9.5975,-16128.0,-2368.0,-1472.0
9.6,-16064.0,-2368.0,-1536.0
9.6025,-15872.0,-2304.0,-1600.0
9.605,-15744.0,-2304.0,-1600.0
9.6075,-15616.0,-2240.0,-1536.0
9.61,-15424.0,-2240.0,-1664.0
9.6125,-15424.0,-2240.0,-1728.0
9.615,-15360.0,-2176.0,-1856.0
9.6175,-15296.0,-2048.0,-1856.0
9.62,-15232.0,-1856.0,-1984.0
9.6225,-15168.0,-1728.0,-2112.0
9.625,-15104.0,-1792.0,-2176.0
9.6275,-14912.0,-1856.0,-2368.0
9.63,-14848.0,-1984.0,-2432.0
9.6325,-14848.0,-2176.0,-2560.0
9.635,-14784.0,-2304.0,-2688.0
9.6375,-14720.0,-2496.0,-2688.0
9.64,-14656.0,-2688.0,-2560.0
9.6425,-14592.0,-2944.0,-2496.0
9.645,-14528.0,-3200.0,-2432.0
9.6475,-14528.0,-3328.0,-2240.0
9.65,-14528.0,-3328.0,-1984.0
9.6525,-14592.0,-3456.0,-1728.0
9.655,-14592.0,-3584.0,-1344.0
9.6575,-14528.0,-3648.0,-960.0
9.66,-14528.0,-3648.0,-640.0
9.6625,-14464.0,-3648.0,-320.0
9.665,-14464.0,-3712.0,192.0
9.6675,-14464.0,-3712.0,320.0
9.67,-14592.0,-3648.0,384.0
9.6725,-14528.0,-3584.0,320.0
9.675,-14656.0,-3392.0,320.0
9.6775,-14656.0,-3328.0,320.0
9.68,-14720.0,-3136.0,128.0
9.6825,-14720.0,-3008.0,0.0
9.685,-14720.0,-2880.0,-192.0
9.6875,-14720.0,-2816.0,-384.0
9.69,-14656.0,-2688.0,-640.0
9.6925,-14656.0,-2496.0,-832.0
9.695,-14592.0,-2432.0,-1152.0
9.6975,-14528.0,-2368.0,-1280.0
9.7,-14528.0,-2368.0,-1536.0
9.7025,-14528.0,-2240.0,-1728.0
9.705,-14592.0,-2240.0,-1920.0
9.7075,-14464.0,-2304.0,-2112.0
9.71,-14400.0,-2304.0,-2304.0
9.7125,-14400.0,-2368.0,-2432.0
9.715,-14336.0,-2496.0,-2560.0
9.7175,-14336.0,-2560.0,-2688.0
9.72,-14336.0,-2752.0,-2816.0
9.7225,-14272.0,-2944.0,-2816.0
9.725,-14336.0,-3136.0,-2816.0
9.7275,-14400.0,-3328.0,-2880.0
9.73,-14464.0,-3456.0,-2752.0
9.7325,-14464.0,-3584.0,-2624.0
9.735,-14400.0,-3648.0,-2496.0
9.7375,-14400.0,-3776.0,-2240.0
9.74,-14336.0,-3776.0,-2048.0
9.7425,-14272.0,-3776.0,-1792.0
9.745,-14272.0,-3776.0,-1472.0
9.7475,-14208.0,-3840.0,-1280.0
9.75,-14208.0,-3776.0,-1088.0
9.7525,-14144.0,-3712.0,-896.0
9.755,-14144.0,-3648.0,-832.0
9.7575,-14208.0,-3712.0,-640.0
9.76,-14208.0,-3584.0,-576.0
9.7625,-14272.0,-3520.0,-512.0
9.765,-14272.0,-3520.0,-384.0
9.7675,-14336.0,-3456.0,-384.0
9.77,-14400.0,-3456.0,-384.0
9.7725,-14400.0,-3456.0,-384.0
9.775,-14464.0,-3520.0,-320.0
9.7775,-14400.0,-3520.0,-256.0
9.78,-14464.0,-3456.0,-320.0
9.7825,-14528.0,-3456.0,-384.0
9.785,-14464.0,-3520.0,-448.0
9.7875,-14464.0,-3520.0,-448.0
9.79,-14464.0,-3456.0,-448.0
9.7925,-14400.0,-3456.0,-512.0
9.795,-14400.0,-3520.0,-576.0
9.7975,-14336.0,-3392.0,-768.0
9.8,-14336.0,-3456.0,-960.0
9.8025,-14272.0,-3456.0,-1088.0
9.805,-14208.0,-3456.0,-1216.0
9.8075,-14144.0,-3392.0,-1280.0
9.81,-14080.0,-3456.0,-1408.0
9.8125,-14144.0,-3456.0,-1408.0
