time_stamp,acc_x,acc_y,acc_z
0.0,-16128.0,-3264.0,-448.0
0.0025,-16128.0,-3200.0,-448.0
0.005,-16192.0,-3200.0,-448.0
0.0075,-16192.0,-3264.0,-448.0
0.01,-16192.0,-3328.0,-448.0
0.0125,-16192.0,-3328.0,-448.0
0.015,-16256.0,-3328.0,-448.0
0.0175,-16192.0,-3328.0,-448.0
0.02,-16192.0,-3328.0,-448.0
0.0225,-16256.0,-3264.0,-448.0
0.025,-16256.0,-3200.0,-448.0
0.0275,-16192.0,-3200.0,-448.0
0.03,-16320.0,-3264.0,-512.0
0.0325,-16320.0,-3264.0,-512.0
0.035,-16320.0,-3264.0,-512.0
0.0375,-16320.0,-3264.0,-448.0
0.04,-16320.0,-3136.0,-448.0
0.0425,-16384.0,-3200.0,-512.0
0.045,-16384.0,-3200.0,-512.0
0.0475,-16384.0,-3200.0,-512.0
0.05,-16448.0,-3200.0,-576.0
0.0525,-16384.0,-3200.0,-576.0
0.055,-16448.0,-3200.0,-576.0
0.0575,-16576.0,-3264.0,-448.0
0.06,-16512.0,-3264.0,-512.0
0.0625,-16512.0,-3328.0,-448.0
0.065,-16448.0,-3328.0,-448.0
0.0675,-16512.0,-3328.0,-448.0
0.07,-16448.0,-3200.0,-448.0
0.0725,-16512.0,-3200.0,-448.0
0.075,-16512.0,-3200.0,-384.0
0.0775,-16448.0,-3200.0,-384.0
0.08,-16448.0,-3200.0,-384.0
0.0825,-16448.0,-3136.0,-384.0
0.085,-16448.0,-3200.0,-448.0
0.0875,-16448.0,-3200.0,-448.0
0.09,-16448.0,-3200.0,-512.0
0.0925,-16448.0,-3136.0,-448.0
0.095,-16448.0,-3136.0,-512.0
0.0975,-16384.0,-3200.0,-512.0
0.1,-16320.0,-3200.0,-448.0
0.1025,-16384.0,-3200.0,-448.0
0.105,-16384.0,-3200.0,-448.0
0.1075,-16256.0,-3136.0,-448.0
0.11,-16384.0,-3136.0,-384.0
0.1125,-16320.0,-3200.0,-384.0
0.115,-16320.0,-3200.0,-320.0
0.1175,-16384.0,-3200.0,-448.0
0.12,-16384.0,-3136.0,-512.0
0.1225,-16384.0,-3072.0,-448.0
0.125,-16384.0,-3072.0,-512.0
0.1275,-16384.0,-3136.0,-512.0
0.13,-16384.0,-3136.0,-448.0
0.1325,-16320.0,-3136.0,-448.0
0.135,-16320.0,-3136.0,-448.0
0.1375,-16256.0,-3200.0,-512.0
0.14,-16320.0,-3136.0,-512.0
0.1425,-16384.0,-3200.0,-384.0
0.145,-16384.0,-3136.0,-320.0
0.1475,-16320.0,-3136.0,-256.0
0.15,-16192.0,-3136.0,-256.0
0.1525,-16192.0,-3136.0,-256.0
0.155,-16192.0,-3136.0,-192.0
0.1575,-16192.0,-3136.0,-192.0
0.16,-16320.0,-3136.0,-192.0
0.1625,-16256.0,-3136.0,-256.0
0.165,-16256.0,-3072.0,-256.0
0.1675,-16192.0,-3008.0,-256.0
0.17,-16256.0,-3072.0,-320.0
0.1725,-16256.0,-3072.0,-320.0
0.175,-16320.0,-3136.0,-320.0
0.1775,-16320.0,-3136.0,-320.0
0.18,-16320.0,-3136.0,-384.0
0.1825,-16256.0,-3072.0,-384.0
0.185,-16256.0,-3136.0,-448.0
0.1875,-16192.0,-3072.0,-384.0
0.19,-16256.0,-3008.0,-384.0
0.1925,-16128.0,-2944.0,-384.0
0.195,-16128.0,-3008.0,-256.0
0.1975,-16128.0,-3008.0,-256.0
0.2,-16128.0,-3008.0,-256.0
0.2025,-16128.0,-3008.0,-256.0
0.205,-16128.0,-3008.0,-256.0
0.2075,-16128.0,-2944.0,-320.0
0.21,-16128.0,-3008.0,-256.0
0.2125,-16064.0,-2944.0,-256.0
0.215,-16064.0,-2880.0,-320.0
0.2175,-16064.0,-2880.0,-384.0
0.22,-16000.0,-2944.0,-320.0
0.2225,-16064.0,-2944.0,-384.0
0.225,-16064.0,-2944.0,-384.0
0.2275,-16128.0,-3008.0,-320.0
0.23,-16128.0,-3008.0,-320.0
0.2325,-16128.0,-3008.0,-320.0
0.235,-16128.0,-2944.0,-320.0
0.2375,-16064.0,-2880.0,-320.0
0.24,-16128.0,-2880.0,-256.0
0.2425,-16128.0,-2880.0,-448.0
0.245,-16128.0,-2880.0,-448.0
0.2475,-16128.0,-2944.0,-384.0
0.25,-16128.0,-2944.0,-384.0
0.2525,-16064.0,-2944.0,-320.0
0.255,-16064.0,-3008.0,-320.0
0.2575,-16064.0,-2944.0,-384.0
0.26,-16128.0,-2944.0,-384.0
0.2625,-16128.0,-2944.0,-384.0
0.265,-16192.0,-2944.0,-384.0
0.2675,-16192.0,-2944.0,-384.0
0.27,-16192.0,-2944.0,-384.0
0.2725,-16192.0,-2944.0,-320.0
0.275,-16192.0,-2880.0,-384.0
0.2775,-16128.0,-2944.0,-384.0
0.28,-16256.0,-2944.0,-384.0
0.2825,-16256.0,-2944.0,-320.0
0.285,-16256.0,-2880.0,-320.0
0.2875,-16256.0,-2880.0,-384.0
0.29,-16256.0,-2880.0,-384.0
0.2925,-16256.0,-2944.0,-448.0
0.295,-16320.0,-2880.0,-384.0
0.2975,-16256.0,-3008.0,-320.0
0.3,-16256.0,-2944.0,-320.0
0.3025,-16256.0,-2944.0,-320.0
0.305,-16256.0,-2944.0,-384.0
0.3075,-16320.0,-2944.0,-448.0
0.31,-16320.0,-2944.0,-448.0
0.3125,-16320.0,-2944.0,-448.0
0.315,-16320.0,-2944.0,-384.0
0.3175,-16384.0,-2944.0,-384.0
0.32,-16320.0,-3008.0,-384.0
0.3225,-16320.0,-2944.0,-384.0
0.325,-16384.0,-2944.0,-512.0
0.3275,-16384.0,-2944.0,-448.0
0.33,-16448.0,-2944.0,-512.0
0.3325,-16448.0,-2944.0,-512.0
0.335,-16448.0,-3008.0,-448.0
0.3375,-16384.0,-3008.0,-512.0
0.34,-16384.0,-3008.0,-576.0
0.3425,-16384.0,-3072.0,-512.0
0.345,-16384.0,-3072.0,-512.0
0.3475,-16384.0,-3008.0,-448.0
0.35,-16384.0,-3008.0,-320.0
0.3525,-16448.0,-3072.0,-320.0
0.355,-16448.0,-3008.0,-320.0
0.3575,-16384.0,-3072.0,-384.0
0.36,-16384.0,-3136.0,-320.0
0.3625,-16256.0,-3136.0,-320.0
0.365,-16320.0,-3136.0,-320.0
0.3675,-16320.0,-3072.0,-320.0
0.37,-16320.0,-3136.0,-320.0
0.3725,-16320.0,-3072.0,-320.0
0.375,-16320.0,-3072.0,-256.0
0.3775,-16320.0,-3072.0,-256.0
0.38,-16320.0,-3072.0,-320.0
0.3825,-16256.0,-3072.0,-320.0
0.385,-16192.0,-3072.0,-320.0
0.3875,-16192.0,-3136.0,-320.0
0.39,-16192.0,-3136.0,-256.0
0.3925,-16128.0,-3136.0,-256.0
0.395,-16192.0,-3072.0,-320.0
0.3975,-16192.0,-3136.0,-320.0
0.4,-16256.0,-3200.0,-256.0
0.4025,-16256.0,-3136.0,-320.0
0.405,-16320.0,-3136.0,-320.0
0.4075,-16256.0,-3200.0,-320.0
0.41,-16192.0,-3136.0,-256.0
0.4125,-16256.0,-3072.0,-256.0
0.415,-16192.0,-3072.0,-192.0
0.4175,-16192.0,-3136.0,-256.0
0.42,-16256.0,-3136.0,-320.0
0.4225,-16256.0,-3200.0,-256.0
0.425,-16256.0,-3136.0,-256.0
0.4275,-16320.0,-3136.0,-384.0
0.43,-16256.0,-3200.0,-320.0
0.4325,-16256.0,-3200.0,-256.0
0.435,-16320.0,-3200.0,-256.0
0.4375,-16256.0,-3200.0,-192.0
0.44,-16256.0,-3264.0,-256.0
0.4425,-16256.0,-3200.0,-384.0
0.445,-16256.0,-3264.0,-256.0
0.4475,-16320.0,-3264.0,-256.0
0.45,-16256.0,-3328.0,-256.0
0.4525,-16192.0,-3264.0,-320.0
0.455,-16256.0,-3264.0,-320.0
0.4575,-16192.0,-3328.0,-320.0
0.46,-16128.0,-3328.0,-256.0
0.4625,-16256.0,-3264.0,-256.0
0.465,-16192.0,-3264.0,-256.0
0.4675,-16192.0,-3200.0,-192.0
0.47,-16192.0,-3136.0,-192.0
0.4725,-16256.0,-3200.0,-128.0
0.475,-16256.0,-3264.0,-192.0
0.4775,-16192.0,-3328.0,-128.0
0.48,-16256.0,-3264.0,-192.0
0.4825,-16192.0,-3264.0,-128.0
0.485,-16192.0,-3264.0,-256.0
0.4875,-16192.0,-3328.0,-128.0
0.49,-16256.0,-3328.0,-192.0
0.4925,-16256.0,-3328.0,-192.0
0.495,-16192.0,-3328.0,-192.0
0.4975,-16192.0,-3328.0,-256.0
0.5,-16192.0,-3328.0,-192.0
0.5025,-16192.0,-3328.0,-192.0
0.505,-16192.0,-3200.0,-192.0
0.5075,-16192.0,-3200.0,-256.0
0.51,-16128.0,-3200.0,-256.0
0.5125,-16128.0,-3200.0,-192.0
0.515,-16128.0,-3264.0,-256.0
0.5175,-16192.0,-3264.0,-256.0
0.52,-16128.0,-3264.0,-256.0
0.5225,-16256.0,-3264.0,-320.0
0.525,-16256.0,-3328.0,-256.0
0.5275,-16192.0,-3328.0,-192.0
0.53,-16192.0,-3328.0,-192.0
0.5325,-16256.0,-3264.0,-192.0
0.535,-16192.0,-3200.0,-256.0
0.5375,-16192.0,-3200.0,-320.0
0.54,-16256.0,-3264.0,-192.0
0.5425,-16256.0,-3264.0,-192.0
0.545,-16192.0,-3328.0,-192.0
0.5475,-16256.0,-3328.0,-256.0
0.55,-16256.0,-3392.0,-320.0
0.5525,-16256.0,-3392.0,-256.0
0.555,-16320.0,-3392.0,-192.0
0.5575,-16256.0,-3392.0,-192.0
0.56,-16256.0,-3392.0,-320.0
0.5625,-16320.0,-3456.0,-320.0
0.565,-16256.0,-3456.0,-320.0
0.5675,-16256.0,-3456.0,-384.0
0.57,-16320.0,-3392.0,-320.0
0.5725,-16256.0,-3328.0,-320.0
0.575,-16256.0,-3328.0,-320.0
0.5775,-16256.0,-3328.0,-320.0
0.58,-16256.0,-3328.0,-320.0
0.5825,-16320.0,-3328.0,-320.0
0.585,-16320.0,-3328.0,-320.0
0.5875,-16256.0,-3392.0,-384.0
0.59,-16320.0,-3392.0,-384.0
0.5925,-16256.0,-3328.0,-384.0
0.595,-16256.0,-3328.0,-320.0
0.5975,-16320.0,-3328.0,-320.0
0.6,-16256.0,-3328.0,-256.0
0.6025,-16256.0,-3328.0,-256.0
0.605,-16384.0,-3328.0,-256.0
0.6075,-16320.0,-3328.0,-256.0
0.61,-16320.0,-3328.0,-192.0
0.6125,-16320.0,-3264.0,-256.0
0.615,-16320.0,-3328.0,-256.0
0.6175,-16320.0,-3328.0,-320.0
0.62,-16320.0,-3392.0,-256.0
0.6225,-16320.0,-3328.0,-256.0
0.625,-16320.0,-3328.0,-256.0
0.6275,-16256.0,-3200.0,-320.0
0.63,-16256.0,-3136.0,-384.0
0.6325,-16256.0,-3200.0,-320.0
0.635,-16256.0,-3136.0,-320.0
0.6375,-16192.0,-3200.0,-384.0
0.64,-16192.0,-3264.0,-512.0
0.6425,-16256.0,-3264.0,-576.0
0.645,-16256.0,-3200.0,-576.0
0.6475,-16192.0,-3200.0,-448.0
0.65,-16192.0,-3136.0,-448.0
0.6525,-16256.0,-3136.0,-448.0
0.655,-16320.0,-3264.0,-384.0
0.6575,-16256.0,-3200.0,-448.0
0.66,-16192.0,-3200.0,-448.0
0.6625,-16192.0,-3136.0,-384.0
0.665,-16192.0,-3072.0,-448.0
0.6675,-16128.0,-3072.0,-384.0
0.67,-16192.0,-3136.0,-320.0
0.6725,-16192.0,-3072.0,-320.0
0.675,-16192.0,-3072.0,-384.0
0.6775,-16192.0,-3072.0,-384.0
0.68,-16128.0,-3072.0,-384.0
0.6825,-16128.0,-3072.0,-384.0
0.685,-16128.0,-3072.0,-384.0
0.6875,-16064.0,-3072.0,-384.0
0.69,-16128.0,-3072.0,-384.0
0.6925,-16192.0,-3072.0,-448.0
0.695,-16128.0,-3072.0,-448.0
0.6975,-16128.0,-3008.0,-448.0
0.7,-16128.0,-3072.0,-448.0
0.7025,-16128.0,-3072.0,-384.0
0.705,-16128.0,-3072.0,-320.0
0.7075,-16192.0,-3008.0,-384.0
0.71,-16192.0,-3008.0,-384.0
0.7125,-16192.0,-2944.0,-384.0
0.715,-16128.0,-3008.0,-384.0
0.7175,-16128.0,-3008.0,-448.0
0.72,-16192.0,-3008.0,-448.0
0.7225,-16192.0,-3008.0,-512.0
0.725,-16192.0,-3008.0,-576.0
0.7275,-16192.0,-3008.0,-576.0
0.73,-16192.0,-3008.0,-512.0
0.7325,-16192.0,-2944.0,-512.0
0.735,-16192.0,-3008.0,-576.0
0.7375,-16256.0,-3008.0,-512.0
0.74,-16192.0,-2944.0,-512.0
0.7425,-16192.0,-3008.0,-512.0
0.745,-16192.0,-3008.0,-512.0
0.7475,-16192.0,-3008.0,-448.0
0.75,-16192.0,-2944.0,-448.0
0.7525,-16192.0,-2944.0,-512.0
0.755,-16192.0,-3008.0,-448.0
0.7575,-16192.0,-3008.0,-448.0
0.76,-16128.0,-3072.0,-448.0
0.7625,-16256.0,-3072.0,-384.0
0.765,-16256.0,-3072.0,-448.0
0.7675,-16128.0,-3072.0,-512.0
0.77,-16128.0,-3200.0,-384.0
0.7725,-16128.0,-3136.0,-384.0
0.775,-16128.0,-3136.0,-384.0
0.7775,-16128.0,-3136.0,-384.0
0.78,-16192.0,-3072.0,-448.0
0.7825,-16128.0,-3072.0,-384.0
0.785,-16128.0,-3072.0,-448.0
0.7875,-16064.0,-3072.0,-448.0
0.79,-16064.0,-3072.0,-512.0
0.7925,-16064.0,-3072.0,-512.0
0.795,-16000.0,-3072.0,-512.0
0.7975,-16064.0,-3072.0,-576.0
0.8,-16064.0,-3008.0,-576.0
0.8025,-16000.0,-3008.0,-576.0
0.805,-16000.0,-3072.0,-640.0
0.8075,-16000.0,-3072.0,-576.0
0.81,-16064.0,-3008.0,-576.0
0.8125,-16000.0,-3072.0,-576.0
0.815,-16000.0,-3072.0,-576.0
0.8175,-16000.0,-3008.0,-512.0
0.82,-16000.0,-2944.0,-576.0
0.8225,-16064.0,-3008.0,-512.0
0.825,-16064.0,-3072.0,-512.0
0.8275,-16064.0,-3072.0,-448.0
0.83,-16000.0,-3072.0,-512.0
0.8325,-16000.0,-3136.0,-512.0
0.835,-16064.0,-3136.0,-512.0
0.8375,-16064.0,-3136.0,-512.0
0.84,-16064.0,-3136.0,-512.0
0.8425,-16064.0,-3072.0,-448.0
0.845,-16064.0,-3072.0,-512.0
0.8475,-16128.0,-3072.0,-512.0
0.85,-16128.0,-3072.0,-512.0
0.8525,-16192.0,-3072.0,-512.0
0.855,-16192.0,-3136.0,-512.0
0.8575,-16192.0,-3072.0,-512.0
0.86,-16192.0,-3136.0,-512.0
0.8625,-16256.0,-3136.0,-512.0
0.865,-16192.0,-3072.0,-512.0
0.8675,-16320.0,-3072.0,-512.0
0.87,-16320.0,-3072.0,-512.0
0.8725,-16320.0,-3072.0,-512.0
0.875,-16320.0,-3008.0,-512.0
0.8775,-16320.0,-3072.0,-512.0
0.88,-16320.0,-3008.0,-512.0
0.8825,-16320.0,-3008.0,-576.0
0.885,-16320.0,-2944.0,-512.0
0.8875,-16320.0,-2944.0,-576.0
0.89,-16320.0,-3008.0,-576.0
0.8925,-16320.0,-3008.0,-512.0
0.895,-16320.0,-3008.0,-576.0
0.8975,-16256.0,-3008.0,-640.0
0.9,-16320.0,-3008.0,-640.0
0.9025,-16320.0,-2880.0,-640.0
0.905,-16320.0,-2944.0,-576.0
0.9075,-16320.0,-2944.0,-576.0
0.91,-16320.0,-2880.0,-576.0
0.9125,-16320.0,-2944.0,-576.0
0.915,-16320.0,-2944.0,-576.0
0.9175,-16320.0,-2880.0,-512.0
0.92,-16320.0,-2880.0,-576.0
0.9225,-16256.0,-2816.0,-576.0
0.925,-16320.0,-2816.0,-576.0
0.9275,-16320.0,-2944.0,-576.0
0.93,-16320.0,-2880.0,-576.0
0.9325,-16256.0,-2880.0,-512.0
0.935,-16256.0,-2880.0,-576.0
0.9375,-16320.0,-2880.0,-576.0
0.94,-16256.0,-2880.0,-512.0
0.9425,-16384.0,-2880.0,-512.0
0.945,-16320.0,-2944.0,-512.0
0.9475,-16384.0,-2944.0,-448.0
0.95,-16384.0,-2944.0,-512.0
0.9525,-16320.0,-2880.0,-448.0
0.955,-16320.0,-2944.0,-384.0
0.9575,-16256.0,-2944.0,-384.0
0.96,-16320.0,-2880.0,-448.0
0.9625,-16320.0,-3008.0,-448.0
0.965,-16320.0,-3008.0,-448.0
0.9675,-16320.0,-2944.0,-384.0
0.97,-16256.0,-2944.0,-448.0
0.9725,-16256.0,-3008.0,-384.0
0.975,-16192.0,-3008.0,-448.0
0.9775,-16192.0,-3072.0,-512.0
0.98,-16192.0,-3072.0,-512.0
0.9825,-16192.0,-3072.0,-384.0
0.985,-16256.0,-3072.0,-448.0
0.9875,-16256.0,-3072.0,-448.0
0.99,-16192.0,-3072.0,-384.0
0.9925,-16192.0,-3072.0,-320.0
0.995,-16192.0,-3072.0,-320.0
0.9975,-16128.0,-3008.0,-320.0
1.0,-16128.0,-3008.0,-448.0
1.0025,-16128.0,-3008.0,-384.0
1.005,-16128.0,-3008.0,-384.0
1.0075,-16064.0,-3008.0,-384.0
1.01,-16064.0,-3072.0,-384.0
1.0125,-16128.0,-3072.0,-384.0
1.015,-16128.0,-3072.0,-384.0
1.0175,-16128.0,-3072.0,-384.0
1.02,-16128.0,-3072.0,-320.0
1.0225,-16128.0,-3072.0,-320.0
1.025,-16064.0,-3008.0,-256.0
1.0275,-16064.0,-3072.0,-256.0
1.03,-16128.0,-3072.0,-320.0
1.0325,-16128.0,-3072.0,-256.0
1.035,-16128.0,-3136.0,-256.0
1.0375,-16192.0,-3072.0,-128.0
1.04,-16192.0,-3136.0,-320.0
1.0425,-16192.0,-3136.0,-320.0
1.045,-16192.0,-3200.0,-256.0
1.0475,-16128.0,-3136.0,-256.0
1.05,-16128.0,-3136.0,-128.0
1.0525,-16128.0,-3136.0,-128.0
1.055,-16192.0,-3136.0,-192.0
1.0575,-16192.0,-3136.0,-128.0
1.06,-16192.0,-3200.0,-64.0
1.0625,-16192.0,-3136.0,-128.0
1.065,-16256.0,-3200.0,-64.0
1.0675,-16256.0,-3136.0,-64.0
1.07,-16256.0,-3200.0,-128.0
1.0725,-16256.0,-3136.0,-64.0
1.075,-16256.0,-3200.0,-64.0
1.0775,-16320.0,-3136.0,-128.0
1.08,-16256.0,-3200.0,-192.0
1.0825,-16192.0,-3136.0,-128.0
1.085,-16256.0,-3136.0,-64.0
1.0875,-16256.0,-3136.0,-128.0
1.09,-16256.0,-3136.0,-192.0
1.0925,-16320.0,-3200.0,-128.0
1.095,-16320.0,-3264.0,-64.0
1.0975,-16320.0,-3200.0,-64.0
1.1,-16256.0,-3200.0,-64.0
1.1025,-16256.0,-3200.0,-64.0
1.105,-16256.0,-3200.0,-64.0
1.1075,-16320.0,-3264.0,0.0
1.11,-16320.0,-3200.0,0.0
1.1125,-16256.0,-3200.0,0.0
1.115,-16320.0,-3264.0,0.0
1.1175,-16256.0,-3200.0,0.0
1.12,-16256.0,-3264.0,-64.0
1.1225,-16256.0,-3264.0,-64.0
1.125,-16256.0,-3328.0,-128.0
1.1275,-16256.0,-3264.0,-128.0
1.13,-16320.0,-3392.0,-64.0
1.1325,-16192.0,-3392.0,-64.0
1.135,-16256.0,-3328.0,-64.0
1.1375,-16256.0,-3392.0,-64.0
1.14,-16192.0,-3264.0,-64.0
1.1425,-16064.0,-3392.0,-128.0
1.145,-16128.0,-3456.0,-128.0
1.1475,-16128.0,-3456.0,0.0
1.15,-16128.0,-3520.0,64.0
1.1525,-16128.0,-3456.0,64.0
1.155,-16128.0,-3520.0,128.0
1.1575,-16128.0,-3584.0,256.0
1.16,-16128.0,-3584.0,320.0
1.1625,-16064.0,-3584.0,320.0
1.165,-16000.0,-3648.0,320.0
1.1675,-16000.0,-3776.0,320.0
1.17,-15936.0,-3712.0,320.0
1.1725,-15936.0,-3776.0,320.0
1.175,-15936.0,-3776.0,320.0
1.1775,-15936.0,-3776.0,320.0
1.18,-15872.0,-3776.0,384.0
1.1825,-15872.0,-3712.0,384.0
1.185,-15872.0,-3776.0,384.0
1.1875,-15872.0,-3776.0,320.0
1.19,-15808.0,-3776.0,320.0
1.1925,-15872.0,-3840.0,320.0
1.195,-15936.0,-3840.0,320.0
1.1975,-15936.0,-3840.0,320.0
1.2,-15936.0,-3776.0,128.0
1.2025,-15936.0,-3776.0,128.0
1.205,-15936.0,-3840.0,64.0
1.2075,-16000.0,-3840.0,-64.0
1.21,-16000.0,-3840.0,-128.0
1.2125,-16064.0,-3776.0,-64.0
1.215,-16128.0,-3712.0,-128.0
1.2175,-16128.0,-3776.0,-128.0
1.22,-16128.0,-3712.0,-128.0
1.2225,-16064.0,-3648.0,-192.0
1.225,-16064.0,-3648.0,-192.0
1.2275,-16128.0,-3648.0,-128.0
1.23,-16192.0,-3648.0,-192.0
1.2325,-16192.0,-3648.0,-128.0
1.235,-16192.0,-3648.0,-128.0
1.2375,-16192.0,-3584.0,0.0
1.24,-16256.0,-3584.0,0.0
1.2425,-16256.0,-3584.0,0.0
1.245,-16256.0,-3520.0,64.0
1.2475,-16320.0,-3456.0,0.0
1.25,-16320.0,-3520.0,64.0
1.2525,-16320.0,-3456.0,0.0
1.255,-16384.0,-3456.0,0.0
1.2575,-16320.0,-3456.0,64.0
1.26,-16320.0,-3328.0,-64.0
1.2625,-16320.0,-3264.0,-128.0
1.265,-16320.0,-3264.0,-128.0
1.2675,-16384.0,-3200.0,-192.0
1.27,-16320.0,-3264.0,-192.0
1.2725,-16320.0,-3200.0,-256.0
1.275,-16384.0,-3200.0,-320.0
1.2775,-16320.0,-3200.0,-320.0
1.28,-16448.0,-3072.0,-384.0
1.2825,-16448.0,-3072.0,-448.0
1.285,-16448.0,-3072.0,-384.0
1.2875,-16384.0,-3072.0,-320.0
1.29,-16384.0,-3072.0,-384.0
1.2925,-16384.0,-3072.0,-384.0
1.295,-16320.0,-3072.0,-384.0
1.2975,-16384.0,-3072.0,-448.0
1.3,-16384.0,-2944.0,-448.0
1.3025,-16384.0,-3008.0,-512.0
1.305,-16320.0,-3008.0,-448.0
1.3075,-16320.0,-3072.0,-448.0
1.31,-16384.0,-3072.0,-512.0
1.3125,-16448.0,-3072.0,-512.0
1.315,-16512.0,-3072.0,-576.0
1.3175,-16448.0,-3072.0,-576.0
1.32,-16512.0,-3008.0,-576.0
1.3225,-16512.0,-3008.0,-640.0
1.325,-16448.0,-3072.0,-704.0
1.3275,-16448.0,-3136.0,-576.0
1.33,-16448.0,-3072.0,-704.0
1.3325,-16512.0,-3072.0,-704.0
1.335,-16512.0,-3072.0,-640.0
1.3375,-16512.0,-3072.0,-640.0
1.34,-16512.0,-3008.0,-640.0
1.3425,-16512.0,-3072.0,-640.0
1.345,-16512.0,-3136.0,-640.0
1.3475,-16512.0,-3072.0,-704.0
1.35,-16576.0,-3072.0,-704.0
1.3525,-16576.0,-3072.0,-640.0
1.355,-16576.0,-3072.0,-640.0
1.3575,-16640.0,-3136.0,-640.0
1.36,-16576.0,-3264.0,-640.0
1.3625,-16576.0,-3264.0,-640.0
1.365,-16640.0,-3264.0,-512.0
1.3675,-16576.0,-3264.0,-576.0
1.37,-16576.0,-3328.0,-576.0
1.3725,-16512.0,-3328.0,-512.0
1.375,-16512.0,-3392.0,-512.0
1.3775,-16512.0,-3328.0,-576.0
1.38,-16448.0,-3392.0,-576.0
1.3825,-16512.0,-3392.0,-576.0
1.385,-16512.0,-3392.0,-704.0
1.3875,-16512.0,-3392.0,-704.0
1.39,-16448.0,-3392.0,-704.0
1.3925,-16448.0,-3392.0,-640.0
1.395,-16320.0,-3328.0,-704.0
1.3975,-16320.0,-3328.0,-768.0
1.4,-16256.0,-3392.0,-768.0
1.4025,-16256.0,-3328.0,-832.0
1.405,-16320.0,-3328.0,-768.0
1.4075,-16320.0,-3264.0,-832.0
1.41,-16256.0,-3200.0,-768.0
1.4125,-16192.0,-3136.0,-768.0
1.415,-16128.0,-3136.0,-768.0
1.4175,-16128.0,-3136.0,-768.0
1.42,-16064.0,-3136.0,-768.0
1.4225,-16064.0,-3136.0,-704.0
1.425,-16128.0,-3136.0,-640.0
1.4275,-16064.0,-3136.0,-576.0
1.43,-16128.0,-3136.0,-512.0
1.4325,-16128.0,-3136.0,-512.0
1.435,-16192.0,-3136.0,-512.0
1.4375,-16128.0,-3072.0,-512.0
1.44,-16064.0,-3008.0,-576.0
1.4425,-16000.0,-2944.0,-512.0
1.445,-16000.0,-2944.0,-512.0
1.4475,-15936.0,-3008.0,-512.0
1.45,-15936.0,-3008.0,-448.0
1.4525,-15936.0,-3008.0,-576.0
1.455,-15936.0,-2944.0,-640.0
1.4575,-16000.0,-2944.0,-640.0
1.46,-16000.0,-3008.0,-704.0
1.4625,-16000.0,-2944.0,-704.0
1.465,-16000.0,-2944.0,-704.0
1.4675,-16000.0,-3008.0,-768.0
1.47,-16000.0,-3072.0,-704.0
1.4725,-16000.0,-3072.0,-704.0
1.475,-16064.0,-3008.0,-768.0
1.4775,-16064.0,-3008.0,-768.0
1.48,-16000.0,-3008.0,-768.0
1.4825,-16064.0,-3008.0,-768.0
1.485,-16064.0,-3072.0,-832.0
1.4875,-16064.0,-3072.0,-768.0
1.49,-16000.0,-3008.0,-768.0
1.4925,-16000.0,-3072.0,-704.0
1.495,-16064.0,-3136.0,-704.0
1.4975,-16064.0,-3136.0,-768.0
1.5,-16064.0,-3136.0,-640.0
1.5025,-16128.0,-3072.0,-640.0
1.505,-16128.0,-3008.0,-576.0
1.5075,-16128.0,-3136.0,-704.0
1.51,-16192.0,-3200.0,-640.0
1.5125,-16128.0,-3136.0,-640.0
1.515,-16064.0,-3136.0,-640.0
1.5175,-16064.0,-3200.0,-640.0
1.52,-16128.0,-3200.0,-640.0
1.5225,-16128.0,-3200.0,-640.0
1.525,-16064.0,-3264.0,-768.0
1.5275,-16064.0,-3200.0,-768.0
1.53,-16128.0,-3200.0,-768.0
1.5325,-16128.0,-3264.0,-832.0
1.535,-16256.0,-3264.0,-832.0
1.5375,-16256.0,-3264.0,-832.0
1.54,-16320.0,-3200.0,-896.0
1.5425,-16320.0,-3200.0,-960.0
1.545,-16256.0,-3200.0,-960.0
1.5475,-16256.0,-3264.0,-960.0
1.55,-16384.0,-3200.0,-896.0
1.5525,-16320.0,-3264.0,-896.0
1.555,-16320.0,-3264.0,-832.0
1.5575,-16320.0,-3264.0,-832.0
1.56,-16256.0,-3200.0,-896.0
1.5625,-16320.0,-3200.0,-832.0
1.565,-16320.0,-3200.0,-832.0
1.5675,-16384.0,-3136.0,-832.0
1.57,-16320.0,-3136.0,-704.0
1.5725,-16320.0,-3136.0,-704.0
1.575,-16320.0,-3200.0,-640.0
1.5775,-16320.0,-3200.0,-640.0
1.58,-16320.0,-3200.0,-576.0
1.5825,-16320.0,-3200.0,-576.0
1.585,-16256.0,-3136.0,-640.0
1.5875,-16320.0,-3136.0,-576.0
1.59,-16256.0,-3200.0,-576.0
1.5925,-16320.0,-3200.0,-576.0
1.595,-16320.0,-3200.0,-576.0
1.5975,-16320.0,-3200.0,-576.0
1.6,-16320.0,-3200.0,-576.0
1.6025,-16256.0,-3200.0,-640.0
1.605,-16256.0,-3136.0,-640.0
1.6075,-16256.0,-3200.0,-704.0
1.61,-16256.0,-3200.0,-704.0
1.6125,-16256.0,-3200.0,-768.0
1.615,-16192.0,-3264.0,-704.0
1.6175,-16128.0,-3200.0,-768.0
1.62,-16128.0,-3200.0,-768.0
1.6225,-16192.0,-3200.0,-704.0
1.625,-16192.0,-3200.0,-704.0
1.6275,-16192.0,-3200.0,-640.0
1.63,-16128.0,-3136.0,-704.0
1.6325,-16128.0,-3136.0,-768.0
1.635,-16192.0,-3136.0,-640.0
1.6375,-16128.0,-3136.0,-640.0
1.64,-16192.0,-3200.0,-640.0
1.6425,-16192.0,-3136.0,-640.0
1.645,-16256.0,-3200.0,-640.0
1.6475,-16256.0,-3136.0,-576.0
1.65,-16192.0,-3200.0,-640.0
1.6525,-16192.0,-3200.0,-704.0
1.655,-16128.0,-3200.0,-704.0
1.6575,-16192.0,-3200.0,-640.0
1.66,-16192.0,-3136.0,-640.0
1.6625,-16192.0,-3200.0,-640.0
1.665,-16192.0,-3200.0,-640.0
1.6675,-16192.0,-3136.0,-640.0
1.67,-16128.0,-3200.0,-576.0
1.6725,-16128.0,-3136.0,-512.0
1.675,-16128.0,-3200.0,-512.0
1.6775,-16128.0,-3200.0,-576.0
1.68,-16128.0,-3264.0,-512.0
1.6825,-16128.0,-3200.0,-512.0
1.685,-16128.0,-3136.0,-576.0
1.6875,-16128.0,-3136.0,-512.0
1.69,-16128.0,-3200.0,-448.0
1.6925,-16128.0,-3136.0,-512.0
1.695,-16064.0,-3200.0,-512.0
1.6975,-16064.0,-3200.0,-512.0
1.7,-16128.0,-3200.0,-512.0
1.7025,-16128.0,-3200.0,-448.0
1.705,-16128.0,-3200.0,-448.0
1.7075,-16128.0,-3136.0,-448.0
1.71,-16128.0,-3136.0,-448.0
1.7125,-16128.0,-3200.0,-448.0
1.715,-16128.0,-3200.0,-448.0
1.7175,-16128.0,-3200.0,-512.0
1.72,-16128.0,-3200.0,-448.0
1.7225,-16064.0,-3200.0,-512.0
1.725,-16128.0,-3200.0,-448.0
1.7275,-16064.0,-3200.0,-384.0
1.73,-16128.0,-3136.0,-384.0
1.7325,-16128.0,-3200.0,-448.0
1.735,-16128.0,-3200.0,-384.0
1.7375,-16192.0,-3200.0,-384.0
1.74,-16192.0,-3200.0,-384.0
1.7425,-16192.0,-3136.0,-448.0
1.745,-16192.0,-3200.0,-448.0
1.7475,-16192.0,-3136.0,-448.0
1.75,-16192.0,-3136.0,-448.0
1.7525,-16192.0,-3136.0,-448.0
1.755,-16256.0,-3136.0,-384.0
1.7575,-16256.0,-3072.0,-384.0
1.76,-16256.0,-3136.0,-448.0
1.7625,-16256.0,-3072.0,-448.0
1.765,-16256.0,-3136.0,-384.0
1.7675,-16256.0,-3136.0,-448.0
1.77,-16320.0,-3136.0,-448.0
1.7725,-16384.0,-3200.0,-448.0
1.775,-16320.0,-3200.0,-384.0
1.7775,-16256.0,-3136.0,-384.0
1.78,-16256.0,-3136.0,-384.0
1.7825,-16256.0,-3072.0,-384.0
1.785,-16256.0,-3136.0,-384.0
1.7875,-16256.0,-3136.0,-384.0
1.79,-16320.0,-3136.0,-384.0
1.7925,-16256.0,-3200.0,-320.0
1.795,-16320.0,-3136.0,-256.0
1.7975,-16320.0,-3200.0,-256.0
1.8,-16256.0,-3136.0,-256.0
1.8025,-16256.0,-3136.0,-256.0
1.805,-16256.0,-3136.0,-320.0
1.8075,-16256.0,-3136.0,-256.0
1.81,-16256.0,-3136.0,-256.0
1.8125,-16256.0,-3136.0,-320.0
1.815,-16256.0,-3072.0,-320.0
1.8175,-16256.0,-3008.0,-384.0
1.82,-16320.0,-3008.0,-320.0
1.8225,-16320.0,-3072.0,-320.0
1.825,-16320.0,-3136.0,-320.0
1.8275,-16320.0,-3136.0,-320.0
1.83,-16320.0,-3200.0,-320.0
1.8325,-16320.0,-3136.0,-320.0
1.835,-16256.0,-3136.0,-256.0
1.8375,-16256.0,-3200.0,-320.0
1.84,-16384.0,-3136.0,-256.0
1.8425,-16384.0,-3136.0,-256.0
1.845,-16320.0,-3136.0,-320.0
1.8475,-16384.0,-3072.0,-256.0
1.85,-16320.0,-3072.0,-256.0
1.8525,-16320.0,-3072.0,-192.0
1.855,-16320.0,-3072.0,-256.0
1.8575,-16320.0,-3136.0,-256.0
1.86,-16320.0,-3136.0,-256.0
1.8625,-16320.0,-3136.0,-256.0
1.865,-16320.0,-3136.0,-192.0
1.8675,-16320.0,-3072.0,-256.0
1.87,-16256.0,-3200.0,-192.0
1.8725,-16256.0,-3264.0,-192.0
1.875,-16256.0,-3136.0,-192.0
1.8775,-16256.0,-3200.0,-192.0
1.88,-16320.0,-3200.0,-192.0
1.8825,-16256.0,-3136.0,-256.0
1.885,-16256.0,-3136.0,-256.0
1.8875,-16256.0,-3136.0,-256.0
1.89,-16192.0,-3136.0,-256.0
1.8925,-16192.0,-3072.0,-256.0
1.895,-16256.0,-3136.0,-256.0
1.8975,-16192.0,-3200.0,-192.0
1.9,-16192.0,-3200.0,-256.0
1.9025,-16192.0,-3136.0,-192.0
1.905,-16256.0,-3136.0,-256.0
1.9075,-16128.0,-3072.0,-256.0
1.91,-16192.0,-3072.0,-256.0
1.9125,-16128.0,-3072.0,-192.0
1.915,-16192.0,-3072.0,-192.0
1.9175,-16192.0,-3008.0,-128.0
1.92,-16192.0,-3072.0,-64.0
1.9225,-16256.0,-3072.0,-128.0
1.925,-16256.0,-3072.0,-128.0
1.9275,-16320.0,-3072.0,-64.0
1.93,-16320.0,-3136.0,-128.0
1.9325,-16256.0,-3200.0,-128.0
1.935,-16256.0,-3136.0,-192.0
1.9375,-16384.0,-3136.0,-192.0
1.94,-16320.0,-3136.0,-192.0
1.9425,-16320.0,-3200.0,-256.0
1.945,-16256.0,-3072.0,-192.0
1.9475,-16320.0,-3072.0,-128.0
1.95,-16256.0,-3136.0,-128.0
1.9525,-16256.0,-3136.0,-128.0
1.955,-16320.0,-3072.0,-192.0
1.9575,-16256.0,-3200.0,-256.0
1.96,-16384.0,-3072.0,-256.0
1.9625,-16256.0,-3136.0,-320.0
1.965,-16384.0,-3136.0,-320.0
1.9675,-16384.0,-3072.0,-256.0
1.97,-16384.0,-3136.0,-320.0
1.9725,-16384.0,-3072.0,-320.0
1.975,-16384.0,-3072.0,-320.0
1.9775,-16384.0,-3008.0,-320.0
1.98,-16384.0,-3008.0,-384.0
1.9825,-16320.0,-3072.0,-384.0
1.985,-16320.0,-3008.0,-384.0
1.9875,-16320.0,-3072.0,-320.0
1.99,-16256.0,-3072.0,-192.0
1.9925,-16256.0,-3072.0,-256.0
1.995,-16320.0,-3072.0,-256.0
1.9975,-16384.0,-3136.0,-256.0
2.0,-16320.0,-3072.0,-256.0
2.0025,-16256.0,-3072.0,-256.0
2.005,-16256.0,-3072.0,-256.0
2.0075,-16256.0,-3072.0,-256.0
2.01,-16256.0,-3072.0,-256.0
2.0125,-16192.0,-3072.0,-320.0
2.015,-16256.0,-3072.0,-320.0
2.0175,-16192.0,-3072.0,-256.0
2.02,-16192.0,-3072.0,-256.0
2.0225,-16192.0,-3008.0,-256.0
2.025,-16192.0,-3072.0,-192.0
2.0275,-16192.0,-3136.0,-256.0
2.03,-16192.0,-3072.0,-256.0
2.0325,-16192.0,-3072.0,-192.0
2.035,-16192.0,-3008.0,-256.0
2.0375,-16192.0,-3072.0,-256.0
2.04,-16192.0,-3072.0,-256.0
2.0425,-16128.0,-3072.0,-320.0
2.045,-16064.0,-3072.0,-320.0
2.0475,-16128.0,-3072.0,-320.0
2.05,-16192.0,-3008.0,-320.0
2.0525,-16128.0,-3072.0,-384.0
2.055,-16192.0,-3072.0,-384.0
2.0575,-16192.0,-3008.0,-320.0
2.06,-16128.0,-3008.0,-320.0
2.0625,-16128.0,-3008.0,-384.0
2.065,-16128.0,-3072.0,-384.0
2.0675,-16128.0,-3072.0,-384.0
2.07,-16128.0,-3008.0,-320.0
2.0725,-16128.0,-3008.0,-384.0
2.075,-16128.0,-3008.0,-384.0
2.0775,-16000.0,-3008.0,-320.0
2.08,-16128.0,-3008.0,-384.0
2.0825,-16128.0,-3008.0,-384.0
2.085,-16192.0,-3072.0,-384.0
2.0875,-16192.0,-3008.0,-320.0
2.09,-16192.0,-3136.0,-320.0
2.0925,-16192.0,-3136.0,-384.0
2.095,-16256.0,-3136.0,-384.0
2.0975,-16256.0,-3136.0,-384.0
2.1,-16256.0,-3072.0,-320.0
2.1025,-16256.0,-3072.0,-384.0
2.105,-16320.0,-3072.0,-448.0
2.1075,-16256.0,-3072.0,-448.0
2.11,-16256.0,-3072.0,-512.0
2.1125,-16320.0,-3072.0,-448.0
2.115,-16320.0,-3072.0,-448.0
2.1175,-16256.0,-3072.0,-384.0
2.12,-16384.0,-3072.0,-384.0
2.1225,-16384.0,-3072.0,-320.0
2.125,-16384.0,-3072.0,-384.0
2.1275,-16320.0,-3072.0,-384.0
2.13,-16320.0,-3136.0,-384.0
2.1325,-16320.0,-3136.0,-384.0
2.135,-16320.0,-3136.0,-448.0
2.1375,-16320.0,-3200.0,-448.0
2.14,-16320.0,-3200.0,-448.0
2.1425,-16320.0,-3200.0,-448.0
2.145,-16256.0,-3200.0,-448.0
2.1475,-16256.0,-3200.0,-384.0
2.15,-16256.0,-3136.0,-448.0
2.1525,-16192.0,-3200.0,-512.0
2.155,-16256.0,-3200.0,-448.0
2.1575,-16320.0,-3136.0,-384.0
2.16,-16320.0,-3136.0,-576.0
2.1625,-16320.0,-3136.0,-576.0
2.165,-16320.0,-3136.0,-576.0
2.1675,-16384.0,-3072.0,-640.0
2.17,-16320.0,-3072.0,-576.0
2.1725,-16256.0,-3136.0,-576.0
2.175,-16256.0,-3136.0,-576.0
2.1775,-16320.0,-3136.0,-576.0
2.18,-16320.0,-3136.0,-640.0
2.1825,-16384.0,-3136.0,-640.0
2.185,-16384.0,-3136.0,-640.0
2.1875,-16384.0,-3200.0,-640.0
2.19,-16448.0,-3200.0,-640.0
2.1925,-16384.0,-3200.0,-576.0
2.195,-16384.0,-3136.0,-576.0
2.1975,-16384.0,-3200.0,-512.0
2.2,-16448.0,-3200.0,-576.0
2.2025,-16448.0,-3136.0,-576.0
2.205,-16384.0,-3136.0,-576.0
2.2075,-16384.0,-3136.0,-576.0
2.21,-16384.0,-3200.0,-576.0
2.2125,-16320.0,-3136.0,-512.0
2.215,-16320.0,-3136.0,-576.0
2.2175,-16320.0,-3072.0,-512.0
2.22,-16320.0,-3072.0,-512.0
2.2225,-16320.0,-3072.0,-576.0
2.225,-16320.0,-3136.0,-576.0
2.2275,-16256.0,-3008.0,-576.0
2.23,-16256.0,-3008.0,-576.0
2.2325,-16256.0,-3008.0,-640.0
2.235,-16256.0,-3072.0,-640.0
2.2375,-16256.0,-3008.0,-576.0
2.24,-16192.0,-3008.0,-576.0
2.2425,-16128.0,-3008.0,-576.0
2.245,-16128.0,-3008.0,-576.0
2.2475,-16192.0,-3072.0,-576.0
2.25,-16192.0,-3008.0,-576.0
2.2525,-16256.0,-3008.0,-576.0
2.255,-16192.0,-3008.0,-512.0
2.2575,-16192.0,-3136.0,-512.0
2.26,-16192.0,-3136.0,-448.0
2.2625,-16192.0,-3136.0,-448.0
2.265,-16256.0,-3136.0,-320.0
2.2675,-16192.0,-3136.0,-384.0
2.27,-16128.0,-3072.0,-320.0
2.2725,-16128.0,-3136.0,-320.0
2.275,-16192.0,-3264.0,-384.0
2.2775,-16256.0,-3136.0,-384.0
2.28,-16192.0,-3264.0,-320.0
2.2825,-16192.0,-3264.0,-320.0
2.285,-16128.0,-3200.0,-256.0
2.2875,-16192.0,-3264.0,-256.0
2.29,-16128.0,-3200.0,-320.0
2.2925,-16192.0,-3264.0,-320.0
2.295,-16256.0,-3136.0,-320.0
2.2975,-16256.0,-3136.0,-384.0
2.3,-16192.0,-3136.0,-384.0
2.3025,-16128.0,-3200.0,-384.0
2.305,-16128.0,-3136.0,-256.0
2.3075,-16128.0,-3136.0,-320.0
2.31,-16192.0,-3200.0,-320.0
2.3125,-16192.0,-3200.0,-384.0
2.315,-16128.0,-3200.0,-448.0
2.3175,-16192.0,-3136.0,-448.0
2.32,-16192.0,-3200.0,-448.0
2.3225,-16192.0,-3200.0,-448.0
2.325,-16192.0,-3136.0,-512.0
2.3275,-16256.0,-3200.0,-512.0
2.33,-16320.0,-3136.0,-512.0
2.3325,-16256.0,-3136.0,-448.0
2.335,-16192.0,-3200.0,-512.0
2.3375,-16256.0,-3200.0,-448.0
2.34,-16256.0,-3136.0,-448.0
2.3425,-16320.0,-3136.0,-384.0
2.345,-16384.0,-3136.0,-320.0
2.3475,-16256.0,-3136.0,-384.0
2.35,-16320.0,-3136.0,-384.0
2.3525,-16320.0,-3136.0,-384.0
2.355,-16384.0,-3200.0,-384.0
2.3575,-16320.0,-3136.0,-384.0
2.36,-16320.0,-3136.0,-320.0
2.3625,-16320.0,-3136.0,-320.0
2.365,-16320.0,-3136.0,-384.0
2.3675,-16384.0,-3072.0,-448.0
2.37,-16448.0,-3136.0,-448.0
2.3725,-16384.0,-3136.0,-384.0
2.375,-16384.0,-3136.0,-384.0
2.3775,-16320.0,-3136.0,-384.0
2.38,-16320.0,-3136.0,-384.0
2.3825,-16320.0,-3136.0,-384.0
2.385,-16320.0,-3136.0,-384.0
2.3875,-16320.0,-3072.0,-448.0
2.39,-16320.0,-3072.0,-448.0
2.3925,-16320.0,-3136.0,-448.0
2.395,-16256.0,-3072.0,-448.0
2.3975,-16192.0,-3008.0,-512.0
2.4,-16192.0,-3008.0,-512.0
2.4025,-16256.0,-3072.0,-448.0
2.405,-16256.0,-3072.0,-384.0
2.4075,-16128.0,-3008.0,-448.0
2.41,-16128.0,-3008.0,-448.0
2.4125,-16128.0,-3072.0,-448.0
2.415,-16128.0,-3072.0,-448.0
2.4175,-16128.0,-3008.0,-448.0
2.42,-16128.0,-3008.0,-448.0
2.4225,-16128.0,-3008.0,-448.0
2.425,-16064.0,-3008.0,-448.0
2.4275,-16128.0,-3072.0,-384.0
2.43,-16064.0,-3008.0,-384.0
2.4325,-16064.0,-3008.0,-320.0
2.435,-16064.0,-3008.0,-384.0
2.4375,-16064.0,-2944.0,-384.0
2.44,-16064.0,-2944.0,-448.0
2.4425,-16000.0,-2944.0,-448.0
2.445,-16064.0,-2944.0,-448.0
2.4475,-16000.0,-2944.0,-448.0
2.45,-16064.0,-2880.0,-448.0
2.4525,-16064.0,-2880.0,-512.0
2.455,-16000.0,-2880.0,-512.0
2.4575,-16000.0,-2816.0,-448.0
2.46,-16000.0,-2880.0,-512.0
2.4625,-16064.0,-2944.0,-448.0
2.465,-16064.0,-2880.0,-448.0
2.4675,-16000.0,-2880.0,-448.0
2.47,-16000.0,-2880.0,-448.0
2.4725,-16064.0,-2880.0,-384.0
2.475,-16000.0,-2880.0,-384.0
2.4775,-16064.0,-2880.0,-320.0
2.48,-16064.0,-2880.0,-384.0
2.4825,-16064.0,-2944.0,-384.0
2.485,-16064.0,-2944.0,-320.0
2.4875,-16064.0,-2944.0,-448.0
2.49,-16064.0,-2944.0,-512.0
2.4925,-15936.0,-2944.0,-448.0
2.495,-16000.0,-3008.0,-448.0
2.4975,-16000.0,-3008.0,-384.0
2.5,-16000.0,-3008.0,-448.0
2.5025,-16000.0,-3008.0,-512.0
2.505,-15936.0,-3072.0,-448.0
2.5075,-15872.0,-3072.0,-448.0
2.51,-15872.0,-3072.0,-448.0
2.5125,-15936.0,-3072.0,-448.0
2.515,-15936.0,-3072.0,-512.0
2.5175,-15936.0,-3008.0,-448.0
2.52,-15936.0,-2944.0,-512.0
2.5225,-15936.0,-2944.0,-512.0
2.525,-15936.0,-3008.0,-512.0
2.5275,-15936.0,-3072.0,-512.0
2.53,-16000.0,-3072.0,-576.0
2.5325,-15936.0,-3072.0,-512.0
2.535,-16000.0,-3072.0,-576.0
2.5375,-16000.0,-3072.0,-576.0
2.54,-16000.0,-3072.0,-576.0
2.5425,-16000.0,-3072.0,-576.0
2.545,-15936.0,-3136.0,-576.0
2.5475,-15936.0,-3136.0,-576.0
2.55,-16000.0,-3136.0,-576.0
2.5525,-16000.0,-3136.0,-576.0
2.555,-15936.0,-3072.0,-640.0
2.5575,-15936.0,-3136.0,-576.0
2.56,-15936.0,-3264.0,-576.0
2.5625,-15936.0,-3200.0,-576.0
2.565,-15936.0,-3200.0,-640.0
2.5675,-15872.0,-3200.0,-640.0
2.57,-15872.0,-3200.0,-576.0
2.5725,-15872.0,-3200.0,-512.0
2.575,-15936.0,-3264.0,-448.0
2.5775,-15936.0,-3328.0,-512.0
2.58,-16000.0,-3264.0,-576.0
2.5825,-15936.0,-3328.0,-576.0
2.585,-16000.0,-3264.0,-576.0
2.5875,-16000.0,-3264.0,-640.0
2.59,-16064.0,-3328.0,-704.0
2.5925,-16128.0,-3392.0,-704.0
2.595,-16192.0,-3392.0,-704.0
2.5975,-16192.0,-3392.0,-768.0
2.6,-16192.0,-3392.0,-768.0
2.6025,-16256.0,-3328.0,-768.0
2.605,-16320.0,-3328.0,-768.0
2.6075,-16320.0,-3392.0,-704.0
2.61,-16384.0,-3328.0,-640.0
2.6125,-16448.0,-3392.0,-768.0
2.615,-16448.0,-3456.0,-832.0
2.6175,-16512.0,-3456.0,-896.0
2.62,-16576.0,-3456.0,-832.0
2.6225,-16640.0,-3392.0,-832.0
2.625,-16640.0,-3328.0,-768.0
2.6275,-16704.0,-3392.0,-768.0
2.63,-16704.0,-3392.0,-832.0
2.6325,-16704.0,-3456.0,-832.0
2.635,-16704.0,-3520.0,-768.0
2.6375,-16704.0,-3520.0,-768.0
2.64,-16832.0,-3520.0,-640.0
2.6425,-16832.0,-3584.0,-704.0
2.645,-16832.0,-3584.0,-640.0
2.6475,-16896.0,-3520.0,-640.0
2.65,-16896.0,-3584.0,-640.0
2.6525,-16896.0,-3648.0,-640.0
2.655,-16896.0,-3648.0,-576.0
2.6575,-16896.0,-3648.0,-512.0
2.66,-16896.0,-3648.0,-576.0
2.6625,-16896.0,-3584.0,-576.0
2.665,-16896.0,-3648.0,-576.0
2.6675,-16896.0,-3648.0,-512.0
2.67,-16832.0,-3584.0,-512.0
2.6725,-16832.0,-3584.0,-512.0
2.675,-16832.0,-3520.0,-512.0
2.6775,-16768.0,-3520.0,-448.0
2.68,-16704.0,-3520.0,-512.0
2.6825,-16640.0,-3648.0,-448.0
2.685,-16640.0,-3648.0,-384.0
2.6875,-16576.0,-3648.0,-384.0
2.69,-16576.0,-3584.0,-448.0
2.6925,-16512.0,-3584.0,-448.0
2.695,-16448.0,-3712.0,-384.0
2.6975,-16448.0,-3648.0,-384.0
2.7,-16448.0,-3712.0,-448.0
2.7025,-16384.0,-3776.0,-384.0
2.705,-16448.0,-3712.0,-384.0
2.7075,-16320.0,-3776.0,-448.0
2.71,-16320.0,-3776.0,-384.0
2.7125,-16320.0,-3712.0,-384.0
2.715,-16256.0,-3648.0,-384.0
2.7175,-16256.0,-3648.0,-320.0
2.72,-16320.0,-3584.0,-384.0
2.7225,-16256.0,-3712.0,-320.0
2.725,-16256.0,-3712.0,-320.0
2.7275,-16256.0,-3712.0,-320.0
2.73,-16256.0,-3648.0,-320.0
2.7325,-16256.0,-3648.0,-320.0
2.735,-16256.0,-3648.0,-320.0
2.7375,-16320.0,-3648.0,-320.0
2.74,-16256.0,-3648.0,-320.0
2.7425,-16256.0,-3584.0,-320.0
2.745,-16256.0,-3584.0,-256.0
2.7475,-16256.0,-3584.0,-320.0
2.75,-16320.0,-3648.0,-256.0
2.7525,-16320.0,-3648.0,-256.0
2.755,-16320.0,-3648.0,-256.0
2.7575,-16320.0,-3584.0,-320.0
2.76,-16256.0,-3584.0,-256.0
2.7625,-16256.0,-3584.0,-256.0
2.765,-16256.0,-3648.0,-256.0
2.7675,-16256.0,-3584.0,-320.0
2.77,-16256.0,-3648.0,-320.0
2.7725,-16256.0,-3520.0,-256.0
2.775,-16320.0,-3456.0,-320.0
2.7775,-16320.0,-3456.0,-384.0
2.78,-16320.0,-3456.0,-384.0
2.7825,-16256.0,-3456.0,-384.0
2.785,-16320.0,-3456.0,-320.0
2.7875,-16192.0,-3392.0,-320.0
2.79,-16192.0,-3392.0,-384.0
2.7925,-16192.0,-3328.0,-320.0
2.795,-16192.0,-3392.0,-320.0
2.7975,-16192.0,-3328.0,-320.0
2.8,-16256.0,-3264.0,-384.0
2.8025,-16320.0,-3264.0,-448.0
2.805,-16320.0,-3264.0,-448.0
2.8075,-16384.0,-3200.0,-448.0
2.81,-16384.0,-3264.0,-448.0
2.8125,-16384.0,-3264.0,-448.0
2.815,-16320.0,-3200.0,-384.0
2.8175,-16384.0,-3136.0,-448.0
2.82,-16384.0,-3136.0,-512.0
2.8225,-16384.0,-3136.0,-512.0
2.825,-16384.0,-3136.0,-512.0
2.8275,-16384.0,-3136.0,-448.0
2.83,-16320.0,-3072.0,-448.0
2.8325,-16384.0,-3072.0,-384.0
2.835,-16384.0,-3136.0,-384.0
2.8375,-16384.0,-3136.0,-320.0
2.84,-16384.0,-3008.0,-384.0
2.8425,-16320.0,-3072.0,-384.0
2.845,-16256.0,-3072.0,-384.0
2.8475,-16256.0,-3136.0,-384.0
2.85,-16320.0,-3136.0,-320.0
2.8525,-16256.0,-3136.0,-448.0
2.855,-16256.0,-3200.0,-384.0
2.8575,-16256.0,-3136.0,-384.0
2.86,-16320.0,-3136.0,-384.0
2.8625,-16256.0,-3136.0,-320.0
2.865,-16192.0,-3200.0,-384.0
2.8675,-16192.0,-3200.0,-384.0
2.87,-16256.0,-3200.0,-448.0
2.8725,-16192.0,-3136.0,-512.0
2.875,-16192.0,-3136.0,-512.0
2.8775,-16192.0,-3072.0,-512.0
2.88,-16192.0,-3136.0,-448.0
2.8825,-16192.0,-3136.0,-448.0
2.885,-16192.0,-3200.0,-512.0
2.8875,-16192.0,-3136.0,-448.0
2.89,-16192.0,-3136.0,-448.0
2.8925,-16192.0,-3136.0,-448.0
2.895,-16192.0,-3072.0,-512.0
2.8975,-16192.0,-3072.0,-384.0
2.9,-16192.0,-3136.0,-320.0
2.9025,-16192.0,-3136.0,-320.0
2.905,-16128.0,-3136.0,-320.0
2.9075,-16128.0,-3136.0,-256.0
2.91,-16128.0,-3136.0,-192.0
2.9125,-16128.0,-3072.0,-256.0
2.915,-16128.0,-3008.0,-192.0
2.9175,-16128.0,-3136.0,-192.0
2.92,-16064.0,-3136.0,-192.0
2.9225,-16064.0,-3136.0,-192.0
2.925,-16128.0,-3200.0,-192.0
2.9275,-16192.0,-3200.0,-128.0
2.93,-16192.0,-3200.0,-128.0
2.9325,-16192.0,-3200.0,-192.0
2.935,-16192.0,-3264.0,-192.0
2.9375,-16192.0,-3264.0,-192.0
2.94,-16192.0,-3200.0,-128.0
2.9425,-16128.0,-3264.0,-64.0
2.945,-16128.0,-3264.0,-192.0
2.9475,-16128.0,-3264.0,-192.0
2.95,-16128.0,-3328.0,-128.0
2.9525,-16064.0,-3264.0,-64.0
2.955,-16064.0,-3200.0,-128.0
2.9575,-16000.0,-3200.0,-64.0
2.96,-16000.0,-3200.0,-128.0
2.9625,-16000.0,-3264.0,-128.0
2.965,-15936.0,-3200.0,-128.0
2.9675,-15936.0,-3264.0,0.0
2.97,-15936.0,-3264.0,-64.0
2.9725,-15936.0,-3200.0,-128.0
2.975,-15872.0,-3200.0,-64.0
2.9775,-15936.0,-3264.0,-128.0
2.98,-15936.0,-3264.0,-64.0
2.9825,-16000.0,-3264.0,-64.0
2.985,-16000.0,-3328.0,-128.0
2.9875,-16000.0,-3264.0,-128.0
2.99,-16000.0,-3200.0,-128.0
2.9925,-15936.0,-3200.0,-128.0
2.995,-15936.0,-3136.0,-192.0
2.9975,-15936.0,-3136.0,-256.0
3.0,-16000.0,-3200.0,-256.0
3.0025,-16000.0,-3200.0,-320.0
3.005,-15936.0,-3200.0,-320.0
3.0075,-16000.0,-3200.0,-320.0
3.01,-15936.0,-3200.0,-320.0
3.0125,-16000.0,-3200.0,-320.0
3.015,-16000.0,-3200.0,-256.0
3.0175,-16000.0,-3200.0,-256.0
3.02,-16000.0,-3200.0,-192.0
3.0225,-16064.0,-3136.0,-256.0
3.025,-16064.0,-3072.0,-256.0
3.0275,-16064.0,-3136.0,-256.0
3.03,-16064.0,-3136.0,-256.0
3.0325,-16064.0,-3072.0,-320.0
3.035,-16064.0,-3136.0,-320.0
3.0375,-16064.0,-3136.0,-384.0
3.04,-16000.0,-3200.0,-320.0
3.0425,-16064.0,-3200.0,-320.0
3.045,-16064.0,-3136.0,-320.0
3.0475,-16000.0,-3264.0,-320.0
3.05,-15936.0,-3264.0,-384.0
3.0525,-15872.0,-3264.0,-320.0
3.055,-15936.0,-3200.0,-384.0
3.0575,-16000.0,-3200.0,-384.0
3.06,-16064.0,-3200.0,-384.0
3.0625,-16064.0,-3200.0,-384.0
3.065,-16064.0,-3136.0,-448.0
3.0675,-16064.0,-3200.0,-384.0
3.07,-16000.0,-3264.0,-384.0
3.0725,-16064.0,-3200.0,-320.0
3.075,-16000.0,-3136.0,-384.0
3.0775,-16000.0,-3136.0,-448.0
3.08,-16064.0,-3136.0,-320.0
3.0825,-16064.0,-3136.0,-384.0
3.085,-16064.0,-3136.0,-384.0
3.0875,-16128.0,-3264.0,-448.0
3.09,-16128.0,-3264.0,-512.0
3.0925,-16128.0,-3264.0,-512.0
3.095,-16128.0,-3264.0,-512.0
3.0975,-16128.0,-3264.0,-512.0
3.1,-16128.0,-3200.0,-512.0
3.1025,-16128.0,-3264.0,-512.0
3.105,-16128.0,-3200.0,-576.0
3.1075,-16064.0,-3200.0,-512.0
3.11,-16128.0,-3200.0,-576.0
3.1125,-16128.0,-3264.0,-576.0
3.115,-16192.0,-3264.0,-576.0
3.1175,-16192.0,-3264.0,-576.0
3.12,-16128.0,-3136.0,-512.0
3.1225,-16128.0,-3200.0,-512.0
3.125,-16128.0,-3200.0,-512.0
3.1275,-16064.0,-3200.0,-512.0
3.13,-16064.0,-3200.0,-448.0
3.1325,-16128.0,-3200.0,-448.0
3.135,-16128.0,-3136.0,-512.0
3.1375,-16064.0,-3136.0,-576.0
3.14,-16064.0,-3200.0,-576.0
3.1425,-16064.0,-3200.0,-576.0
3.145,-16192.0,-3200.0,-512.0
3.1475,-16128.0,-3264.0,-512.0
3.15,-16128.0,-3264.0,-512.0
3.1525,-16192.0,-3200.0,-576.0
3.155,-16256.0,-3200.0,-576.0
3.1575,-16256.0,-3264.0,-512.0
3.16,-16192.0,-3200.0,-512.0
3.1625,-16192.0,-3200.0,-512.0
3.165,-16192.0,-3264.0,-512.0
3.1675,-16192.0,-3200.0,-512.0
3.17,-16256.0,-3200.0,-576.0
3.1725,-16192.0,-3200.0,-576.0
3.175,-16128.0,-3136.0,-576.0
3.1775,-16128.0,-3200.0,-576.0
3.18,-16128.0,-3264.0,-576.0
3.1825,-16192.0,-3200.0,-576.0
3.185,-16128.0,-3264.0,-640.0
3.1875,-16064.0,-3200.0,-576.0
3.19,-16128.0,-3136.0,-576.0
3.1925,-16064.0,-3136.0,-640.0
3.195,-16064.0,-3200.0,-512.0
3.1975,-16064.0,-3200.0,-512.0
3.2,-16064.0,-3264.0,-512.0
3.2025,-16000.0,-3328.0,-512.0
3.205,-16000.0,-3328.0,-448.0
3.2075,-16064.0,-3264.0,-512.0
3.21,-16064.0,-3264.0,-576.0
3.2125,-16064.0,-3328.0,-576.0
3.215,-15936.0,-3328.0,-512.0
3.2175,-16000.0,-3392.0,-576.0
3.22,-16000.0,-3392.0,-576.0
3.2225,-16000.0,-3392.0,-512.0
3.225,-16000.0,-3328.0,-512.0
3.2275,-15936.0,-3392.0,-512.0
3.23,-16000.0,-3392.0,-512.0
3.2325,-16000.0,-3520.0,-448.0
3.235,-16000.0,-3456.0,-448.0
3.2375,-16000.0,-3456.0,-512.0
3.24,-16000.0,-3520.0,-576.0
3.2425,-16064.0,-3456.0,-512.0
3.245,-16128.0,-3520.0,-576.0
3.2475,-16064.0,-3520.0,-576.0
3.25,-16064.0,-3584.0,-576.0
3.2525,-16128.0,-3520.0,-576.0
3.255,-16256.0,-3520.0,-512.0
3.2575,-16256.0,-3520.0,-576.0
3.26,-16256.0,-3584.0,-512.0
3.2625,-16320.0,-3584.0,-576.0
3.265,-16384.0,-3584.0,-576.0
3.2675,-16384.0,-3520.0,-640.0
3.27,-16320.0,-3584.0,-576.0
3.2725,-16320.0,-3584.0,-512.0
3.275,-16384.0,-3584.0,-512.0
3.2775,-16512.0,-3584.0,-576.0
3.28,-16448.0,-3584.0,-512.0
3.2825,-16448.0,-3584.0,-512.0
3.285,-16448.0,-3584.0,-512.0
3.2875,-16512.0,-3520.0,-512.0
3.29,-16512.0,-3584.0,-512.0
3.2925,-16576.0,-3584.0,-576.0
3.295,-16512.0,-3584.0,-512.0
3.2975,-16576.0,-3584.0,-448.0
3.3,-16576.0,-3648.0,-512.0
3.3025,-16576.0,-3648.0,-512.0
3.305,-16512.0,-3584.0,-512.0
3.3075,-16448.0,-3712.0,-448.0
3.31,-16448.0,-3648.0,-448.0
3.3125,-16384.0,-3584.0,-448.0
3.315,-16320.0,-3584.0,-384.0
3.3175,-16320.0,-3584.0,-448.0
3.32,-16320.0,-3520.0,-448.0
3.3225,-16320.0,-3584.0,-448.0
3.325,-16320.0,-3456.0,-448.0
3.3275,-16256.0,-3456.0,-448.0
3.33,-16256.0,-3456.0,-448.0
3.3325,-16256.0,-3456.0,-384.0
3.335,-16256.0,-3456.0,-384.0
3.3375,-16192.0,-3456.0,-384.0
3.34,-16192.0,-3328.0,-320.0
3.3425,-16128.0,-3328.0,-320.0
3.345,-16128.0,-3392.0,-320.0
3.3475,-16128.0,-3392.0,-256.0
3.35,-16128.0,-3456.0,-320.0
3.3525,-16064.0,-3456.0,-192.0
3.355,-16000.0,-3456.0,-192.0
3.3575,-16000.0,-3456.0,-128.0
3.36,-16000.0,-3456.0,-128.0
3.3625,-16064.0,-3520.0,-128.0
3.365,-16064.0,-3520.0,-192.0
3.3675,-16064.0,-3456.0,-192.0
3.37,-16064.0,-3392.0,-192.0
3.3725,-16064.0,-3456.0,-128.0
3.375,-16000.0,-3392.0,-128.0
3.3775,-16064.0,-3328.0,-256.0
3.38,-16128.0,-3328.0,-256.0
3.3825,-16064.0,-3264.0,-256.0
3.385,-16000.0,-3328.0,-128.0
3.3875,-16064.0,-3328.0,-128.0
3.39,-16064.0,-3328.0,-256.0
3.3925,-16064.0,-3328.0,-256.0
3.395,-16000.0,-3328.0,-192.0
3.3975,-16000.0,-3328.0,-192.0
3.4,-16000.0,-3264.0,-192.0
3.4025,-15936.0,-3328.0,-192.0
3.405,-16000.0,-3264.0,-256.0
3.4075,-16000.0,-3264.0,-192.0
3.41,-16000.0,-3200.0,-192.0
3.4125,-16000.0,-3264.0,-256.0
3.415,-15936.0,-3264.0,-256.0
3.4175,-15936.0,-3264.0,-192.0
3.42,-15936.0,-3264.0,-256.0
3.4225,-16000.0,-3200.0,-256.0
3.425,-16000.0,-3264.0,-192.0
3.4275,-16000.0,-3200.0,-256.0
3.43,-16000.0,-3200.0,-192.0
3.4325,-16000.0,-3200.0,-192.0
3.435,-16000.0,-3136.0,-128.0
3.4375,-16000.0,-3136.0,-192.0
3.44,-16000.0,-3072.0,-192.0
3.4425,-16000.0,-3136.0,-192.0
3.445,-16000.0,-3136.0,-256.0
3.4475,-16064.0,-3136.0,-192.0
3.45,-16064.0,-3008.0,-128.0
3.4525,-16000.0,-3072.0,-128.0
3.455,-16064.0,-3072.0,-128.0
3.4575,-16064.0,-3072.0,-128.0
3.46,-16192.0,-3072.0,-192.0
3.4625,-16128.0,-3072.0,-192.0
3.465,-16128.0,-3072.0,-256.0
3.4675,-16192.0,-3072.0,-320.0
3.47,-16192.0,-3072.0,-256.0
3.4725,-16192.0,-3136.0,-256.0
3.475,-16192.0,-3072.0,-192.0
3.4775,-16256.0,-3200.0,-192.0
3.48,-16320.0,-3136.0,-320.0
3.4825,-16256.0,-3200.0,-320.0
3.485,-16256.0,-3136.0,-256.0
3.4875,-16256.0,-3072.0,-256.0
3.49,-16256.0,-3072.0,-320.0
3.4925,-16192.0,-3072.0,-256.0
3.495,-16256.0,-3072.0,-256.0
3.4975,-16192.0,-3136.0,-256.0
3.5,-16256.0,-3136.0,-256.0
3.5025,-16256.0,-3136.0,-192.0
3.505,-16192.0,-3136.0,-192.0
3.5075,-16256.0,-3200.0,-320.0
3.51,-16256.0,-3200.0,-320.0
3.5125,-16320.0,-3200.0,-320.0
3.515,-16256.0,-3200.0,-256.0
3.5175,-16256.0,-3200.0,-192.0
3.52,-16192.0,-3200.0,-256.0
3.5225,-16192.0,-3200.0,-320.0
3.525,-16128.0,-3264.0,-256.0
3.5275,-16192.0,-3264.0,-256.0
3.53,-16192.0,-3264.0,-256.0
3.5325,-16192.0,-3328.0,-256.0
3.535,-16192.0,-3328.0,-256.0
3.5375,-16256.0,-3328.0,-320.0
3.54,-16256.0,-3392.0,-256.0
3.5425,-16256.0,-3392.0,-320.0
3.545,-16256.0,-3392.0,-256.0
3.5475,-16192.0,-3328.0,-256.0
3.55,-16192.0,-3392.0,-192.0
3.5525,-16192.0,-3392.0,-256.0
3.555,-16192.0,-3328.0,-256.0
3.5575,-16192.0,-3328.0,-192.0
3.56,-16192.0,-3328.0,-128.0
3.5625,-16192.0,-3328.0,-128.0
3.565,-16192.0,-3392.0,-192.0
3.5675,-16192.0,-3392.0,-128.0
3.57,-16256.0,-3456.0,-192.0
3.5725,-16320.0,-3456.0,-192.0
3.575,-16320.0,-3456.0,-192.0
3.5775,-16320.0,-3456.0,-192.0
3.58,-16320.0,-3520.0,-128.0
3.5825,-16256.0,-3520.0,-128.0
3.585,-16256.0,-3520.0,-192.0
3.5875,-16256.0,-3520.0,-256.0
3.59,-16320.0,-3520.0,-256.0
3.5925,-16384.0,-3456.0,-192.0
3.595,-16320.0,-3456.0,-256.0
3.5975,-16256.0,-3456.0,-192.0
3.6,-16320.0,-3456.0,-192.0
3.6025,-16256.0,-3456.0,-256.0
3.605,-16320.0,-3392.0,-192.0
3.6075,-16320.0,-3392.0,-256.0
3.61,-16320.0,-3392.0,-256.0
3.6125,-16320.0,-3328.0,-256.0
3.615,-16320.0,-3392.0,-192.0
3.6175,-16384.0,-3328.0,-256.0
3.62,-16320.0,-3392.0,-192.0
3.6225,-16256.0,-3328.0,-192.0
3.625,-16256.0,-3392.0,-192.0
3.6275,-16256.0,-3456.0,-256.0
3.63,-16256.0,-3456.0,-128.0
3.6325,-16256.0,-3456.0,-192.0
3.635,-16320.0,-3456.0,-192.0
3.6375,-16256.0,-3392.0,-256.0
3.64,-16192.0,-3456.0,-192.0
3.6425,-16192.0,-3520.0,-192.0
3.645,-16256.0,-3520.0,-192.0
3.6475,-16256.0,-3520.0,-320.0
3.65,-16192.0,-3456.0,-320.0
3.6525,-16192.0,-3392.0,-320.0
3.655,-16128.0,-3392.0,-320.0
3.6575,-16128.0,-3328.0,-384.0
3.66,-16128.0,-3328.0,-320.0
3.6625,-16128.0,-3392.0,-320.0
3.665,-16000.0,-3264.0,-320.0
3.6675,-16064.0,-3264.0,-320.0
3.67,-16064.0,-3264.0,-320.0
3.6725,-16064.0,-3200.0,-384.0
3.675,-16000.0,-3264.0,-384.0
3.6775,-16000.0,-3264.0,-320.0
3.68,-16000.0,-3264.0,-448.0
3.6825,-16000.0,-3264.0,-384.0
3.685,-16000.0,-3328.0,-256.0
3.6875,-16000.0,-3392.0,-320.0
3.69,-16000.0,-3328.0,-384.0
3.6925,-16064.0,-3392.0,-384.0
3.695,-16064.0,-3392.0,-320.0
3.6975,-16064.0,-3392.0,-320.0
3.7,-16064.0,-3392.0,-320.0
3.7025,-16064.0,-3328.0,-320.0
3.705,-16128.0,-3392.0,-256.0
3.7075,-16192.0,-3456.0,-256.0
3.71,-16128.0,-3328.0,-320.0
3.7125,-16192.0,-3328.0,-384.0
3.715,-16128.0,-3328.0,-448.0
3.7175,-16192.0,-3264.0,-448.0
3.72,-16192.0,-3264.0,-448.0
3.7225,-16256.0,-3264.0,-448.0
3.725,-16320.0,-3200.0,-512.0
3.7275,-16320.0,-3200.0,-448.0
3.73,-16320.0,-3136.0,-448.0
3.7325,-16384.0,-3136.0,-448.0
3.735,-16448.0,-3136.0,-448.0
3.7375,-16448.0,-3200.0,-448.0
3.74,-16512.0,-3200.0,-448.0
3.7425,-16512.0,-3200.0,-512.0
3.745,-16512.0,-3136.0,-512.0
3.7475,-16576.0,-3200.0,-448.0
3.75,-16576.0,-3200.0,-512.0
3.7525,-16576.0,-3264.0,-512.0
3.755,-16576.0,-3264.0,-576.0
3.7575,-16576.0,-3264.0,-512.0
3.76,-16576.0,-3136.0,-448.0
3.7625,-16640.0,-3136.0,-448.0
3.765,-16576.0,-3072.0,-512.0
3.7675,-16576.0,-3136.0,-512.0
3.77,-16576.0,-3136.0,-448.0
3.7725,-16512.0,-3072.0,-448.0
3.775,-16576.0,-3072.0,-448.0
3.7775,-16576.0,-3072.0,-448.0
3.78,-16576.0,-3072.0,-384.0
3.7825,-16512.0,-3136.0,-384.0
3.785,-16512.0,-3200.0,-384.0
3.7875,-16384.0,-3200.0,-384.0
3.79,-16448.0,-3200.0,-384.0
3.7925,-16384.0,-3200.0,-320.0
3.795,-16320.0,-3200.0,-384.0
3.7975,-16384.0,-3200.0,-320.0
3.8,-16384.0,-3264.0,-256.0
3.8025,-16320.0,-3264.0,-256.0
3.805,-16256.0,-3264.0,-320.0
3.8075,-16192.0,-3264.0,-256.0
3.81,-16192.0,-3200.0,-192.0
3.8125,-16128.0,-3264.0,-320.0
3.815,-16192.0,-3264.0,-320.0
3.8175,-16128.0,-3264.0,-256.0
3.82,-16128.0,-3200.0,-384.0
3.8225,-16064.0,-3136.0,-320.0
3.825,-16064.0,-3136.0,-384.0
3.8275,-16000.0,-3136.0,-320.0
3.83,-15936.0,-3136.0,-384.0
3.8325,-15936.0,-3136.0,-448.0
3.835,-16000.0,-3072.0,-512.0
3.8375,-15936.0,-3072.0,-448.0
3.84,-15872.0,-3072.0,-320.0
3.8425,-15872.0,-3136.0,-192.0
3.845,-15808.0,-3136.0,-256.0
3.8475,-15808.0,-3200.0,-256.0
3.85,-15872.0,-3136.0,-128.0
3.8525,-15872.0,-3136.0,-128.0
3.855,-15872.0,-3136.0,-64.0
3.8575,-15936.0,-3200.0,-128.0
3.86,-15936.0,-3200.0,-192.0
3.8625,-15936.0,-3264.0,-320.0
3.865,-15936.0,-3264.0,-320.0
3.8675,-15936.0,-3264.0,-320.0
3.87,-15936.0,-3264.0,-320.0
3.8725,-15936.0,-3264.0,-256.0
3.875,-15936.0,-3264.0,-256.0
3.8775,-15936.0,-3264.0,-320.0
3.88,-16000.0,-3264.0,-256.0
3.8825,-15936.0,-3264.0,-256.0
3.885,-16000.0,-3264.0,-256.0
3.8875,-16000.0,-3264.0,-256.0
3.89,-16000.0,-3200.0,-256.0
3.8925,-16064.0,-3328.0,-320.0
3.895,-16064.0,-3392.0,-320.0
3.8975,-16064.0,-3392.0,-384.0
3.9,-16064.0,-3392.0,-320.0
3.9025,-16064.0,-3328.0,-448.0
3.905,-16128.0,-3328.0,-448.0
3.9075,-16128.0,-3328.0,-384.0
3.91,-16128.0,-3328.0,-384.0
3.9125,-16128.0,-3328.0,-448.0
3.915,-16256.0,-3328.0,-448.0
3.9175,-16128.0,-3328.0,-512.0
3.92,-16256.0,-3392.0,-448.0
3.9225,-16256.0,-3328.0,-512.0
3.925,-16320.0,-3328.0,-512.0
3.9275,-16256.0,-3392.0,-448.0
3.93,-16256.0,-3392.0,-512.0
3.9325,-16256.0,-3392.0,-512.0
3.935,-16320.0,-3456.0,-448.0
3.9375,-16256.0,-3392.0,-448.0
3.94,-16256.0,-3392.0,-384.0
3.9425,-16256.0,-3456.0,-384.0
3.945,-16256.0,-3456.0,-384.0
3.9475,-16256.0,-3456.0,-384.0
3.95,-16256.0,-3456.0,-320.0
3.9525,-16256.0,-3456.0,-320.0
3.955,-16192.0,-3520.0,-320.0
3.9575,-16192.0,-3520.0,-384.0
3.96,-16256.0,-3456.0,-384.0
3.9625,-16256.0,-3456.0,-320.0
3.965,-16256.0,-3456.0,-384.0
3.9675,-16256.0,-3456.0,-384.0
3.97,-16192.0,-3392.0,-448.0
3.9725,-16256.0,-3456.0,-448.0
3.975,-16128.0,-3456.0,-512.0
3.9775,-16128.0,-3520.0,-448.0
3.98,-16128.0,-3456.0,-512.0
3.9825,-16128.0,-3456.0,-512.0
3.985,-16128.0,-3456.0,-448.0
3.9875,-16064.0,-3456.0,-448.0
3.99,-16000.0,-3520.0,-448.0
3.9925,-16064.0,-3456.0,-448.0
3.995,-16064.0,-3456.0,-448.0
3.9975,-16000.0,-3456.0,-448.0
4.0,-16064.0,-3456.0,-384.0
4.0025,-16064.0,-3456.0,-512.0
4.005,-16064.0,-3520.0,-512.0
4.0075,-16000.0,-3456.0,-512.0
4.01,-16064.0,-3456.0,-448.0
4.0125,-16000.0,-3456.0,-512.0
4.015,-15936.0,-3456.0,-448.0
4.0175,-16000.0,-3456.0,-448.0
4.02,-16064.0,-3456.0,-448.0
4.0225,-16000.0,-3456.0,-384.0
4.025,-16000.0,-3520.0,-384.0
4.0275,-16064.0,-3456.0,-448.0
4.03,-16064.0,-3520.0,-384.0
4.0325,-16128.0,-3456.0,-320.0
4.035,-16128.0,-3456.0,-384.0
4.0375,-16128.0,-3456.0,-320.0
4.04,-16064.0,-3456.0,-256.0
4.0425,-16128.0,-3456.0,-320.0
4.045,-16128.0,-3392.0,-320.0
4.0475,-16128.0,-3392.0,-384.0
4.05,-16128.0,-3392.0,-384.0
4.0525,-16192.0,-3456.0,-384.0
4.055,-16192.0,-3520.0,-384.0
4.0575,-16192.0,-3456.0,-384.0
4.06,-16128.0,-3520.0,-384.0
4.0625,-16128.0,-3584.0,-448.0
4.065,-16192.0,-3520.0,-384.0
4.0675,-16192.0,-3456.0,-384.0
4.07,-16192.0,-3392.0,-384.0
4.0725,-16256.0,-3456.0,-448.0
4.075,-16192.0,-3456.0,-448.0
4.0775,-16192.0,-3456.0,-448.0
4.08,-16192.0,-3456.0,-448.0
4.0825,-16320.0,-3456.0,-448.0
4.085,-16256.0,-3456.0,-448.0
4.0875,-16192.0,-3456.0,-448.0
4.09,-16192.0,-3456.0,-448.0
4.0925,-16192.0,-3456.0,-448.0
4.095,-16192.0,-3392.0,-512.0
4.0975,-16192.0,-3456.0,-512.0
4.1,-16192.0,-3392.0,-576.0
4.1025,-16192.0,-3392.0,-512.0
4.105,-16256.0,-3328.0,-512.0
4.1075,-16256.0,-3328.0,-576.0
4.11,-16320.0,-3328.0,-512.0
4.1125,-16320.0,-3392.0,-512.0
4.115,-16320.0,-3392.0,-448.0
4.1175,-16256.0,-3392.0,-448.0
4.12,-16256.0,-3392.0,-448.0
4.1225,-16192.0,-3392.0,-448.0
4.125,-16320.0,-3392.0,-384.0
4.1275,-16256.0,-3392.0,-448.0
4.13,-16256.0,-3392.0,-448.0
4.1325,-16256.0,-3456.0,-448.0
4.135,-16256.0,-3456.0,-384.0
4.1375,-16320.0,-3456.0,-384.0
4.14,-16320.0,-3328.0,-384.0
4.1425,-16320.0,-3392.0,-384.0
4.145,-16192.0,-3392.0,-320.0
4.1475,-16192.0,-3392.0,-320.0
4.15,-16192.0,-3392.0,-320.0
4.1525,-16192.0,-3456.0,-320.0
4.155,-16192.0,-3456.0,-320.0
4.1575,-16192.0,-3456.0,-384.0
4.16,-16192.0,-3392.0,-320.0
4.1625,-16192.0,-3328.0,-320.0
4.165,-16128.0,-3392.0,-384.0
4.1675,-16064.0,-3392.0,-384.0
4.17,-16000.0,-3392.0,-320.0
4.1725,-16064.0,-3392.0,-384.0
4.175,-16064.0,-3392.0,-384.0
4.1775,-16128.0,-3328.0,-320.0
4.18,-16128.0,-3392.0,-384.0
4.1825,-16128.0,-3392.0,-320.0
4.185,-16064.0,-3392.0,-320.0
4.1875,-16064.0,-3328.0,-384.0
4.19,-16064.0,-3392.0,-320.0
4.1925,-16064.0,-3392.0,-320.0
4.195,-16064.0,-3328.0,-256.0
4.1975,-16064.0,-3328.0,-256.0
4.2,-16128.0,-3328.0,-192.0
4.2025,-16064.0,-3392.0,-256.0
4.205,-16064.0,-3328.0,-256.0
4.2075,-16064.0,-3328.0,-256.0
4.21,-16000.0,-3392.0,-256.0
4.2125,-16064.0,-3392.0,-256.0
4.215,-16000.0,-3328.0,-256.0
4.2175,-16064.0,-3392.0,-256.0
4.22,-16128.0,-3392.0,-256.0
4.2225,-16064.0,-3456.0,-256.0
4.225,-16064.0,-3456.0,-192.0
4.2275,-16000.0,-3456.0,-192.0
4.23,-16000.0,-3520.0,-128.0
4.2325,-16064.0,-3520.0,-256.0
4.235,-16000.0,-3520.0,-320.0
4.2375,-16064.0,-3520.0,-320.0
4.24,-16000.0,-3520.0,-320.0
4.2425,-16064.0,-3520.0,-320.0
4.245,-16000.0,-3520.0,-384.0
4.2475,-16000.0,-3520.0,-384.0
4.25,-16000.0,-3520.0,-320.0
4.2525,-16064.0,-3520.0,-384.0
4.255,-16000.0,-3520.0,-384.0
4.2575,-15936.0,-3520.0,-384.0
4.26,-16064.0,-3520.0,-384.0
4.2625,-16064.0,-3520.0,-256.0
4.265,-16064.0,-3520.0,-320.0
4.2675,-16064.0,-3456.0,-384.0
4.27,-16064.0,-3456.0,-384.0
4.2725,-16064.0,-3456.0,-384.0
4.275,-16064.0,-3456.0,-384.0
4.2775,-16128.0,-3520.0,-320.0
4.28,-16128.0,-3584.0,-384.0
4.2825,-16128.0,-3584.0,-384.0
4.285,-16128.0,-3520.0,-448.0
4.2875,-16128.0,-3520.0,-512.0
4.29,-16192.0,-3520.0,-448.0
4.2925,-16256.0,-3520.0,-448.0
4.295,-16256.0,-3520.0,-384.0
4.2975,-16320.0,-3520.0,-448.0
4.3,-16320.0,-3584.0,-448.0
4.3025,-16384.0,-3584.0,-384.0
4.305,-16448.0,-3584.0,-448.0
4.3075,-16448.0,-3584.0,-448.0
4.31,-16576.0,-3520.0,-512.0
4.3125,-16576.0,-3520.0,-448.0
4.315,-16576.0,-3520.0,-448.0
4.3175,-16640.0,-3520.0,-448.0
4.32,-16832.0,-3520.0,-512.0
4.3225,-16832.0,-3520.0,-512.0
4.325,-16896.0,-3520.0,-448.0
4.3275,-16960.0,-3520.0,-512.0
4.33,-16896.0,-3456.0,-512.0
4.3325,-16960.0,-3456.0,-448.0
4.335,-16960.0,-3520.0,-512.0
4.3375,-16960.0,-3520.0,-512.0
4.34,-16960.0,-3456.0,-576.0
4.3425,-16960.0,-3456.0,-512.0
4.345,-17024.0,-3392.0,-448.0
4.3475,-17088.0,-3328.0,-512.0
4.35,-17152.0,-3328.0,-512.0
4.3525,-17024.0,-3264.0,-448.0
4.355,-17024.0,-3328.0,-448.0
4.3575,-17088.0,-3264.0,-384.0
4.36,-17088.0,-3264.0,-448.0
4.3625,-17024.0,-3264.0,-384.0
4.365,-17024.0,-3200.0,-320.0
4.3675,-16960.0,-3200.0,-320.0
4.37,-16896.0,-3200.0,-320.0
4.3725,-16896.0,-3136.0,-320.0
4.375,-16832.0,-3136.0,-384.0
4.3775,-16768.0,-3136.0,-320.0
4.38,-16704.0,-3136.0,-320.0
4.3825,-16640.0,-3072.0,-320.0
4.385,-16640.0,-3072.0,-256.0
4.3875,-16576.0,-3136.0,-256.0
4.39,-16512.0,-3072.0,-192.0
4.3925,-16448.0,-3072.0,-192.0
4.395,-16384.0,-3136.0,-128.0
4.3975,-16320.0,-3072.0,-64.0
4.4,-16128.0,-3072.0,-128.0
4.4025,-16064.0,-3136.0,0.0
4.405,-16000.0,-3136.0,-64.0
4.4075,-16064.0,-3136.0,-128.0
4.41,-16000.0,-3136.0,-128.0
4.4125,-15936.0,-3136.0,-128.0
4.415,-15872.0,-3072.0,-64.0
4.4175,-15808.0,-3072.0,-64.0
4.42,-15808.0,-3008.0,-64.0
4.4225,-15808.0,-2944.0,-64.0
4.425,-15744.0,-2944.0,0.0
4.4275,-15680.0,-2944.0,-128.0
4.43,-15680.0,-2944.0,-128.0
4.4325,-15552.0,-2944.0,-128.0
4.435,-15552.0,-2944.0,-64.0
4.4375,-15552.0,-2944.0,0.0
4.44,-15488.0,-2944.0,0.0
4.4425,-15488.0,-2880.0,0.0
4.445,-15488.0,-2880.0,-64.0
4.4475,-15488.0,-2816.0,0.0
4.45,-15424.0,-2816.0,0.0
4.4525,-15424.0,-2816.0,64.0
4.455,-15424.0,-2816.0,0.0
4.4575,-15424.0,-2880.0,0.0
4.46,-15424.0,-2880.0,64.0
4.4625,-15424.0,-2816.0,0.0
4.465,-15360.0,-2880.0,64.0
4.4675,-15424.0,-2880.0,64.0
4.47,-15424.0,-2880.0,128.0
4.4725,-15424.0,-2880.0,128.0
4.475,-15424.0,-2816.0,192.0
4.4775,-15488.0,-2944.0,192.0
4.48,-15552.0,-2880.0,192.0
4.4825,-15552.0,-2880.0,64.0
4.485,-15616.0,-2944.0,64.0
4.4875,-15680.0,-2944.0,0.0
4.49,-15680.0,-2816.0,-64.0
4.4925,-15680.0,-2880.0,-64.0
4.495,-15744.0,-2944.0,-64.0
4.4975,-15808.0,-2944.0,-128.0
4.5,-15808.0,-2944.0,-128.0
4.5025,-15936.0,-3008.0,-64.0
4.505,-16000.0,-3072.0,-128.0
4.5075,-16000.0,-3008.0,-128.0
4.51,-16064.0,-3008.0,-192.0
4.5125,-16128.0,-3072.0,-128.0
4.515,-16192.0,-3008.0,-256.0
4.5175,-16192.0,-3008.0,-256.0
4.52,-16192.0,-3072.0,-320.0
4.5225,-16192.0,-3008.0,-320.0
4.525,-16256.0,-2944.0,-256.0
4.5275,-16320.0,-3008.0,-256.0
4.53,-16256.0,-3008.0,-256.0
4.5325,-16320.0,-3008.0,-320.0
4.535,-16384.0,-3008.0,-320.0
4.5375,-16384.0,-3072.0,-256.0
4.54,-16384.0,-3008.0,-320.0
4.5425,-16384.0,-3008.0,-384.0
4.545,-16448.0,-3008.0,-448.0
4.5475,-16448.0,-3008.0,-384.0
4.55,-16448.0,-3008.0,-384.0
4.5525,-16448.0,-3072.0,-384.0
4.555,-16384.0,-3136.0,-320.0
4.5575,-16320.0,-3200.0,-256.0
4.56,-16256.0,-3200.0,-256.0
4.5625,-16256.0,-3264.0,-256.0
4.565,-16256.0,-3328.0,-256.0
4.5675,-16192.0,-3328.0,-192.0
4.57,-16128.0,-3328.0,-192.0
4.5725,-16128.0,-3392.0,-128.0
4.575,-16064.0,-3456.0,-192.0
4.5775,-16064.0,-3456.0,-192.0
4.58,-15936.0,-3456.0,-256.0
4.5825,-15936.0,-3456.0,-256.0
4.585,-15936.0,-3456.0,-320.0
4.5875,-15872.0,-3456.0,-384.0
4.59,-15872.0,-3456.0,-384.0
4.5925,-15872.0,-3456.0,-448.0
4.595,-15808.0,-3456.0,-512.0
4.5975,-15808.0,-3520.0,-512.0
4.6,-15680.0,-3456.0,-512.0
4.6025,-15680.0,-3584.0,-512.0
4.605,-15680.0,-3520.0,-512.0
4.6075,-15680.0,-3584.0,-448.0
4.61,-15680.0,-3520.0,-384.0
4.6125,-15616.0,-3520.0,-384.0
4.615,-15616.0,-3520.0,-384.0
4.6175,-15680.0,-3520.0,-320.0
4.62,-15616.0,-3520.0,-320.0
4.6225,-15680.0,-3520.0,-320.0
4.625,-15616.0,-3584.0,-320.0
4.6275,-15616.0,-3584.0,-384.0
4.63,-15680.0,-3648.0,-256.0
4.6325,-15680.0,-3584.0,-320.0
4.635,-15744.0,-3584.0,-256.0
4.6375,-15744.0,-3584.0,-256.0
4.64,-15872.0,-3520.0,-320.0
4.6425,-15936.0,-3520.0,-320.0
4.645,-15936.0,-3520.0,-384.0
4.6475,-15936.0,-3520.0,-384.0
4.65,-15936.0,-3520.0,-384.0
4.6525,-16064.0,-3520.0,-448.0
4.655,-16064.0,-3456.0,-448.0
4.6575,-16064.0,-3456.0,-448.0
4.66,-16192.0,-3392.0,-512.0
4.6625,-16256.0,-3456.0,-512.0
4.665,-16320.0,-3456.0,-512.0
4.6675,-16320.0,-3520.0,-448.0
4.67,-16384.0,-3456.0,-512.0
4.6725,-16384.0,-3456.0,-576.0
4.675,-16448.0,-3456.0,-576.0
4.6775,-16512.0,-3392.0,-576.0
4.68,-16576.0,-3328.0,-576.0
4.6825,-16576.0,-3264.0,-576.0
4.685,-16640.0,-3200.0,-576.0
4.6875,-16576.0,-3264.0,-576.0
4.69,-16640.0,-3264.0,-704.0
4.6925,-16640.0,-3264.0,-640.0
4.695,-16704.0,-3264.0,-640.0
4.6975,-16768.0,-3200.0,-704.0
4.7,-16704.0,-3136.0,-768.0
4.7025,-16704.0,-3072.0,-832.0
4.705,-16704.0,-3008.0,-768.0
4.7075,-16704.0,-3008.0,-768.0
4.71,-16768.0,-2944.0,-768.0
4.7125,-16768.0,-2944.0,-832.0
4.715,-16768.0,-2880.0,-832.0
4.7175,-16768.0,-2816.0,-832.0
4.72,-16768.0,-2752.0,-832.0
4.7225,-16768.0,-2752.0,-896.0
4.725,-16768.0,-2752.0,-896.0
4.7275,-16768.0,-2752.0,-832.0
4.73,-16704.0,-2688.0,-896.0
4.7325,-16704.0,-2688.0,-832.0
4.735,-16704.0,-2688.0,-832.0
4.7375,-16768.0,-2752.0,-832.0
4.74,-16768.0,-2688.0,-896.0
4.7425,-16768.0,-2560.0,-896.0
4.745,-16640.0,-2624.0,-896.0
4.7475,-16640.0,-2624.0,-832.0
4.75,-16640.0,-2560.0,-896.0
4.7525,-16640.0,-2496.0,-896.0
4.755,-16576.0,-2496.0,-832.0
4.7575,-16640.0,-2496.0,-896.0
4.76,-16576.0,-2496.0,-896.0
4.7625,-16512.0,-2496.0,-960.0
4.765,-16512.0,-2496.0,-896.0
4.7675,-16448.0,-2496.0,-896.0
4.77,-16384.0,-2496.0,-832.0
4.7725,-16384.0,-2560.0,-832.0
4.775,-16320.0,-2624.0,-768.0
4.7775,-16256.0,-2560.0,-768.0
4.78,-16192.0,-2560.0,-768.0
4.7825,-16128.0,-2560.0,-768.0
4.785,-16192.0,-2624.0,-768.0
4.7875,-16064.0,-2624.0,-768.0
4.79,-16064.0,-2624.0,-704.0
4.7925,-16064.0,-2688.0,-704.0
4.795,-16000.0,-2688.0,-768.0
4.7975,-16000.0,-2624.0,-768.0
4.8,-16000.0,-2688.0,-832.0
4.8025,-16000.0,-2752.0,-960.0
4.805,-16000.0,-2752.0,-960.0
4.8075,-15936.0,-2752.0,-896.0
4.81,-15872.0,-2816.0,-832.0
4.8125,-15936.0,-2752.0,-768.0
4.815,-15872.0,-2752.0,-832.0
4.8175,-15744.0,-2752.0,-832.0
4.82,-15744.0,-2816.0,-832.0
4.8225,-15808.0,-2880.0,-832.0
4.825,-15744.0,-2880.0,-768.0
4.8275,-15744.0,-2944.0,-704.0
4.83,-15744.0,-2944.0,-640.0
4.8325,-15680.0,-2944.0,-512.0
4.835,-15680.0,-3008.0,-576.0
4.8375,-15680.0,-2944.0,-512.0
4.84,-15744.0,-3072.0,-512.0
4.8425,-15680.0,-3072.0,-512.0
4.845,-15744.0,-3136.0,-512.0
4.8475,-15808.0,-3136.0,-448.0
4.85,-15808.0,-3136.0,-512.0
4.8525,-15808.0,-3136.0,-576.0
4.855,-15744.0,-3136.0,-576.0
4.8575,-15808.0,-3136.0,-576.0
4.86,-15808.0,-3200.0,-576.0
4.8625,-15808.0,-3200.0,-640.0
4.865,-15872.0,-3264.0,-640.0
4.8675,-15872.0,-3264.0,-640.0
4.87,-15936.0,-3328.0,-704.0
4.8725,-15872.0,-3264.0,-640.0
4.875,-15936.0,-3328.0,-640.0
4.8775,-15936.0,-3328.0,-640.0
4.88,-16000.0,-3328.0,-704.0
4.8825,-16000.0,-3328.0,-640.0
4.885,-16000.0,-3328.0,-640.0
4.8875,-16064.0,-3328.0,-640.0
4.89,-16128.0,-3392.0,-704.0
4.8925,-16256.0,-3392.0,-704.0
4.895,-16320.0,-3392.0,-704.0
4.8975,-16320.0,-3392.0,-704.0
4.9,-16512.0,-3392.0,-704.0
4.9025,-16512.0,-3392.0,-704.0
4.905,-16576.0,-3456.0,-704.0
4.9075,-16576.0,-3456.0,-640.0
4.91,-16640.0,-3456.0,-704.0
4.9125,-16704.0,-3456.0,-640.0
4.915,-16832.0,-3456.0,-640.0
4.9175,-16960.0,-3456.0,-576.0
4.92,-16960.0,-3456.0,-576.0
4.9225,-17024.0,-3456.0,-576.0
4.925,-17024.0,-3392.0,-576.0
4.9275,-17088.0,-3392.0,-576.0
4.93,-17152.0,-3392.0,-576.0
4.9325,-17216.0,-3392.0,-576.0
4.935,-17216.0,-3392.0,-512.0
4.9375,-17344.0,-3392.0,-512.0
4.94,-17408.0,-3392.0,-512.0
4.9425,-17408.0,-3456.0,-512.0
4.945,-17408.0,-3392.0,-576.0
4.9475,-17408.0,-3392.0,-512.0
4.95,-17472.0,-3328.0,-512.0
4.9525,-17472.0,-3328.0,-512.0
4.955,-17536.0,-3264.0,-448.0
4.9575,-17600.0,-3200.0,-512.0
4.96,-17536.0,-3200.0,-448.0
4.9625,-17536.0,-3136.0,-512.0
4.965,-17472.0,-3072.0,-512.0
4.9675,-17472.0,-3072.0,-448.0
4.97,-17472.0,-3072.0,-448.0
4.9725,-17536.0,-3072.0,-448.0
4.975,-17472.0,-3072.0,-512.0
4.9775,-17536.0,-3008.0,-576.0
4.98,-17472.0,-3008.0,-576.0
4.9825,-17472.0,-2944.0,-640.0
4.985,-17408.0,-2816.0,-576.0
4.9875,-17408.0,-2944.0,-640.0
4.99,-17472.0,-2944.0,-640.0
4.9925,-17408.0,-2816.0,-576.0
4.995,-17344.0,-2816.0,-640.0
4.9975,-17216.0,-2816.0,-640.0
5.0,-17216.0,-2880.0,-640.0
5.0025,-17152.0,-2880.0,-576.0
5.005,-17216.0,-2880.0,-576.0
5.0075,-17216.0,-2816.0,-448.0
5.01,-17152.0,-2880.0,-384.0
5.0125,-17152.0,-2880.0,-320.0
5.015,-17216.0,-2816.0,-256.0
5.0175,-17216.0,-2816.0,-192.0
5.02,-17216.0,-2880.0,-64.0
5.0225,-17216.0,-2880.0,192.0
5.025,-17216.0,-2944.0,320.0
5.0275,-17280.0,-3008.0,384.0
5.03,-17280.0,-3136.0,448.0
5.0325,-17344.0,-3136.0,512.0
5.035,-17344.0,-3072.0,576.0
5.0375,-17408.0,-3136.0,640.0
5.04,-17344.0,-3328.0,640.0
5.0425,-17344.0,-3392.0,576.0
5.045,-17280.0,-3456.0,512.0
5.0475,-17344.0,-3456.0,512.0
5.05,-17280.0,-3456.0,448.0
5.0525,-17216.0,-3392.0,320.0
5.055,-17152.0,-3392.0,192.0
5.0575,-16960.0,-3328.0,64.0
5.06,-16896.0,-3264.0,0.0
5.0625,-16704.0,-3264.0,-128.0
5.065,-16576.0,-3264.0,-256.0
5.0675,-16384.0,-3200.0,-384.0
5.07,-16256.0,-3328.0,-448.0
5.0725,-16064.0,-3328.0,-576.0
5.075,-16000.0,-3328.0,-512.0
5.0775,-15872.0,-3392.0,-576.0
5.08,-15744.0,-3392.0,-512.0
5.0825,-15552.0,-3392.0,-448.0
5.085,-15360.0,-3392.0,-384.0
5.0875,-15296.0,-3392.0,-256.0
5.09,-15168.0,-3392.0,-192.0
5.0925,-15040.0,-3392.0,-64.0
5.095,-14976.0,-3392.0,64.0
5.0975,-14912.0,-3328.0,192.0
5.1,-14720.0,-3328.0,320.0
5.1025,-14656.0,-3328.0,512.0
5.105,-14592.0,-3264.0,576.0
5.1075,-14464.0,-3200.0,704.0
5.11,-14464.0,-3200.0,704.0
5.1125,-14464.0,-3264.0,768.0
5.115,-14400.0,-3200.0,832.0
5.1175,-14400.0,-3136.0,832.0
5.12,-14400.0,-3008.0,704.0
5.1225,-14336.0,-2880.0,640.0
5.125,-14336.0,-2816.0,640.0
5.1275,-14272.0,-2752.0,448.0
5.13,-14336.0,-2688.0,384.0
5.1325,-14336.0,-2624.0,320.0
5.135,-14336.0,-2560.0,256.0
5.1375,-14336.0,-2560.0,64.0
5.14,-14464.0,-2432.0,0.0
5.1425,-14464.0,-2368.0,-64.0
5.145,-14464.0,-2304.0,-192.0
5.1475,-14528.0,-2240.0,-320.0
5.15,-14592.0,-2176.0,-320.0
5.1525,-14592.0,-2176.0,-384.0
5.155,-14656.0,-2112.0,-512.0
5.1575,-14848.0,-2112.0,-512.0
5.16,-14848.0,-2048.0,-576.0
5.1625,-14976.0,-2048.0,-576.0
5.165,-15040.0,-1984.0,-640.0
5.1675,-15168.0,-1984.0,-768.0
5.17,-15360.0,-2048.0,-704.0
5.1725,-15424.0,-2048.0,-704.0
5.175,-15424.0,-2048.0,-768.0
5.1775,-15552.0,-1984.0,-704.0
5.18,-15744.0,-1920.0,-832.0
5.1825,-15808.0,-1920.0,-832.0
5.185,-15936.0,-1920.0,-896.0
5.1875,-16000.0,-1920.0,-960.0
5.19,-16064.0,-1920.0,-896.0
5.1925,-16128.0,-1920.0,-896.0
5.195,-16256.0,-1920.0,-1024.0
5.1975,-16256.0,-1920.0,-1088.0
5.2,-16384.0,-1920.0,-1088.0
5.2025,-16384.0,-1920.0,-1152.0
5.205,-16512.0,-1792.0,-1216.0
5.2075,-16576.0,-1856.0,-1152.0
5.21,-16576.0,-1856.0,-1152.0
5.2125,-16512.0,-1856.0,-1152.0
5.215,-16576.0,-1792.0,-1152.0
5.2175,-16640.0,-1856.0,-1152.0
5.22,-16640.0,-1792.0,-1088.0
5.2225,-16576.0,-1792.0,-1216.0
5.225,-16576.0,-1792.0,-1216.0
5.2275,-16576.0,-1856.0,-1152.0
5.23,-16640.0,-1792.0,-1152.0
5.2325,-16640.0,-1920.0,-1152.0
5.235,-16576.0,-1856.0,-1216.0
5.2375,-16576.0,-1920.0,-1152.0
5.24,-16576.0,-1856.0,-1152.0
5.2425,-16512.0,-1856.0,-1152.0
5.245,-16576.0,-1856.0,-1216.0
5.2475,-16576.0,-1920.0,-1216.0
5.25,-16576.0,-1920.0,-1152.0
5.2525,-16512.0,-1984.0,-1280.0
5.255,-16512.0,-1920.0,-1216.0
5.2575,-16512.0,-1984.0,-1152.0
5.26,-16512.0,-1984.0,-1216.0
5.2625,-16448.0,-2048.0,-1152.0
5.265,-16448.0,-2048.0,-1152.0
5.2675,-16512.0,-2048.0,-1152.0
5.27,-16384.0,-2112.0,-1152.0
5.2725,-16384.0,-2112.0,-1088.0
5.275,-16384.0,-2112.0,-1024.0
5.2775,-16320.0,-2176.0,-1024.0
5.28,-16320.0,-2304.0,-960.0
5.2825,-16320.0,-2304.0,-960.0
5.285,-16320.0,-2304.0,-960.0
5.2875,-16320.0,-2368.0,-1024.0
5.29,-16320.0,-2368.0,-896.0
5.2925,-16320.0,-2496.0,-768.0
5.295,-16320.0,-2560.0,-704.0
5.2975,-16320.0,-2496.0,-704.0
5.3,-16256.0,-2624.0,-576.0
5.3025,-16256.0,-2688.0,-576.0
5.305,-16192.0,-2752.0,-448.0
5.3075,-16192.0,-2816.0,-448.0
5.31,-16192.0,-2880.0,-448.0
5.3125,-16192.0,-2944.0,-384.0
5.315,-16192.0,-3008.0,-384.0
5.3175,-16256.0,-3008.0,-320.0
5.32,-16256.0,-3072.0,-320.0
5.3225,-16256.0,-3072.0,-384.0
5.325,-16256.0,-3200.0,-384.0
5.3275,-16192.0,-3200.0,-512.0
5.33,-16192.0,-3264.0,-576.0
5.3325,-16192.0,-3264.0,-640.0
5.335,-16192.0,-3264.0,-704.0
5.3375,-16128.0,-3328.0,-832.0
5.34,-16128.0,-3392.0,-960.0
5.3425,-16192.0,-3392.0,-1088.0
5.345,-16256.0,-3328.0,-1152.0
5.3475,-16256.0,-3328.0,-1152.0
5.35,-16256.0,-3328.0,-1216.0
5.3525,-16320.0,-3328.0,-1280.0
5.355,-16320.0,-3392.0,-1280.0
5.3575,-16320.0,-3392.0,-1344.0
5.36,-16384.0,-3392.0,-1280.0
5.3625,-16384.0,-3392.0,-1216.0
5.365,-16384.0,-3328.0,-1152.0
5.3675,-16384.0,-3328.0,-1088.0
5.37,-16448.0,-3328.0,-1152.0
5.3725,-16512.0,-3264.0,-1024.0
5.375,-16512.0,-3200.0,-960.0
5.3775,-16576.0,-3136.0,-960.0
5.38,-16512.0,-3136.0,-960.0
5.3825,-16512.0,-3136.0,-896.0
5.385,-16448.0,-3136.0,-896.0
5.3875,-16512.0,-3072.0,-896.0
5.39,-16640.0,-3008.0,-832.0
5.3925,-16576.0,-2944.0,-832.0
5.395,-16640.0,-3008.0,-832.0
5.3975,-16640.0,-3008.0,-768.0
5.4,-16704.0,-2944.0,-832.0
5.4025,-16640.0,-2944.0,-896.0
5.405,-16704.0,-2944.0,-896.0
5.4075,-16640.0,-2880.0,-896.0
5.41,-16704.0,-2816.0,-896.0
5.4125,-16640.0,-2752.0,-1024.0
5.415,-16640.0,-2624.0,-1024.0
5.4175,-16704.0,-2624.0,-960.0
5.42,-16640.0,-2560.0,-960.0
5.4225,-16640.0,-2432.0,-1024.0
5.425,-16640.0,-2432.0,-1024.0
5.4275,-16576.0,-2368.0,-1024.0
5.43,-16512.0,-2368.0,-960.0
5.4325,-16448.0,-2432.0,-1024.0
5.435,-16448.0,-2368.0,-1024.0
5.4375,-16448.0,-2432.0,-1024.0
5.44,-16384.0,-2368.0,-1024.0
5.4425,-16384.0,-2368.0,-960.0
5.445,-16320.0,-2304.0,-1024.0
5.4475,-16320.0,-2304.0,-1152.0
5.45,-16384.0,-2432.0,-1024.0
5.4525,-16384.0,-2432.0,-960.0
5.455,-16320.0,-2432.0,-960.0
5.4575,-16320.0,-2432.0,-1024.0
5.46,-16384.0,-2432.0,-1024.0
5.4625,-16384.0,-2432.0,-1024.0
5.465,-16384.0,-2496.0,-1024.0
5.4675,-16384.0,-2496.0,-1024.0
5.47,-16384.0,-2560.0,-1024.0
5.4725,-16448.0,-2560.0,-960.0
5.475,-16384.0,-2560.0,-1024.0
5.4775,-16512.0,-2560.0,-1024.0
5.48,-16448.0,-2560.0,-1024.0
5.4825,-16384.0,-2624.0,-1024.0
5.485,-16448.0,-2560.0,-1088.0
5.4875,-16448.0,-2560.0,-1088.0
5.49,-16512.0,-2624.0,-1024.0
5.4925,-16512.0,-2624.0,-960.0
5.495,-16512.0,-2624.0,-1024.0
5.4975,-16448.0,-2624.0,-960.0
5.5,-16512.0,-2624.0,-960.0
5.5025,-16512.0,-2624.0,-1024.0
5.505,-16512.0,-2624.0,-1024.0
5.5075,-16448.0,-2688.0,-1024.0
5.51,-16448.0,-2624.0,-1024.0
5.5125,-16512.0,-2688.0,-1024.0
5.515,-16512.0,-2688.0,-1088.0
5.5175,-16448.0,-2688.0,-1024.0
5.52,-16448.0,-2624.0,-1088.0
5.5225,-16512.0,-2624.0,-1152.0
5.525,-16512.0,-2624.0,-1024.0
5.5275,-16576.0,-2624.0,-1024.0
5.53,-16512.0,-2560.0,-1024.0
5.5325,-16576.0,-2496.0,-960.0
5.535,-16512.0,-2496.0,-960.0
5.5375,-16512.0,-2560.0,-960.0
5.54,-16576.0,-2496.0,-960.0
5.5425,-16576.0,-2432.0,-896.0
5.545,-16640.0,-2496.0,-896.0
5.5475,-16704.0,-2496.0,-832.0
5.55,-16704.0,-2496.0,-768.0
5.5525,-16704.0,-2432.0,-768.0
5.555,-16704.0,-2368.0,-768.0
5.5575,-16704.0,-2368.0,-832.0
5.56,-16704.0,-2368.0,-832.0
5.5625,-16704.0,-2432.0,-832.0
5.565,-16704.0,-2496.0,-832.0
5.5675,-16832.0,-2496.0,-896.0
5.57,-16768.0,-2560.0,-896.0
5.5725,-16704.0,-2496.0,-896.0
5.575,-16704.0,-2432.0,-896.0
5.5775,-16704.0,-2496.0,-960.0
5.58,-16704.0,-2496.0,-1024.0
5.5825,-16640.0,-2432.0,-1024.0
5.585,-16640.0,-2432.0,-960.0
5.5875,-16640.0,-2432.0,-896.0
5.59,-16576.0,-2368.0,-960.0
5.5925,-16512.0,-2368.0,-960.0
5.595,-16512.0,-2368.0,-896.0
5.5975,-16512.0,-2368.0,-960.0
5.6,-16448.0,-2304.0,-960.0
5.6025,-16384.0,-2304.0,-1024.0
5.605,-16256.0,-2368.0,-1024.0
5.6075,-16320.0,-2368.0,-1024.0
5.61,-16384.0,-2368.0,-1088.0
5.6125,-16320.0,-2368.0,-1088.0
5.615,-16256.0,-2304.0,-1088.0
5.6175,-16192.0,-2304.0,-1024.0
5.62,-16256.0,-2304.0,-1088.0
5.6225,-16256.0,-2304.0,-1088.0
5.625,-16192.0,-2368.0,-1152.0
5.6275,-16192.0,-2432.0,-1088.0
5.63,-16192.0,-2368.0,-1088.0
5.6325,-16192.0,-2368.0,-1088.0
5.635,-16256.0,-2368.0,-1024.0
5.6375,-16128.0,-2304.0,-1024.0
5.64,-16192.0,-2240.0,-1088.0
5.6425,-16192.0,-2240.0,-1088.0
5.645,-16192.0,-2176.0,-1024.0
5.6475,-16192.0,-2176.0,-1024.0
5.65,-16192.0,-2176.0,-1024.0
5.6525,-16192.0,-2176.0,-1088.0
5.655,-16128.0,-2176.0,-1152.0
5.6575,-16192.0,-2176.0,-1152.0
5.66,-16192.0,-2240.0,-1152.0
5.6625,-16192.0,-2240.0,-1088.0
5.665,-16256.0,-2304.0,-1088.0
5.6675,-16320.0,-2304.0,-1088.0
5.67,-16256.0,-2240.0,-1152.0
5.6725,-16320.0,-2240.0,-1152.0
5.675,-16256.0,-2304.0,-1088.0
5.6775,-16320.0,-2304.0,-1152.0
5.68,-16256.0,-2304.0,-1152.0
5.6825,-16256.0,-2304.0,-1216.0
5.685,-16192.0,-2240.0,-1344.0
5.6875,-16192.0,-2240.0,-1344.0
5.69,-16256.0,-2240.0,-1344.0
5.6925,-16256.0,-2240.0,-1280.0
5.695,-16256.0,-2240.0,-1344.0
5.6975,-16256.0,-2304.0,-1280.0
5.7,-16256.0,-2240.0,-1344.0
5.7025,-16192.0,-2240.0,-1280.0
5.705,-16192.0,-2240.0,-1408.0
5.7075,-16192.0,-2304.0,-1344.0
5.71,-16192.0,-2240.0,-1344.0
5.7125,-16128.0,-2304.0,-1216.0
5.715,-16192.0,-2304.0,-1152.0
5.7175,-16192.0,-2304.0,-1152.0
5.72,-16192.0,-2368.0,-1088.0
5.7225,-16192.0,-2368.0,-1152.0
5.725,-16256.0,-2304.0,-1152.0
5.7275,-16192.0,-2368.0,-1152.0
5.73,-16192.0,-2368.0,-1216.0
5.7325,-16128.0,-2304.0,-1152.0
5.735,-16192.0,-2432.0,-1152.0
5.7375,-16192.0,-2496.0,-1152.0
5.74,-16192.0,-2496.0,-1088.0
5.7425,-16192.0,-2496.0,-1152.0
5.745,-16192.0,-2496.0,-1088.0
5.7475,-16128.0,-2496.0,-1088.0
5.75,-16128.0,-2496.0,-1216.0
5.7525,-16256.0,-2496.0,-1152.0
5.755,-16256.0,-2496.0,-1088.0
5.7575,-16256.0,-2496.0,-1088.0
5.76,-16256.0,-2432.0,-1216.0
5.7625,-16192.0,-2496.0,-1216.0
5.765,-16128.0,-2560.0,-1216.0
5.7675,-16192.0,-2560.0,-1152.0
5.77,-16256.0,-2624.0,-1152.0
5.7725,-16256.0,-2624.0,-1152.0
5.775,-16256.0,-2624.0,-1088.0
5.7775,-16192.0,-2688.0,-1088.0
5.78,-16192.0,-2752.0,-1088.0
5.7825,-16320.0,-2752.0,-1152.0
5.785,-16256.0,-2752.0,-1088.0
5.7875,-16320.0,-2752.0,-1152.0
5.79,-16320.0,-2752.0,-1152.0
5.7925,-16320.0,-2752.0,-1152.0
5.795,-16320.0,-2752.0,-1152.0
5.7975,-16256.0,-2752.0,-1152.0
5.8,-16384.0,-2816.0,-1152.0
5.8025,-16384.0,-2816.0,-1152.0
5.805,-16384.0,-2752.0,-1152.0
5.8075,-16448.0,-2688.0,-1216.0
5.81,-16384.0,-2624.0,-1216.0
5.8125,-16512.0,-2688.0,-1088.0
5.815,-16448.0,-2688.0,-1152.0
5.8175,-16448.0,-2688.0,-1152.0
5.82,-16512.0,-2752.0,-1152.0
5.8225,-16512.0,-2752.0,-1152.0
5.825,-16512.0,-2688.0,-1152.0
5.8275,-16512.0,-2688.0,-1152.0
5.83,-16512.0,-2688.0,-1152.0
5.8325,-16512.0,-2688.0,-1152.0
5.835,-16448.0,-2688.0,-1088.0
5.8375,-16512.0,-2688.0,-1152.0
5.84,-16448.0,-2688.0,-1152.0
5.8425,-16448.0,-2752.0,-1088.0
5.845,-16448.0,-2752.0,-1088.0
5.8475,-16448.0,-2688.0,-1152.0
5.85,-16448.0,-2752.0,-1216.0
5.8525,-16384.0,-2688.0,-1216.0
5.855,-16384.0,-2688.0,-1280.0
5.8575,-16384.0,-2624.0,-1216.0
5.86,-16384.0,-2688.0,-1280.0
5.8625,-16384.0,-2624.0,-1216.0
5.865,-16448.0,-2624.0,-1152.0
5.8675,-16384.0,-2624.0,-1152.0
5.87,-16384.0,-2624.0,-1088.0
5.8725,-16384.0,-2560.0,-1088.0
5.875,-16320.0,-2560.0,-1088.0
5.8775,-16384.0,-2624.0,-1024.0
5.88,-16384.0,-2624.0,-1024.0
5.8825,-16320.0,-2688.0,-960.0
5.885,-16320.0,-2752.0,-1088.0
5.8875,-16320.0,-2688.0,-1152.0
5.89,-16384.0,-2688.0,-1152.0
5.8925,-16384.0,-2688.0,-1216.0
5.895,-16384.0,-2624.0,-1216.0
5.8975,-16448.0,-2560.0,-1280.0
5.9,-16384.0,-2624.0,-1216.0
5.9025,-16448.0,-2624.0,-1216.0
5.905,-16512.0,-2560.0,-1088.0
5.9075,-16512.0,-2560.0,-1088.0
5.91,-16448.0,-2560.0,-1216.0
5.9125,-16384.0,-2560.0,-1216.0
5.915,-16448.0,-2560.0,-1216.0
5.9175,-16448.0,-2496.0,-1152.0
5.92,-16512.0,-2496.0,-1088.0
5.9225,-16512.0,-2560.0,-1024.0
5.925,-16512.0,-2560.0,-1088.0
5.9275,-16448.0,-2560.0,-1088.0
5.93,-16448.0,-2624.0,-960.0
5.9325,-16512.0,-2560.0,-960.0
5.935,-16512.0,-2560.0,-960.0
5.9375,-16448.0,-2560.0,-1024.0
5.94,-16384.0,-2560.0,-1024.0
5.9425,-16448.0,-2624.0,-1024.0
5.945,-16448.0,-2560.0,-1024.0
5.9475,-16384.0,-2624.0,-1024.0
5.95,-16384.0,-2560.0,-960.0
5.9525,-16384.0,-2560.0,-1024.0
5.955,-16384.0,-2496.0,-1024.0
5.9575,-16448.0,-2560.0,-1088.0
5.96,-16384.0,-2624.0,-1088.0
5.9625,-16384.0,-2624.0,-1152.0
5.965,-16320.0,-2560.0,-1152.0
5.9675,-16384.0,-2560.0,-1088.0
5.97,-16384.0,-2560.0,-1088.0
5.9725,-16384.0,-2496.0,-1088.0
5.975,-16384.0,-2496.0,-1024.0
5.9775,-16320.0,-2496.0,-1024.0
5.98,-16256.0,-2496.0,-960.0
5.9825,-16320.0,-2496.0,-896.0
5.985,-16320.0,-2560.0,-832.0
5.9875,-16320.0,-2496.0,-896.0
5.99,-16320.0,-2560.0,-832.0
5.9925,-16256.0,-2560.0,-896.0
5.995,-16320.0,-2624.0,-832.0
5.9975,-16256.0,-2560.0,-832.0
6.0,-16256.0,-2560.0,-832.0
6.0025,-16256.0,-2560.0,-960.0
6.005,-16256.0,-2560.0,-960.0
6.0075,-16256.0,-2624.0,-896.0
6.01,-16256.0,-2624.0,-960.0
6.0125,-16192.0,-2560.0,-960.0
6.015,-16192.0,-2624.0,-896.0
6.0175,-16192.0,-2560.0,-960.0
6.02,-16192.0,-2560.0,-960.0
6.0225,-16128.0,-2496.0,-896.0
6.025,-16128.0,-2560.0,-832.0
6.0275,-16128.0,-2560.0,-832.0
6.03,-16128.0,-2560.0,-832.0
6.0325,-16128.0,-2496.0,-768.0
6.035,-16128.0,-2432.0,-832.0
6.0375,-16128.0,-2560.0,-832.0
6.04,-16192.0,-2560.0,-832.0
6.0425,-16192.0,-2560.0,-768.0
6.045,-16192.0,-2560.0,-704.0
6.0475,-16192.0,-2560.0,-768.0
6.05,-16192.0,-2624.0,-640.0
6.0525,-16192.0,-2688.0,-640.0
6.055,-16192.0,-2624.0,-704.0
6.0575,-16192.0,-2688.0,-704.0
6.06,-16256.0,-2688.0,-704.0
6.0625,-16256.0,-2688.0,-704.0
6.065,-16320.0,-2752.0,-704.0
6.0675,-16256.0,-2752.0,-704.0
6.07,-16320.0,-2752.0,-768.0
6.0725,-16256.0,-2688.0,-768.0
6.075,-16320.0,-2752.0,-640.0
6.0775,-16384.0,-2688.0,-768.0
6.08,-16384.0,-2688.0,-768.0
6.0825,-16384.0,-2624.0,-768.0
6.085,-16448.0,-2624.0,-832.0
6.0875,-16448.0,-2688.0,-832.0
6.09,-16448.0,-2624.0,-832.0
6.0925,-16512.0,-2624.0,-832.0
6.095,-16448.0,-2624.0,-768.0
6.0975,-16512.0,-2624.0,-832.0
6.1,-16576.0,-2688.0,-896.0
6.1025,-16640.0,-2752.0,-768.0
6.105,-16576.0,-2752.0,-768.0
6.1075,-16640.0,-2752.0,-832.0
6.11,-16640.0,-2752.0,-768.0
6.1125,-16640.0,-2816.0,-832.0
6.115,-16576.0,-2816.0,-768.0
6.1175,-16576.0,-2880.0,-768.0
6.12,-16640.0,-2816.0,-832.0
6.1225,-16640.0,-2880.0,-768.0
6.125,-16704.0,-2880.0,-768.0
6.1275,-16640.0,-2816.0,-768.0
6.13,-16640.0,-2752.0,-768.0
6.1325,-16704.0,-2688.0,-704.0
6.135,-16704.0,-2688.0,-704.0
6.1375,-16704.0,-2752.0,-640.0
6.14,-16704.0,-2752.0,-640.0
6.1425,-16704.0,-2752.0,-576.0
6.145,-16704.0,-2752.0,-576.0
6.1475,-16768.0,-2816.0,-640.0
6.15,-16704.0,-2752.0,-640.0
6.1525,-16704.0,-2752.0,-640.0
6.155,-16704.0,-2752.0,-640.0
6.1575,-16640.0,-2816.0,-640.0
6.16,-16704.0,-2816.0,-704.0
6.1625,-16704.0,-2752.0,-704.0
6.165,-16640.0,-2816.0,-704.0
6.1675,-16704.0,-2816.0,-704.0
6.17,-16576.0,-2752.0,-768.0
6.1725,-16576.0,-2816.0,-704.0
6.175,-16640.0,-2816.0,-704.0
6.1775,-16576.0,-2880.0,-640.0
6.18,-16576.0,-2880.0,-640.0
6.1825,-16576.0,-2944.0,-704.0
6.185,-16512.0,-2880.0,-704.0
6.1875,-16448.0,-2944.0,-768.0
6.19,-16384.0,-2880.0,-704.0
6.1925,-16320.0,-2880.0,-704.0
6.195,-16320.0,-2816.0,-640.0
6.1975,-16256.0,-2880.0,-640.0
6.2,-16256.0,-2880.0,-640.0
6.2025,-16256.0,-2880.0,-640.0
6.205,-16256.0,-2816.0,-640.0
6.2075,-16192.0,-2816.0,-576.0
6.21,-16192.0,-2816.0,-512.0
6.2125,-16128.0,-2816.0,-576.0
6.215,-16128.0,-2880.0,-576.0
6.2175,-16128.0,-2816.0,-576.0
6.22,-16128.0,-2880.0,-640.0
6.2225,-16128.0,-2944.0,-576.0
6.225,-16128.0,-2880.0,-512.0
6.2275,-16192.0,-2880.0,-576.0
6.23,-16192.0,-2880.0,-576.0
6.2325,-16256.0,-2880.0,-512.0
6.235,-16256.0,-2944.0,-512.0
6.2375,-16256.0,-2944.0,-512.0
6.24,-16320.0,-2944.0,-576.0
6.2425,-16320.0,-2944.0,-576.0
6.245,-16384.0,-2880.0,-576.0
6.2475,-16384.0,-2880.0,-576.0
6.25,-16448.0,-2944.0,-576.0
6.2525,-16512.0,-2880.0,-640.0
6.255,-16576.0,-2880.0,-576.0
6.2575,-16640.0,-2880.0,-576.0
6.26,-16640.0,-2880.0,-576.0
6.2625,-16640.0,-2944.0,-576.0
6.265,-16768.0,-2944.0,-576.0
6.2675,-16704.0,-2944.0,-576.0
6.27,-16704.0,-3008.0,-640.0
6.2725,-16704.0,-3072.0,-704.0
6.275,-16768.0,-3072.0,-704.0
6.2775,-16832.0,-3008.0,-832.0
6.28,-16896.0,-3008.0,-960.0
6.2825,-16960.0,-2944.0,-960.0
6.285,-16960.0,-2880.0,-1152.0
6.2875,-16896.0,-2816.0,-1152.0
6.29,-16960.0,-2816.0,-1216.0
6.2925,-16960.0,-2752.0,-1280.0
6.295,-17024.0,-2752.0,-1280.0
6.2975,-16960.0,-2816.0,-1216.0
6.3,-17088.0,-2752.0,-1216.0
6.3025,-17088.0,-2752.0,-1280.0
6.305,-17152.0,-2752.0,-1216.0
6.3075,-17088.0,-2688.0,-1152.0
6.31,-17088.0,-2688.0,-1024.0
6.3125,-17152.0,-2752.0,-960.0
6.315,-17152.0,-2752.0,-832.0
6.3175,-17152.0,-2688.0,-704.0
6.32,-17216.0,-2880.0,-448.0
6.3225,-17216.0,-2880.0,-384.0
6.325,-17216.0,-2880.0,-320.0
6.3275,-17216.0,-2944.0,-320.0
6.33,-17280.0,-2944.0,-448.0
6.3325,-17280.0,-2944.0,-576.0
6.335,-17216.0,-2944.0,-704.0
6.3375,-17088.0,-2944.0,-768.0
6.34,-17024.0,-2880.0,-960.0
6.3425,-16960.0,-2944.0,-1216.0
6.345,-16896.0,-2816.0,-1344.0
6.3475,-16896.0,-2816.0,-1472.0
6.35,-16896.0,-2752.0,-1536.0
6.3525,-16832.0,-2752.0,-1664.0
6.355,-16832.0,-2688.0,-1792.0
6.3575,-16832.0,-2560.0,-1856.0
6.36,-16832.0,-2496.0,-1920.0
6.3625,-16896.0,-2496.0,-1920.0
6.365,-16896.0,-2432.0,-1856.0
6.3675,-16960.0,-2368.0,-1856.0
6.37,-17024.0,-2368.0,-1664.0
6.3725,-17024.0,-2368.0,-1600.0
6.375,-17024.0,-2368.0,-1472.0
6.3775,-17088.0,-2432.0,-1408.0
6.38,-17088.0,-2432.0,-1280.0
6.3825,-17088.0,-2432.0,-1216.0
6.385,-17088.0,-2560.0,-1152.0
6.3875,-17152.0,-2560.0,-1152.0
6.39,-17088.0,-2560.0,-1088.0
6.3925,-17088.0,-2496.0,-1024.0
6.395,-17088.0,-2368.0,-1024.0
6.3975,-17024.0,-2304.0,-1088.0
6.4,-17024.0,-2240.0,-1088.0
6.4025,-16960.0,-2176.0,-1088.0
6.405,-16960.0,-2112.0,-1152.0
6.4075,-16896.0,-2112.0,-1216.0
6.41,-16896.0,-2048.0,-1280.0
6.4125,-16832.0,-1984.0,-1280.0
6.415,-16768.0,-1984.0,-1280.0
6.4175,-16704.0,-1984.0,-1344.0
6.42,-16576.0,-1920.0,-1344.0
6.4225,-16576.0,-1984.0,-1344.0
6.425,-16512.0,-1984.0,-1344.0
6.4275,-16384.0,-1984.0,-1344.0
6.43,-16320.0,-1984.0,-1344.0
6.4325,-16256.0,-1984.0,-1408.0
6.435,-16256.0,-1984.0,-1280.0
6.4375,-16128.0,-2048.0,-1280.0
6.44,-16064.0,-2112.0,-1216.0
6.4425,-16064.0,-2112.0,-1152.0
6.445,-16000.0,-2176.0,-1152.0
6.4475,-15936.0,-2176.0,-1216.0
6.45,-16000.0,-2240.0,-1216.0
6.4525,-15872.0,-2240.0,-1280.0
6.455,-15808.0,-2240.0,-1216.0
6.4575,-15744.0,-2240.0,-1216.0
6.46,-15744.0,-2240.0,-1216.0
6.4625,-15680.0,-2368.0,-1216.0
6.465,-15680.0,-2304.0,-1216.0
6.4675,-15616.0,-2304.0,-1152.0
6.47,-15616.0,-2304.0,-1152.0
6.4725,-15680.0,-2240.0,-1216.0
6.475,-15680.0,-2240.0,-1088.0
6.4775,-15616.0,-2240.0,-1024.0
6.48,-15616.0,-2240.0,-1024.0
6.4825,-15616.0,-2240.0,-1024.0
6.485,-15680.0,-2176.0,-1024.0
6.4875,-15680.0,-2176.0,-1088.0
6.49,-15680.0,-2112.0,-1024.0
6.4925,-15680.0,-2176.0,-960.0
6.495,-15744.0,-2176.0,-960.0
6.4975,-15744.0,-2240.0,-832.0
6.5,-15808.0,-2240.0,-832.0
6.5025,-15872.0,-2304.0,-832.0
6.505,-15872.0,-2304.0,-832.0
6.5075,-15872.0,-2368.0,-704.0
6.51,-15936.0,-2368.0,-768.0
6.5125,-16000.0,-2368.0,-768.0
6.515,-15936.0,-2304.0,-704.0
6.5175,-16000.0,-2240.0,-768.0
6.52,-16000.0,-2304.0,-704.0
6.5225,-16000.0,-2240.0,-704.0
6.525,-16000.0,-2176.0,-768.0
6.5275,-16000.0,-2176.0,-768.0
6.53,-15936.0,-2112.0,-832.0
6.5325,-16000.0,-2048.0,-896.0
6.535,-16000.0,-2048.0,-896.0
6.5375,-16000.0,-2048.0,-960.0
6.54,-16000.0,-2112.0,-896.0
6.5425,-16064.0,-2112.0,-896.0
6.545,-16128.0,-2112.0,-768.0
6.5475,-16128.0,-2112.0,-832.0
6.55,-16128.0,-2112.0,-896.0
6.5525,-16128.0,-2048.0,-896.0
6.555,-16128.0,-2112.0,-832.0
6.5575,-16128.0,-2048.0,-832.0
6.56,-16256.0,-2112.0,-832.0
6.5625,-16256.0,-2240.0,-896.0
6.565,-16256.0,-2240.0,-960.0
6.5675,-16320.0,-2240.0,-1024.0
6.57,-16384.0,-2304.0,-1088.0
6.5725,-16320.0,-2240.0,-1024.0
6.575,-16384.0,-2176.0,-960.0
6.5775,-16512.0,-2240.0,-960.0
6.58,-16448.0,-2240.0,-960.0
6.5825,-16512.0,-2176.0,-896.0
6.585,-16512.0,-2048.0,-1024.0
6.5875,-16576.0,-2048.0,-960.0
6.59,-16512.0,-2048.0,-896.0
6.5925,-16576.0,-2048.0,-896.0
6.595,-16576.0,-1984.0,-832.0
6.5975,-16576.0,-1984.0,-832.0
6.6,-16576.0,-1920.0,-768.0
6.6025,-16576.0,-1792.0,-832.0
6.605,-16640.0,-1792.0,-768.0
6.6075,-16640.0,-1792.0,-768.0
6.61,-16576.0,-1728.0,-768.0
6.6125,-16640.0,-1728.0,-704.0
6.615,-16640.0,-1728.0,-704.0
6.6175,-16576.0,-1728.0,-704.0
6.62,-16576.0,-1728.0,-768.0
6.6225,-16576.0,-1664.0,-704.0
6.625,-16576.0,-1664.0,-768.0
6.6275,-16640.0,-1600.0,-896.0
6.63,-16512.0,-1600.0,-960.0
6.6325,-16512.0,-1600.0,-896.0
6.635,-16512.0,-1600.0,-896.0
6.6375,-16576.0,-1536.0,-960.0
6.64,-16448.0,-1536.0,-1024.0
6.6425,-16512.0,-1472.0,-1088.0
6.645,-16512.0,-1472.0,-1088.0
6.6475,-16448.0,-1408.0,-1024.0
6.65,-16512.0,-1408.0,-1088.0
6.6525,-16512.0,-1408.0,-1024.0
6.655,-16512.0,-1408.0,-1088.0
6.6575,-16512.0,-1472.0,-1088.0
6.66,-16576.0,-1472.0,-1024.0
6.6625,-16576.0,-1536.0,-1088.0
6.665,-16576.0,-1536.0,-1024.0
6.6675,-16512.0,-1600.0,-1024.0
6.67,-16512.0,-1664.0,-1024.0
6.6725,-16448.0,-1728.0,-960.0
6.675,-16448.0,-1728.0,-1024.0
6.6775,-16384.0,-1792.0,-1024.0
6.68,-16448.0,-1856.0,-960.0
6.6825,-16448.0,-1792.0,-960.0
6.685,-16320.0,-1792.0,-960.0
6.6875,-16256.0,-1856.0,-1024.0
6.69,-16256.0,-1856.0,-960.0
6.6925,-16256.0,-1856.0,-896.0
6.695,-16192.0,-1792.0,-896.0
6.6975,-16192.0,-1792.0,-960.0
6.7,-16192.0,-1856.0,-896.0
6.7025,-16128.0,-1856.0,-960.0
6.705,-16128.0,-1792.0,-960.0
6.7075,-16000.0,-1792.0,-896.0
6.71,-16128.0,-1728.0,-896.0
6.7125,-16128.0,-1792.0,-896.0
6.715,-16064.0,-1792.0,-960.0
6.7175,-16064.0,-1856.0,-1024.0
6.72,-16000.0,-1856.0,-1024.0
6.7225,-16000.0,-1792.0,-1024.0
6.725,-15936.0,-1792.0,-1152.0
6.7275,-16000.0,-1792.0,-1088.0
6.73,-16000.0,-1728.0,-1088.0
6.7325,-16000.0,-1792.0,-1088.0
6.735,-16064.0,-1792.0,-1088.0
6.7375,-16128.0,-1728.0,-1152.0
6.74,-16064.0,-1792.0,-1088.0
6.7425,-16128.0,-1792.0,-1152.0
6.745,-16128.0,-1856.0,-1024.0
6.7475,-16128.0,-1856.0,-1152.0
6.75,-16192.0,-1920.0,-1024.0
6.7525,-16192.0,-1856.0,-1088.0
6.755,-16192.0,-1856.0,-1088.0
6.7575,-16256.0,-1856.0,-1152.0
6.76,-16256.0,-1920.0,-1152.0
6.7625,-16256.0,-1920.0,-1152.0
6.765,-16320.0,-1856.0,-1088.0
6.7675,-16384.0,-1792.0,-1088.0
6.77,-16448.0,-1792.0,-1152.0
6.7725,-16512.0,-1856.0,-1152.0
6.775,-16512.0,-1856.0,-1216.0
6.7775,-16512.0,-1856.0,-1216.0
6.78,-16448.0,-1856.0,-1152.0
6.7825,-16512.0,-1856.0,-1088.0
6.785,-16448.0,-1856.0,-1088.0
6.7875,-16448.0,-1856.0,-1088.0
6.79,-16448.0,-1792.0,-1152.0
6.7925,-16384.0,-1856.0,-1152.0
6.795,-16384.0,-1856.0,-1152.0
6.7975,-16384.0,-1856.0,-1216.0
6.8,-16448.0,-1792.0,-1216.0
6.8025,-16512.0,-1856.0,-1152.0
6.805,-16576.0,-1856.0,-1152.0
6.8075,-16576.0,-1920.0,-1152.0
6.81,-16576.0,-1856.0,-1088.0
6.8125,-16640.0,-1856.0,-1216.0
6.815,-16640.0,-1984.0,-1280.0
6.8175,-16640.0,-1856.0,-1216.0
6.82,-16704.0,-1856.0,-1280.0
6.8225,-16768.0,-1856.0,-1280.0
6.825,-16832.0,-1792.0,-1280.0
6.8275,-16832.0,-1728.0,-1408.0
6.83,-16896.0,-1728.0,-1344.0
6.8325,-17024.0,-1664.0,-1344.0
6.835,-17088.0,-1664.0,-1280.0
6.8375,-17088.0,-1664.0,-1344.0
6.84,-17216.0,-1664.0,-1344.0
6.8425,-17280.0,-1728.0,-1344.0
6.845,-17408.0,-1664.0,-1344.0
6.8475,-17472.0,-1664.0,-1280.0
6.85,-17600.0,-1728.0,-1280.0
6.8525,-17600.0,-1728.0,-1280.0
6.855,-17664.0,-1728.0,-1280.0
6.8575,-17728.0,-1792.0,-1152.0
6.86,-17792.0,-1728.0,-1152.0
6.8625,-17856.0,-1728.0,-1152.0
6.865,-17856.0,-1664.0,-1152.0
6.8675,-17920.0,-1664.0,-1088.0
6.87,-17984.0,-1600.0,-1024.0
6.8725,-18112.0,-1472.0,-1024.0
6.875,-18112.0,-1472.0,-1024.0
6.8775,-18048.0,-1408.0,-1024.0
6.88,-18112.0,-1472.0,-1024.0
6.8825,-18048.0,-1408.0,-1024.0
6.885,-18048.0,-1472.0,-960.0
6.8875,-17984.0,-1472.0,-960.0
6.89,-17920.0,-1472.0,-896.0
6.8925,-17920.0,-1472.0,-960.0
6.895,-17920.0,-1536.0,-960.0
6.8975,-17920.0,-1600.0,-896.0
6.9,-17920.0,-1664.0,-896.0
6.9025,-17920.0,-1664.0,-896.0
6.905,-17984.0,-1664.0,-896.0
6.9075,-17920.0,-1728.0,-1024.0
6.91,-17856.0,-1792.0,-896.0
6.9125,-17792.0,-1856.0,-896.0
6.915,-17792.0,-1856.0,-896.0
6.9175,-17728.0,-1920.0,-832.0
6.92,-17792.0,-1920.0,-768.0
6.9225,-17792.0,-1920.0,-768.0
6.925,-17728.0,-1920.0,-768.0
6.9275,-17792.0,-1920.0,-832.0
6.93,-17792.0,-1920.0,-768.0
6.9325,-17792.0,-1856.0,-704.0
6.935,-17856.0,-1920.0,-704.0
6.9375,-17856.0,-1856.0,-640.0
6.94,-17856.0,-1792.0,-640.0
6.9425,-17792.0,-1792.0,-704.0
6.945,-17728.0,-1728.0,-704.0
6.9475,-17792.0,-1728.0,-640.0
6.95,-17792.0,-1728.0,-768.0
6.9525,-17664.0,-1792.0,-768.0
6.955,-17728.0,-1792.0,-832.0
6.9575,-17664.0,-1792.0,-768.0
6.96,-17664.0,-1792.0,-896.0
6.9625,-17664.0,-1728.0,-896.0
6.965,-17600.0,-1792.0,-832.0
6.9675,-17600.0,-1792.0,-832.0
6.97,-17536.0,-1728.0,-832.0
6.9725,-17472.0,-1792.0,-832.0
6.975,-17472.0,-1792.0,-832.0
6.9775,-17472.0,-1728.0,-896.0
6.98,-17408.0,-1792.0,-832.0
6.9825,-17344.0,-1728.0,-768.0
6.985,-17280.0,-1664.0,-768.0
6.9875,-17216.0,-1664.0,-640.0
6.99,-17152.0,-1664.0,-704.0
6.9925,-17152.0,-1792.0,-704.0
6.995,-17024.0,-1728.0,-704.0
6.9975,-17088.0,-1728.0,-704.0
7.0,-17024.0,-1792.0,-640.0
7.0025,-17024.0,-1856.0,-640.0
7.005,-17088.0,-1856.0,-640.0
7.0075,-17024.0,-1792.0,-640.0
7.01,-17024.0,-1792.0,-640.0
7.0125,-16896.0,-1728.0,-576.0
7.015,-16896.0,-1728.0,-640.0
7.0175,-16832.0,-1664.0,-640.0
7.02,-16768.0,-1664.0,-640.0
7.0225,-16768.0,-1728.0,-704.0
7.025,-16768.0,-1792.0,-704.0
7.0275,-16768.0,-1728.0,-704.0
7.03,-16832.0,-1728.0,-768.0
7.0325,-16768.0,-1664.0,-832.0
7.035,-16768.0,-1600.0,-832.0
7.0375,-16768.0,-1600.0,-896.0
7.04,-16704.0,-1600.0,-896.0
7.0425,-16640.0,-1600.0,-960.0
7.045,-16576.0,-1600.0,-1024.0
7.0475,-16576.0,-1600.0,-1088.0
7.05,-16576.0,-1536.0,-1152.0
7.0525,-16512.0,-1536.0,-1152.0
7.055,-16576.0,-1536.0,-1152.0
7.0575,-16576.0,-1472.0,-1152.0
7.06,-16704.0,-1472.0,-1152.0
7.0625,-16704.0,-1408.0,-1216.0
7.065,-16768.0,-1408.0,-1152.0
7.0675,-16896.0,-1344.0,-1088.0
7.07,-16960.0,-1344.0,-1088.0
7.0725,-17024.0,-1344.0,-1152.0
7.075,-17152.0,-1344.0,-1152.0
7.0775,-17216.0,-1344.0,-1216.0
7.08,-17152.0,-1344.0,-1344.0
7.0825,-17216.0,-1280.0,-1408.0
7.085,-17216.0,-1344.0,-1408.0
7.0875,-17216.0,-1408.0,-1472.0
7.09,-17216.0,-1344.0,-1536.0
7.0925,-17152.0,-1344.0,-1536.0
7.095,-17152.0,-1344.0,-1600.0
7.0975,-17152.0,-1344.0,-1600.0
7.1,-17152.0,-1408.0,-1600.0
7.1025,-17216.0,-1344.0,-1600.0
7.105,-17408.0,-1344.0,-1600.0
7.1075,-17600.0,-1408.0,-1536.0
7.11,-17728.0,-1408.0,-1472.0
7.1125,-17920.0,-1408.0,-1344.0
7.115,-18048.0,-1280.0,-1216.0
7.1175,-18112.0,-1280.0,-1088.0
7.12,-18112.0,-1152.0,-1088.0
7.1225,-17984.0,-1088.0,-1088.0
7.125,-17920.0,-1088.0,-1152.0
7.1275,-17856.0,-1024.0,-1216.0
7.13,-17920.0,-960.0,-1344.0
7.1325,-17984.0,-1024.0,-1472.0
7.135,-17984.0,-960.0,-1664.0
7.1375,-18048.0,-896.0,-1856.0
7.14,-18176.0,-896.0,-2048.0
7.1425,-18304.0,-768.0,-2112.0
7.145,-18496.0,-768.0,-2368.0
7.1475,-18560.0,-576.0,-2560.0
7.15,-18688.0,-512.0,-2560.0
7.1525,-18816.0,-448.0,-2560.0
7.155,-18880.0,-320.0,-2496.0
7.1575,-18816.0,-256.0,-2496.0
7.16,-18880.0,-128.0,-2304.0
7.1625,-18880.0,-128.0,-2304.0
7.165,-19008.0,-64.0,-2240.0
7.1675,-19136.0,-64.0,-2112.0
7.17,-19264.0,0.0,-1920.0
7.1725,-19456.0,-64.0,-1792.0
7.175,-19520.0,-64.0,-1728.0
7.1775,-19648.0,-128.0,-1600.0
7.18,-19776.0,-128.0,-1408.0
7.1825,-19840.0,-64.0,-1216.0
7.185,-20032.0,-64.0,-1088.0
7.1875,-20096.0,-128.0,-960.0
7.19,-20224.0,-128.0,-832.0
7.1925,-20352.0,-64.0,-832.0
7.195,-20480.0,0.0,-768.0
7.1975,-20544.0,64.0,-768.0
7.2,-20736.0,320.0,-832.0
7.2025,-20736.0,448.0,-896.0
7.205,-20800.0,576.0,-1024.0
7.2075,-20736.0,704.0,-1152.0
7.21,-20672.0,704.0,-1280.0
7.2125,-20608.0,768.0,-1344.0
7.215,-20480.0,768.0,-1344.0
7.2175,-20352.0,768.0,-1472.0
7.22,-20224.0,768.0,-1408.0
7.2225,-20032.0,832.0,-1472.0
7.225,-19904.0,832.0,-1536.0
7.2275,-19712.0,768.0,-1472.0
7.23,-19584.0,640.0,-1472.0
7.2325,-19392.0,640.0,-1472.0
7.235,-19200.0,576.0,-1536.0
7.2375,-19136.0,512.0,-1664.0
7.24,-19008.0,320.0,-1856.0
7.2425,-19008.0,64.0,-1856.0
7.245,-19072.0,-192.0,-1664.0
7.2475,-18944.0,-448.0,-1344.0
7.25,-18880.0,-576.0,-1024.0
7.2525,-18752.0,-640.0,-640.0
7.255,-18624.0,-704.0,-192.0
7.2575,-18560.0,-576.0,128.0
7.26,-18560.0,-448.0,448.0
7.2625,-18624.0,-256.0,576.0
7.265,-18624.0,128.0,640.0
7.2675,-18688.0,512.0,768.0
7.27,-18688.0,960.0,768.0
7.2725,-18496.0,1344.0,640.0
7.275,-18304.0,1920.0,384.0
7.2775,-18176.0,2560.0,384.0
7.28,-17920.0,3584.0,512.0
7.2825,-17792.0,3904.0,448.0
7.285,-17536.0,4288.0,384.0
7.2875,-17344.0,4544.0,320.0
7.29,-17024.0,4800.0,128.0
7.2925,-16768.0,4928.0,-64.0
7.295,-16448.0,4928.0,-128.0
7.2975,-16128.0,4864.0,-192.0
7.3,-15872.0,4736.0,-256.0
7.3025,-15744.0,4416.0,-256.0
7.305,-15552.0,4224.0,-320.0
7.3075,-15552.0,3776.0,-384.0
7.31,-15488.0,3392.0,-320.0
7.3125,-15424.0,3008.0,-192.0
7.315,-15424.0,2496.0,-64.0
7.3175,-15360.0,2048.0,0.0
7.32,-15360.0,1728.0,64.0
7.3225,-15360.0,1408.0,256.0
7.325,-15360.0,1216.0,448.0
7.3275,-15488.0,1088.0,832.0
7.33,-15552.0,1024.0,1088.0
7.3325,-15552.0,1024.0,1344.0
7.335,-15680.0,1024.0,1600.0
7.3375,-15808.0,1088.0,1728.0
7.34,-15872.0,1152.0,1984.0
7.3425,-16000.0,1216.0,2176.0
7.345,-16064.0,1152.0,2304.0
7.3475,-16064.0,1216.0,2304.0
7.35,-16064.0,1280.0,2304.0
7.3525,-16128.0,1280.0,2304.0
7.355,-16128.0,1280.0,2240.0
7.3575,-16192.0,1216.0,2048.0
7.36,-16320.0,1280.0,1792.0
7.3625,-16384.0,1344.0,1664.0
7.365,-16384.0,1408.0,1472.0
7.3675,-16384.0,1536.0,1344.0
7.37,-16320.0,1600.0,1216.0
7.3725,-16320.0,1664.0,1152.0
7.375,-16256.0,1728.0,1088.0
7.3775,-16256.0,1792.0,1024.0
7.38,-16256.0,1728.0,960.0
7.3825,-16192.0,1728.0,896.0
7.385,-16128.0,1728.0,1024.0
7.3875,-16128.0,1664.0,1024.0
7.39,-16128.0,1664.0,1024.0
7.3925,-16128.0,1536.0,896.0
7.395,-16192.0,1472.0,832.0
7.3975,-16192.0,1472.0,896.0
7.4,-16192.0,1408.0,960.0
7.4025,-16256.0,1408.0,1024.0
7.405,-16192.0,1408.0,960.0
7.4075,-16192.0,1408.0,1024.0
7.41,-16128.0,1344.0,1024.0
7.4125,-16128.0,1344.0,1152.0
7.415,-16192.0,1344.0,1152.0
7.4175,-16256.0,1344.0,1216.0
7.42,-16256.0,1344.0,1152.0
7.4225,-16320.0,1280.0,1088.0
7.425,-16320.0,1280.0,1152.0
7.4275,-16384.0,1280.0,1152.0
7.43,-16384.0,1344.0,1088.0
7.4325,-16448.0,1344.0,1152.0
7.435,-16320.0,1152.0,1152.0
7.4375,-16384.0,1216.0,1216.0
7.44,-16256.0,1408.0,1280.0
7.4425,-16128.0,1536.0,1344.0
7.445,-16000.0,1536.0,1280.0
7.4475,-16000.0,1600.0,1216.0
7.45,-16000.0,1536.0,1216.0
7.4525,-16000.0,1536.0,1216.0
7.455,-16000.0,1472.0,1216.0
7.4575,-15936.0,1536.0,1344.0
7.46,-16000.0,1600.0,1344.0
7.4625,-16064.0,1728.0,1344.0
7.465,-16000.0,1728.0,1344.0
7.4675,-16064.0,1728.0,1280.0
7.47,-16064.0,1728.0,1152.0
7.4725,-16128.0,1600.0,1024.0
7.475,-16128.0,1408.0,960.0
7.4775,-16128.0,1280.0,896.0
7.48,-16064.0,1152.0,896.0
7.4825,-16064.0,1088.0,832.0
7.485,-16064.0,1088.0,768.0
7.4875,-16064.0,1024.0,704.0
7.49,-16064.0,960.0,704.0
7.4925,-16128.0,960.0,640.0
7.495,-16128.0,960.0,576.0
7.4975,-16192.0,896.0,512.0
7.5,-16320.0,896.0,448.0
7.5025,-16320.0,896.0,320.0
7.505,-16384.0,896.0,256.0
7.5075,-16448.0,960.0,64.0
7.51,-16512.0,960.0,64.0
7.5125,-16512.0,1024.0,-64.0
7.515,-16512.0,1024.0,-64.0
7.5175,-16512.0,1088.0,-192.0
7.52,-16448.0,1152.0,-256.0
7.5225,-16448.0,1216.0,-320.0
7.525,-16448.0,1216.0,-256.0
7.5275,-16448.0,1280.0,-320.0
7.53,-16448.0,1280.0,-256.0
7.5325,-16384.0,1216.0,-256.0
7.535,-16320.0,1280.0,-320.0
7.5375,-16320.0,1216.0,-256.0
7.54,-16384.0,1280.0,-320.0
7.5425,-16320.0,1280.0,-384.0
7.545,-16320.0,1216.0,-384.0
7.5475,-16384.0,1216.0,-384.0
7.55,-16320.0,1280.0,-384.0
7.5525,-16320.0,1280.0,-448.0
7.555,-16256.0,1280.0,-384.0
7.5575,-16384.0,1344.0,-384.0
7.56,-16384.0,1344.0,-256.0
7.5625,-16384.0,1216.0,-256.0
7.565,-16320.0,1216.0,-320.0
7.5675,-16256.0,1216.0,-320.0
7.57,-16320.0,1280.0,-320.0
7.5725,-16320.0,1216.0,-320.0
7.575,-16256.0,1152.0,-256.0
7.5775,-16256.0,1088.0,-256.0
7.58,-16256.0,1024.0,-320.0
7.5825,-16192.0,960.0,-192.0
7.585,-16064.0,960.0,-192.0
7.5875,-16128.0,960.0,-320.0
7.59,-16128.0,832.0,-192.0
7.5925,-16064.0,704.0,-256.0
7.595,-16128.0,640.0,-320.0
7.5975,-16064.0,448.0,-256.0
7.6,-15936.0,512.0,-320.0
7.6025,-15936.0,384.0,-384.0
7.605,-15936.0,320.0,-448.0
7.6075,-15872.0,384.0,-448.0
7.61,-15872.0,256.0,-448.0
7.6125,-15872.0,192.0,-512.0
7.615,-15936.0,128.0,-576.0
7.6175,-15872.0,128.0,-640.0
7.62,-15808.0,128.0,-704.0
7.6225,-15872.0,64.0,-768.0
7.625,-15936.0,0.0,-768.0
7.6275,-15936.0,0.0,-768.0
7.63,-15936.0,-64.0,-768.0
7.6325,-15936.0,0.0,-704.0
7.635,-16000.0,0.0,-768.0
7.6375,-16128.0,-64.0,-768.0
7.64,-16192.0,-64.0,-832.0
7.6425,-16192.0,-128.0,-832.0
7.645,-16256.0,-64.0,-832.0
7.6475,-16256.0,-128.0,-768.0
7.65,-16384.0,-64.0,-768.0
7.6525,-16384.0,-128.0,-832.0
7.655,-16512.0,-192.0,-768.0
7.6575,-16512.0,-256.0,-768.0
7.66,-16576.0,-384.0,-768.0
7.6625,-16512.0,-320.0,-896.0
7.665,-16640.0,-384.0,-896.0
7.6675,-16640.0,-320.0,-832.0
7.67,-16704.0,-384.0,-832.0
7.6725,-16704.0,-320.0,-832.0
7.675,-16704.0,-384.0,-896.0
7.6775,-16704.0,-448.0,-832.0
7.68,-16640.0,-256.0,-832.0
7.6825,-16704.0,-320.0,-832.0
7.685,-16640.0,-384.0,-832.0
7.6875,-16640.0,-448.0,-832.0
7.69,-16704.0,-384.0,-832.0
7.6925,-16640.0,-384.0,-832.0
7.695,-16576.0,-320.0,-832.0
7.6975,-16448.0,-320.0,-768.0
7.7,-16448.0,-320.0,-768.0
7.7025,-16320.0,-320.0,-704.0
7.705,-16320.0,-320.0,-768.0
7.7075,-16320.0,-448.0,-832.0
7.71,-16320.0,-576.0,-768.0
7.7125,-16256.0,-512.0,-832.0
7.715,-16256.0,-576.0,-832.0
7.7175,-16128.0,-640.0,-832.0
7.72,-16064.0,-640.0,-832.0
7.7225,-16064.0,-704.0,-768.0
7.725,-16000.0,-704.0,-768.0
7.7275,-16000.0,-704.0,-768.0
7.73,-16000.0,-704.0,-768.0
7.7325,-16000.0,-640.0,-640.0
7.735,-15936.0,-704.0,-640.0
7.7375,-15936.0,-704.0,-576.0
7.74,-15872.0,-640.0,-576.0
7.7425,-15808.0,-704.0,-576.0
7.745,-15680.0,-704.0,-576.0
7.7475,-15552.0,-704.0,-576.0
7.75,-15616.0,-576.0,-512.0
7.7525,-15552.0,-576.0,-512.0
7.755,-15552.0,-576.0,-512.0
7.7575,-15488.0,-576.0,-640.0
7.76,-15488.0,-640.0,-640.0
7.7625,-15552.0,-704.0,-640.0
7.765,-15488.0,-704.0,-704.0
7.7675,-15488.0,-768.0,-704.0
7.77,-15552.0,-768.0,-704.0
7.7725,-15552.0,-768.0,-704.0
7.775,-15488.0,-768.0,-768.0
7.7775,-15488.0,-832.0,-768.0
7.78,-15424.0,-832.0,-768.0
7.7825,-15424.0,-832.0,-704.0
7.785,-15360.0,-832.0,-576.0
7.7875,-15360.0,-832.0,-576.0
7.79,-15360.0,-768.0,-512.0
7.7925,-15424.0,-768.0,-512.0
7.795,-15424.0,-896.0,-512.0
7.7975,-15360.0,-896.0,-448.0
7.8,-15424.0,-896.0,-512.0
7.8025,-15424.0,-896.0,-448.0
7.805,-15424.0,-960.0,-448.0
7.8075,-15424.0,-1024.0,-448.0
7.81,-15360.0,-960.0,-448.0
7.8125,-15424.0,-1024.0,-320.0
7.815,-15360.0,-1152.0,-320.0
7.8175,-15360.0,-1088.0,-256.0
7.82,-15232.0,-1088.0,-192.0
7.8225,-15232.0,-1024.0,-256.0
7.825,-15232.0,-1024.0,-192.0
7.8275,-15232.0,-1088.0,-128.0
7.83,-15168.0,-1024.0,-64.0
7.8325,-15168.0,-1024.0,-64.0
7.835,-15168.0,-1024.0,-64.0
7.8375,-15168.0,-1024.0,0.0
7.84,-15232.0,-1088.0,0.0
7.8425,-15232.0,-1088.0,64.0
7.845,-15232.0,-1088.0,-64.0
7.8475,-15296.0,-1024.0,-128.0
7.85,-15232.0,-1088.0,-192.0
7.8525,-15232.0,-1152.0,-192.0
7.855,-15296.0,-1088.0,-128.0
7.8575,-15296.0,-1088.0,-128.0
7.86,-15360.0,-1088.0,-128.0
7.8625,-15424.0,-1088.0,-192.0
7.865,-15488.0,-1088.0,-192.0
7.8675,-15616.0,-1088.0,-128.0
7.87,-15616.0,-1088.0,-192.0
7.8725,-15616.0,-1088.0,-256.0
7.875,-15680.0,-1152.0,-256.0
7.8775,-15680.0,-1088.0,-192.0
7.88,-15744.0,-1152.0,-192.0
7.8825,-15872.0,-1088.0,-192.0
7.885,-15936.0,-1152.0,-128.0
7.8875,-16000.0,-1152.0,-192.0
7.89,-16000.0,-1088.0,-128.0
7.8925,-16320.0,-1152.0,-256.0
7.895,-16256.0,-1152.0,-128.0
7.8975,-16320.0,-1216.0,-64.0
7.9,-16384.0,-1152.0,-64.0
7.9025,-16384.0,-1216.0,-64.0
7.905,-16512.0,-1216.0,-64.0
7.9075,-16576.0,-1152.0,0.0
7.91,-16640.0,-1216.0,0.0
7.9125,-16640.0,-1216.0,128.0
7.915,-16704.0,-1216.0,128.0
7.9175,-16704.0,-1152.0,0.0
7.92,-16768.0,-1152.0,64.0
7.9225,-16640.0,-1152.0,0.0
7.925,-16640.0,-1152.0,-64.0
7.9275,-16704.0,-1152.0,-64.0
7.93,-16704.0,-1152.0,-128.0
7.9325,-16704.0,-1216.0,-64.0
7.935,-16576.0,-1216.0,-128.0
7.9375,-16640.0,-1216.0,-192.0
7.94,-16576.0,-1152.0,-192.0
7.9425,-16512.0,-1152.0,-192.0
7.945,-16512.0,-1152.0,-192.0
7.9475,-16448.0,-1152.0,-192.0
7.95,-16384.0,-1152.0,-192.0
7.9525,-16320.0,-1088.0,-256.0
7.955,-16320.0,-1088.0,-192.0
7.9575,-16256.0,-1024.0,-192.0
7.96,-16256.0,-1024.0,-128.0
7.9625,-16128.0,-1024.0,-64.0
7.965,-16064.0,-1024.0,-64.0
7.9675,-16064.0,-1024.0,-128.0
7.97,-16000.0,-1024.0,0.0
7.9725,-15872.0,-1024.0,0.0
7.975,-15808.0,-1088.0,64.0
7.9775,-15872.0,-1088.0,64.0
7.98,-15808.0,-1152.0,128.0
7.9825,-15744.0,-1152.0,192.0
7.985,-15680.0,-1088.0,192.0
7.9875,-15744.0,-1216.0,256.0
7.99,-15616.0,-1216.0,320.0
7.9925,-15552.0,-1280.0,384.0
7.995,-15424.0,-1216.0,384.0
7.9975,-15424.0,-1280.0,448.0
8.0,-15296.0,-1280.0,448.0
8.0025,-15168.0,-1344.0,448.0
8.005,-15104.0,-1344.0,512.0
8.0075,-15040.0,-1344.0,512.0
8.01,-14976.0,-1344.0,576.0
8.0125,-14912.0,-1344.0,576.0
8.015,-14848.0,-1344.0,640.0
8.0175,-14720.0,-1344.0,640.0
8.02,-14656.0,-1408.0,576.0
8.0225,-14528.0,-1408.0,640.0
8.025,-14464.0,-1344.0,640.0
8.0275,-14336.0,-1344.0,448.0
8.03,-14336.0,-1344.0,576.0
8.0325,-14144.0,-1280.0,640.0
8.035,-14080.0,-1280.0,576.0
8.0375,-14080.0,-1216.0,640.0
8.04,-13952.0,-1216.0,640.0
8.0425,-13888.0,-1152.0,576.0
8.045,-13888.0,-1216.0,640.0
8.0475,-13760.0,-1152.0,640.0
8.05,-13824.0,-1152.0,640.0
8.0525,-13760.0,-1216.0,576.0
8.055,-13760.0,-1216.0,640.0
8.0575,-13760.0,-1088.0,640.0
8.06,-13824.0,-1152.0,640.0
8.0625,-13824.0,-1152.0,704.0
8.065,-13824.0,-1152.0,704.0
8.0675,-13824.0,-1088.0,704.0
8.07,-13888.0,-1088.0,704.0
8.0725,-13952.0,-1088.0,640.0
8.075,-13952.0,-1152.0,640.0
8.0775,-13952.0,-1152.0,704.0
8.08,-14016.0,-1152.0,640.0
8.0825,-14144.0,-1216.0,576.0
8.085,-14208.0,-1216.0,576.0
8.0875,-14208.0,-1216.0,576.0
8.09,-14272.0,-1216.0,576.0
8.0925,-14336.0,-1152.0,576.0
8.095,-14464.0,-1216.0,512.0
8.0975,-14528.0,-1216.0,512.0
8.1,-14592.0,-1216.0,512.0
8.1025,-14656.0,-1216.0,448.0
8.105,-14720.0,-1280.0,448.0
8.1075,-14720.0,-1344.0,448.0
8.11,-14848.0,-1344.0,512.0
8.1125,-14912.0,-1408.0,512.0
8.115,-14976.0,-1408.0,448.0
8.1175,-14976.0,-1344.0,512.0
8.12,-15040.0,-1408.0,512.0
8.1225,-15104.0,-1472.0,512.0
8.125,-15168.0,-1408.0,448.0
8.1275,-15232.0,-1408.0,384.0
8.13,-15232.0,-1472.0,256.0
8.1325,-15296.0,-1408.0,256.0
8.135,-15424.0,-1472.0,256.0
8.1375,-15552.0,-1536.0,192.0
8.14,-15680.0,-1472.0,192.0
8.1425,-15744.0,-1472.0,192.0
8.145,-15872.0,-1472.0,128.0
8.1475,-15872.0,-1472.0,64.0
8.15,-16064.0,-1472.0,64.0
8.1525,-16128.0,-1408.0,0.0
8.155,-16192.0,-1472.0,64.0
8.1575,-16256.0,-1472.0,0.0
8.16,-16384.0,-1536.0,0.0
8.1625,-16448.0,-1600.0,64.0
8.165,-16576.0,-1600.0,64.0
8.1675,-16576.0,-1536.0,0.0
8.17,-16640.0,-1536.0,128.0
8.1725,-16704.0,-1472.0,-64.0
8.175,-16704.0,-1600.0,0.0
8.1775,-16768.0,-1536.0,0.0
8.18,-16832.0,-1536.0,0.0
8.1825,-16832.0,-1536.0,-128.0
8.185,-16896.0,-1600.0,-128.0
8.1875,-17024.0,-1664.0,-128.0
8.19,-17024.0,-1664.0,-128.0
8.1925,-17088.0,-1728.0,-192.0
8.195,-17088.0,-1728.0,-192.0
8.1975,-17152.0,-1792.0,-192.0
8.2,-17216.0,-1856.0,-192.0
8.2025,-17216.0,-1856.0,-128.0
8.205,-17216.0,-1856.0,-64.0
8.2075,-17344.0,-1920.0,-64.0
8.21,-17344.0,-1920.0,0.0
8.2125,-17344.0,-1920.0,0.0
8.215,-17344.0,-1920.0,0.0
8.2175,-17344.0,-1920.0,64.0
8.22,-17344.0,-1920.0,0.0
8.2225,-17344.0,-1920.0,64.0
8.225,-17344.0,-1920.0,64.0
8.2275,-17344.0,-1920.0,0.0
8.23,-17344.0,-1856.0,0.0
8.2325,-17280.0,-1920.0,64.0
8.235,-17280.0,-1920.0,64.0
8.2375,-17152.0,-1920.0,128.0
8.24,-17024.0,-1920.0,64.0
8.2425,-16896.0,-1920.0,64.0
8.245,-16896.0,-1920.0,128.0
8.2475,-16768.0,-1920.0,192.0
8.25,-16704.0,-1856.0,128.0
8.2525,-16640.0,-1920.0,128.0
8.255,-16576.0,-1984.0,192.0
8.2575,-16512.0,-1920.0,128.0
8.26,-16448.0,-1856.0,64.0
8.2625,-16448.0,-1856.0,192.0
8.265,-16384.0,-1856.0,0.0
8.2675,-16320.0,-1856.0,0.0
8.27,-16192.0,-1920.0,-128.0
8.2725,-16192.0,-1856.0,-64.0
8.275,-16064.0,-1856.0,-128.0
8.2775,-16064.0,-1920.0,-128.0
8.28,-15936.0,-1920.0,-64.0
8.2825,-15936.0,-1920.0,-64.0
8.285,-15936.0,-1920.0,-64.0
8.2875,-15808.0,-1920.0,-192.0
8.29,-15744.0,-1984.0,-192.0
8.2925,-15680.0,-2048.0,-128.0
8.295,-15616.0,-2112.0,-64.0
8.2975,-15872.0,-2048.0,0.0
8.3,-15744.0,-1984.0,-128.0
8.3025,-15680.0,-2048.0,-64.0
8.305,-15744.0,-2112.0,-64.0
8.3075,-15744.0,-2112.0,64.0
8.31,-15808.0,-2240.0,64.0
8.3125,-15872.0,-2240.0,64.0
8.315,-15872.0,-2304.0,128.0
8.3175,-15808.0,-2304.0,192.0
8.32,-15808.0,-2304.0,256.0
8.3225,-15872.0,-2368.0,256.0
8.325,-15936.0,-2368.0,320.0
8.3275,-16000.0,-2368.0,256.0
8.33,-16064.0,-2368.0,384.0
8.3325,-16128.0,-2368.0,384.0
8.335,-16128.0,-2432.0,320.0
8.3375,-16128.0,-2432.0,128.0
8.34,-16128.0,-2432.0,128.0
8.3425,-16128.0,-2432.0,128.0
8.345,-16064.0,-2432.0,128.0
8.3475,-16064.0,-2432.0,64.0
8.35,-16064.0,-2432.0,192.0
8.3525,-15936.0,-2432.0,128.0
8.355,-15936.0,-2432.0,192.0
8.3575,-15936.0,-2432.0,192.0
8.36,-15936.0,-2496.0,64.0
8.3625,-15936.0,-2496.0,64.0
8.365,-15936.0,-2496.0,64.0
8.3675,-15936.0,-2432.0,0.0
8.37,-15936.0,-2432.0,64.0
8.3725,-15936.0,-2432.0,0.0
8.375,-15936.0,-2432.0,192.0
8.3775,-15936.0,-2432.0,128.0
8.38,-15872.0,-2432.0,0.0
8.3825,-15808.0,-2432.0,64.0
8.385,-15744.0,-2432.0,64.0
8.3875,-15744.0,-2368.0,64.0
8.39,-15680.0,-2432.0,0.0
8.3925,-15680.0,-2432.0,0.0
8.395,-15744.0,-2368.0,64.0
8.3975,-15680.0,-2368.0,0.0
8.4,-15680.0,-2368.0,-64.0
8.4025,-15680.0,-2368.0,-64.0
8.405,-15680.0,-2368.0,-128.0
8.4075,-15744.0,-2368.0,-192.0
8.41,-15744.0,-2368.0,-192.0
8.4125,-15744.0,-2432.0,-192.0
8.415,-15744.0,-2432.0,-192.0
8.4175,-15872.0,-2432.0,-192.0
8.42,-15936.0,-2432.0,-128.0
8.4225,-15872.0,-2432.0,-256.0
8.425,-15936.0,-2368.0,-192.0
8.4275,-16000.0,-2432.0,-256.0
8.43,-15936.0,-2368.0,-192.0
8.4325,-16000.0,-2304.0,-192.0
8.435,-16064.0,-2304.0,-192.0
8.4375,-16064.0,-2304.0,-192.0
8.44,-16064.0,-2304.0,-192.0
8.4425,-16128.0,-2240.0,-192.0
8.445,-16256.0,-2176.0,-256.0
8.4475,-16256.0,-2176.0,-256.0
8.45,-16256.0,-2112.0,-320.0
8.4525,-16320.0,-2112.0,-256.0
8.455,-16320.0,-2176.0,-320.0
8.4575,-16320.0,-2112.0,-384.0
8.46,-16320.0,-2112.0,-384.0
8.4625,-16384.0,-2048.0,-384.0
8.465,-16384.0,-1984.0,-384.0
8.4675,-16384.0,-1984.0,-384.0
8.47,-16384.0,-1984.0,-448.0
8.4725,-16384.0,-1920.0,-448.0
8.475,-16384.0,-1920.0,-512.0
8.4775,-16384.0,-1856.0,-448.0
8.48,-16320.0,-1920.0,-576.0
8.4825,-16320.0,-1920.0,-512.0
8.485,-16384.0,-1920.0,-384.0
8.4875,-16320.0,-1856.0,-448.0
8.49,-16320.0,-1920.0,-448.0
8.4925,-16384.0,-1920.0,-576.0
8.495,-16384.0,-1920.0,-512.0
8.4975,-16384.0,-1856.0,-448.0
8.5,-16384.0,-1856.0,-512.0
8.5025,-16512.0,-1792.0,-512.0
8.505,-16576.0,-1920.0,-512.0
8.5075,-16512.0,-1856.0,-704.0
8.51,-16448.0,-1856.0,-576.0
8.5125,-16448.0,-1920.0,-576.0
8.515,-16448.0,-1984.0,-448.0
8.5175,-16512.0,-1984.0,-512.0
8.52,-16512.0,-1984.0,-512.0
8.5225,-16512.0,-1984.0,-512.0
8.525,-16512.0,-1984.0,-512.0
8.5275,-16512.0,-1984.0,-512.0
8.53,-16512.0,-1984.0,-576.0
8.5325,-16512.0,-2112.0,-512.0
8.535,-16512.0,-2112.0,-576.0
8.5375,-16576.0,-2112.0,-576.0
8.54,-16512.0,-2112.0,-576.0
8.5425,-16512.0,-2112.0,-640.0
8.545,-16448.0,-2112.0,-640.0
8.5475,-16512.0,-2176.0,-576.0
8.55,-16448.0,-2176.0,-640.0
8.5525,-16448.0,-2176.0,-704.0
8.555,-16448.0,-2240.0,-640.0
8.5575,-16384.0,-2240.0,-640.0
8.56,-16384.0,-2304.0,-640.0
8.5625,-16384.0,-2304.0,-576.0
8.565,-16384.0,-2368.0,-448.0
8.5675,-16320.0,-2368.0,-512.0
8.57,-16256.0,-2368.0,-576.0
8.5725,-16320.0,-2368.0,-640.0
8.575,-16320.0,-2496.0,-576.0
8.5775,-16192.0,-2432.0,-448.0
8.58,-16256.0,-2432.0,-512.0
8.5825,-16320.0,-2368.0,-512.0
8.585,-16256.0,-2432.0,-704.0
8.5875,-16256.0,-2368.0,-832.0
8.59,-16256.0,-2368.0,-704.0
8.5925,-16256.0,-2368.0,-704.0
8.595,-16256.0,-2432.0,-704.0
8.5975,-16256.0,-2432.0,-768.0
8.6,-16256.0,-2368.0,-704.0
8.6025,-16320.0,-2432.0,-768.0
8.605,-16320.0,-2496.0,-704.0
8.6075,-16256.0,-2496.0,-704.0
8.61,-16320.0,-2432.0,-640.0
8.6125,-16320.0,-2432.0,-640.0
8.615,-16320.0,-2432.0,-704.0
8.6175,-16320.0,-2432.0,-576.0
8.62,-16256.0,-2496.0,-640.0
8.6225,-16256.0,-2496.0,-704.0
8.625,-16320.0,-2496.0,-704.0
8.6275,-16256.0,-2496.0,-704.0
8.63,-16256.0,-2432.0,-704.0
8.6325,-16256.0,-2496.0,-640.0
8.635,-16256.0,-2432.0,-576.0
8.6375,-16256.0,-2496.0,-576.0
8.64,-16192.0,-2496.0,-448.0
8.6425,-16256.0,-2496.0,-384.0
8.645,-16256.0,-2560.0,-448.0
8.6475,-16128.0,-2560.0,-576.0
8.65,-16128.0,-2624.0,-512.0
8.6525,-16000.0,-2624.0,-448.0
8.655,-16064.0,-2624.0,-448.0
8.6575,-16000.0,-2560.0,-448.0
8.66,-16000.0,-2496.0,-448.0
8.6625,-16000.0,-2560.0,-256.0
8.665,-16000.0,-2624.0,-384.0
8.6675,-15936.0,-2560.0,-512.0
8.67,-15936.0,-2496.0,-512.0
8.6725,-16000.0,-2560.0,-512.0
8.675,-16000.0,-2624.0,-576.0
8.6775,-15936.0,-2688.0,-576.0
8.68,-15936.0,-2624.0,-576.0
8.6825,-15872.0,-2688.0,-576.0
8.685,-15936.0,-2688.0,-576.0
8.6875,-16000.0,-2688.0,-512.0
8.69,-16064.0,-2688.0,-576.0
8.6925,-16064.0,-2688.0,-576.0
8.695,-16128.0,-2688.0,-512.0
8.6975,-16128.0,-2752.0,-512.0
8.7,-16192.0,-2752.0,-512.0
8.7025,-16384.0,-2752.0,-448.0
8.705,-16512.0,-2816.0,-384.0
8.7075,-16512.0,-2752.0,-384.0
8.71,-16640.0,-2752.0,-384.0
8.7125,-16640.0,-2752.0,-384.0
8.715,-16640.0,-2752.0,-384.0
8.7175,-16704.0,-2688.0,-384.0
8.72,-16704.0,-2752.0,-512.0
8.7225,-16704.0,-2816.0,-448.0
8.725,-16832.0,-2752.0,-448.0
8.7275,-16832.0,-2816.0,-448.0
8.73,-16768.0,-2752.0,-384.0
8.7325,-16768.0,-2752.0,-512.0
8.735,-16896.0,-2688.0,-512.0
8.7375,-16896.0,-2752.0,-320.0
8.74,-16896.0,-2624.0,-448.0
8.7425,-16896.0,-2624.0,-448.0
8.745,-16896.0,-2624.0,-512.0
8.7475,-16768.0,-2560.0,-320.0
8.75,-16832.0,-2624.0,-256.0
8.7525,-16896.0,-2624.0,-320.0
8.755,-16832.0,-2560.0,-320.0
8.7575,-16832.0,-2560.0,-320.0
8.76,-16832.0,-2560.0,-256.0
8.7625,-16896.0,-2624.0,-256.0
8.765,-16896.0,-2560.0,-256.0
8.7675,-16960.0,-2496.0,-128.0
8.77,-16896.0,-2560.0,-192.0
8.7725,-16896.0,-2496.0,-192.0
8.775,-16896.0,-2496.0,-128.0
8.7775,-16896.0,-2496.0,-256.0
8.78,-16832.0,-2560.0,-256.0
8.7825,-16832.0,-2496.0,-192.0
8.785,-16832.0,-2432.0,-192.0
8.7875,-16768.0,-2432.0,-192.0
8.79,-16768.0,-2432.0,-128.0
8.7925,-16768.0,-2432.0,-128.0
8.795,-16768.0,-2368.0,-128.0
8.7975,-16704.0,-2432.0,-128.0
8.8,-16576.0,-2368.0,-64.0
8.8025,-16576.0,-2432.0,64.0
8.805,-16640.0,-2368.0,192.0
8.8075,-16640.0,-2304.0,192.0
8.81,-16512.0,-2368.0,128.0
8.8125,-16320.0,-2304.0,512.0
8.815,-16256.0,-2368.0,384.0
8.8175,-16320.0,-2304.0,320.0
8.82,-16256.0,-2304.0,128.0
8.8225,-16128.0,-2368.0,64.0
8.825,-15936.0,-2304.0,128.0
8.8275,-15808.0,-2368.0,192.0
8.83,-15872.0,-2368.0,256.0
8.8325,-15872.0,-2368.0,192.0
8.835,-15808.0,-2368.0,192.0
8.8375,-15808.0,-2304.0,256.0
8.84,-15808.0,-2304.0,192.0
8.8425,-15808.0,-2304.0,192.0
8.845,-15744.0,-2304.0,192.0
8.8475,-15744.0,-2240.0,128.0
8.85,-15744.0,-2240.0,192.0
8.8525,-15744.0,-2240.0,256.0
8.855,-15744.0,-2240.0,320.0
8.8575,-15808.0,-2240.0,320.0
8.86,-15808.0,-2240.0,320.0
8.8625,-15744.0,-2240.0,384.0
8.865,-15808.0,-2240.0,256.0
8.8675,-15872.0,-2240.0,192.0
8.87,-15872.0,-2240.0,256.0
8.8725,-16000.0,-2176.0,256.0
8.875,-16064.0,-2176.0,256.0
8.8775,-16064.0,-2176.0,256.0
8.88,-16192.0,-2112.0,128.0
8.8825,-16128.0,-2112.0,64.0
8.885,-16128.0,-2176.0,0.0
8.8875,-16256.0,-2240.0,128.0
8.89,-16192.0,-2176.0,64.0
8.8925,-16256.0,-2112.0,64.0
8.895,-16256.0,-2176.0,64.0
8.8975,-16192.0,-2176.0,0.0
8.9,-16256.0,-2176.0,0.0
8.9025,-16320.0,-2112.0,-64.0
8.905,-16384.0,-2176.0,-128.0
8.9075,-16256.0,-2112.0,-64.0
8.91,-16256.0,-2176.0,-64.0
8.9125,-16256.0,-2176.0,-64.0
8.915,-16320.0,-2176.0,-128.0
8.9175,-16320.0,-2176.0,-128.0
8.92,-16320.0,-2176.0,-192.0
8.9225,-16384.0,-2112.0,-192.0
8.925,-16320.0,-2112.0,-128.0
8.9275,-16320.0,-2112.0,-128.0
8.93,-16320.0,-2048.0,-192.0
8.9325,-16384.0,-2112.0,-192.0
8.935,-16320.0,-2176.0,-192.0
8.9375,-16320.0,-2176.0,-256.0
8.94,-16320.0,-2176.0,-256.0
8.9425,-16256.0,-2176.0,-192.0
8.945,-16256.0,-2240.0,-192.0
8.9475,-16320.0,-2112.0,-192.0
8.95,-16256.0,-2112.0,-256.0
8.9525,-16256.0,-2176.0,-320.0
8.955,-16256.0,-2176.0,-320.0
8.9575,-16256.0,-2176.0,-320.0
8.96,-16192.0,-2176.0,-320.0
8.9625,-16192.0,-2112.0,-448.0
8.965,-16256.0,-2048.0,-448.0
8.9675,-16256.0,-2112.0,-448.0
8.97,-16192.0,-2112.0,-512.0
8.9725,-16192.0,-2112.0,-512.0
8.975,-16256.0,-2048.0,-576.0
8.9775,-16192.0,-2112.0,-512.0
8.98,-16256.0,-2112.0,-576.0
8.9825,-16256.0,-2176.0,-576.0
8.985,-16320.0,-2112.0,-512.0
8.9875,-16448.0,-2112.0,-576.0
8.99,-16512.0,-2112.0,-640.0
8.9925,-16512.0,-2112.0,-576.0
8.995,-16448.0,-2112.0,-576.0
8.9975,-16512.0,-2176.0,-512.0
9.0,-16512.0,-2240.0,-576.0
9.0025,-16576.0,-2240.0,-576.0
9.005,-16640.0,-2240.0,-576.0
9.0075,-16640.0,-2304.0,-576.0
9.01,-16704.0,-2304.0,-640.0
9.0125,-16704.0,-2240.0,-640.0
9.015,-16768.0,-2304.0,-640.0
9.0175,-16768.0,-2304.0,-640.0
9.02,-16768.0,-2368.0,-576.0
9.0225,-16832.0,-2368.0,-576.0
9.025,-16896.0,-2368.0,-576.0
9.0275,-16832.0,-2432.0,-512.0
9.03,-16832.0,-2432.0,-512.0
9.0325,-16768.0,-2496.0,-512.0
9.035,-16768.0,-2496.0,-576.0
9.0375,-16768.0,-2496.0,-576.0
9.04,-16768.0,-2496.0,-704.0
9.0425,-16704.0,-2560.0,-768.0
9.045,-16704.0,-2560.0,-704.0
9.0475,-16640.0,-2624.0,-832.0
9.05,-16704.0,-2624.0,-832.0
9.0525,-16704.0,-2624.0,-896.0
9.055,-16640.0,-2560.0,-896.0
9.0575,-16640.0,-2496.0,-960.0
9.06,-16704.0,-2560.0,-960.0
9.0625,-16640.0,-2560.0,-1024.0
9.065,-16576.0,-2560.0,-960.0
9.0675,-16512.0,-2560.0,-960.0
9.07,-16512.0,-2560.0,-1024.0
9.0725,-16512.0,-2560.0,-1024.0
9.075,-16384.0,-2624.0,-960.0
9.0775,-16384.0,-2624.0,-896.0
9.08,-16320.0,-2624.0,-960.0
9.0825,-16256.0,-2624.0,-896.0
9.085,-16256.0,-2624.0,-960.0
9.0875,-16256.0,-2624.0,-960.0
9.09,-16256.0,-2624.0,-896.0
9.0925,-16256.0,-2624.0,-832.0
9.095,-16256.0,-2624.0,-704.0
9.0975,-16128.0,-2624.0,-768.0
9.1,-16128.0,-2688.0,-768.0
9.1025,-16128.0,-2688.0,-768.0
9.105,-16128.0,-2624.0,-704.0
9.1075,-16192.0,-2688.0,-704.0
9.11,-16128.0,-2624.0,-704.0
9.1125,-16192.0,-2624.0,-768.0
9.115,-16192.0,-2624.0,-768.0
9.1175,-16192.0,-2560.0,-832.0
9.12,-16256.0,-2624.0,-832.0
9.1225,-16192.0,-2624.0,-768.0
9.125,-16192.0,-2624.0,-704.0
9.1275,-16192.0,-2688.0,-768.0
9.13,-16192.0,-2688.0,-704.0
9.1325,-16256.0,-2688.0,-704.0
9.135,-16256.0,-2688.0,-768.0
9.1375,-16256.0,-2688.0,-832.0
9.14,-16320.0,-2624.0,-896.0
9.1425,-16384.0,-2688.0,-896.0
9.145,-16384.0,-2688.0,-1024.0
9.1475,-16384.0,-2688.0,-1024.0
9.15,-16448.0,-2752.0,-1152.0
9.1525,-16448.0,-2752.0,-1152.0
9.155,-16448.0,-2688.0,-1216.0
9.1575,-16384.0,-2688.0,-1280.0
9.16,-16384.0,-2624.0,-1280.0
9.1625,-16384.0,-2624.0,-1344.0
9.165,-16384.0,-2688.0,-1344.0
9.1675,-16320.0,-2688.0,-1344.0
9.17,-16384.0,-2624.0,-1408.0
9.1725,-16384.0,-2624.0,-1344.0
9.175,-16384.0,-2624.0,-1344.0
9.1775,-16384.0,-2624.0,-1344.0
9.18,-16320.0,-2624.0,-1280.0
9.1825,-16320.0,-2560.0,-1280.0
9.185,-16320.0,-2624.0,-1280.0
9.1875,-16320.0,-2624.0,-1280.0
9.19,-16384.0,-2560.0,-1152.0
9.1925,-16384.0,-2560.0,-1216.0
9.195,-16384.0,-2624.0,-1216.0
9.1975,-16384.0,-2496.0,-1216.0
9.2,-16448.0,-2496.0,-1216.0
9.2025,-16512.0,-2432.0,-1152.0
9.205,-16448.0,-2368.0,-1216.0
9.2075,-16384.0,-2368.0,-1088.0
9.21,-16384.0,-2304.0,-1152.0
9.2125,-16384.0,-2304.0,-1152.0
9.215,-16384.0,-2368.0,-1152.0
9.2175,-16384.0,-2304.0,-1216.0
9.22,-16320.0,-2304.0,-1216.0
9.2225,-16256.0,-2240.0,-1152.0
9.225,-16320.0,-2240.0,-1152.0
9.2275,-16320.0,-2304.0,-1152.0
9.23,-16320.0,-2240.0,-1216.0
9.2325,-16320.0,-2304.0,-1152.0
9.235,-16256.0,-2240.0,-1088.0
9.2375,-16320.0,-2176.0,-1088.0
9.24,-16256.0,-2176.0,-1088.0
9.2425,-16256.0,-2176.0,-1152.0
9.245,-16384.0,-2176.0,-1088.0
9.2475,-16384.0,-2112.0,-1024.0
9.25,-16384.0,-2112.0,-1024.0
9.2525,-16384.0,-2176.0,-1024.0
9.255,-16320.0,-2112.0,-1024.0
9.2575,-16384.0,-2112.0,-1024.0
9.26,-16384.0,-2176.0,-1024.0
9.2625,-16448.0,-2176.0,-1024.0
9.265,-16448.0,-2176.0,-1024.0
9.2675,-16448.0,-2240.0,-896.0
9.27,-16448.0,-2176.0,-832.0
9.2725,-16384.0,-2240.0,-768.0
9.275,-16320.0,-2368.0,-704.0
9.2775,-16320.0,-2304.0,-704.0
9.28,-16320.0,-2368.0,-768.0
9.2825,-16320.0,-2368.0,-768.0
9.285,-16320.0,-2368.0,-704.0
9.2875,-16256.0,-2432.0,-640.0
9.29,-16192.0,-2432.0,-640.0
9.2925,-16192.0,-2496.0,-640.0
9.295,-16064.0,-2496.0,-640.0
9.2975,-16064.0,-2496.0,-640.0
9.3,-15936.0,-2560.0,-640.0
9.3025,-15936.0,-2560.0,-576.0
9.305,-15936.0,-2624.0,-704.0
9.3075,-15872.0,-2560.0,-640.0
9.31,-15808.0,-2560.0,-640.0
9.3125,-15744.0,-2624.0,-640.0
9.315,-15680.0,-2560.0,-640.0
9.3175,-15680.0,-2496.0,-640.0
9.32,-15552.0,-2560.0,-704.0
9.3225,-15552.0,-2624.0,-640.0
9.325,-15552.0,-2560.0,-640.0
9.3275,-15616.0,-2624.0,-576.0
9.33,-15552.0,-2688.0,-576.0
9.3325,-15552.0,-2688.0,-576.0
9.335,-15616.0,-2688.0,-576.0
9.3375,-15616.0,-2688.0,-512.0
9.34,-15552.0,-2688.0,-448.0
9.3425,-15616.0,-2752.0,-384.0
9.345,-15552.0,-2752.0,-320.0
9.3475,-15680.0,-2752.0,-320.0
9.35,-15680.0,-2752.0,-320.0
9.3525,-15680.0,-2752.0,-256.0
9.355,-15616.0,-2752.0,-320.0
9.3575,-15680.0,-2688.0,-256.0
9.36,-15744.0,-2688.0,-384.0
9.3625,-15744.0,-2688.0,-320.0
9.365,-15808.0,-2688.0,-384.0
9.3675,-15744.0,-2624.0,-384.0
9.37,-15808.0,-2624.0,-448.0
9.3725,-15808.0,-2624.0,-384.0
9.375,-15808.0,-2624.0,-448.0
9.3775,-15872.0,-2624.0,-512.0
9.38,-15808.0,-2560.0,-448.0
9.3825,-15808.0,-2496.0,-448.0
9.385,-15808.0,-2560.0,-384.0
9.3875,-15744.0,-2496.0,-384.0
9.39,-15744.0,-2496.0,-384.0
9.3925,-15744.0,-2432.0,-448.0
9.395,-15744.0,-2432.0,-384.0
9.3975,-15744.0,-2432.0,-320.0
9.4,-15744.0,-2432.0,-320.0
9.4025,-15680.0,-2304.0,-320.0
9.405,-15680.0,-2240.0,-320.0
9.4075,-15616.0,-2240.0,-192.0
9.41,-15616.0,-2176.0,-192.0
9.4125,-15616.0,-2176.0,-192.0
9.415,-15552.0,-2176.0,-192.0
9.4175,-15552.0,-2112.0,-192.0
9.42,-15488.0,-2048.0,0.0
9.4225,-15424.0,-2048.0,192.0
9.425,-15360.0,-2048.0,320.0
9.4275,-15360.0,-2048.0,384.0
9.43,-15360.0,-2112.0,512.0
9.4325,-15296.0,-2176.0,576.0
9.435,-15296.0,-2176.0,640.0
9.4375,-15296.0,-2112.0,704.0
9.44,-15104.0,-2048.0,896.0
9.4425,-14912.0,-1984.0,1024.0
9.445,-14848.0,-1984.0,1152.0
9.4475,-14784.0,-1920.0,1152.0
9.45,-14784.0,-2048.0,1152.0
9.4525,-14848.0,-2048.0,1152.0
9.455,-14848.0,-2112.0,1152.0
9.4575,-14848.0,-2112.0,1088.0
9.46,-14912.0,-2048.0,1152.0
9.4625,-14848.0,-2048.0,1024.0
9.465,-14784.0,-2048.0,1024.0
9.4675,-14720.0,-1984.0,960.0
9.47,-14592.0,-1920.0,832.0
9.4725,-14528.0,-1856.0,768.0
9.475,-14400.0,-1664.0,768.0
9.4775,-14336.0,-1600.0,832.0
9.48,-14208.0,-1600.0,768.0
9.4825,-14144.0,-1536.0,832.0
9.485,-14144.0,-1408.0,896.0
9.4875,-14144.0,-1536.0,832.0
9.49,-14080.0,-1536.0,832.0
9.4925,-14016.0,-1536.0,832.0
9.495,-14016.0,-1600.0,768.0
9.4975,-14016.0,-1600.0,704.0
9.5,-14080.0,-1664.0,704.0
9.5025,-14080.0,-1664.0,640.0
9.505,-14080.0,-1664.0,640.0
9.5075,-14144.0,-1664.0,640.0
9.51,-14208.0,-1664.0,768.0
9.5125,-14208.0,-1664.0,768.0
9.515,-14272.0,-1664.0,832.0
9.5175,-14336.0,-1728.0,832.0
9.52,-14528.0,-1792.0,832.0
9.5225,-14656.0,-1728.0,768.0
9.525,-14720.0,-1728.0,768.0
9.5275,-14848.0,-1728.0,768.0
9.53,-14976.0,-1728.0,896.0
9.5325,-15104.0,-1664.0,960.0
9.535,-15232.0,-1664.0,832.0
9.5375,-15296.0,-1664.0,896.0
9.54,-15424.0,-1664.0,896.0
9.5425,-15488.0,-1600.0,768.0
9.545,-15552.0,-1664.0,768.0
9.5475,-15680.0,-1600.0,704.0
9.55,-15744.0,-1536.0,704.0
9.5525,-15872.0,-1536.0,704.0
9.555,-15872.0,-1472.0,768.0
9.5575,-15872.0,-1408.0,768.0
9.56,-15936.0,-1472.0,768.0
9.5625,-16000.0,-1536.0,832.0
9.565,-16064.0,-1536.0,768.0
9.5675,-16192.0,-1600.0,704.0
9.57,-16320.0,-1664.0,704.0
9.5725,-16320.0,-1728.0,768.0
9.575,-16320.0,-1728.0,640.0
9.5775,-16384.0,-1728.0,640.0
9.58,-16384.0,-1728.0,640.0
9.5825,-16448.0,-1664.0,640.0
9.585,-16448.0,-1728.0,512.0
9.5875,-16512.0,-1792.0,448.0
9.59,-16448.0,-1856.0,384.0
9.5925,-16512.0,-1856.0,256.0
9.595,-16448.0,-1920.0,192.0
9.5975,-16448.0,-1920.0,64.0
9.6,-16384.0,-1856.0,-64.0
9.6025,-16320.0,-1920.0,-192.0
9.605,-16320.0,-1792.0,-256.0
9.6075,-16256.0,-1792.0,-320.0
9.61,-16320.0,-1792.0,-320.0
9.6125,-16320.0,-1792.0,-320.0
9.615,-16320.0,-1728.0,-448.0
9.6175,-16320.0,-1664.0,-448.0
9.62,-16256.0,-1664.0,-512.0
9.6225,-16384.0,-1600.0,-512.0
9.625,-16384.0,-1536.0,-512.0
9.6275,-16384.0,-1472.0,-512.0
9.63,-16448.0,-1536.0,-448.0
9.6325,-16512.0,-1536.0,-384.0
9.635,-16512.0,-1536.0,-384.0
9.6375,-16512.0,-1600.0,-320.0
9.64,-16576.0,-1664.0,-384.0
9.6425,-16640.0,-1664.0,-320.0
9.645,-16640.0,-1664.0,-256.0
9.6475,-16704.0,-1664.0,-128.0
9.65,-16704.0,-1600.0,0.0
9.6525,-16704.0,-1664.0,64.0
9.655,-16640.0,-1728.0,64.0
9.6575,-16640.0,-1856.0,0.0
9.66,-16576.0,-1920.0,128.0
9.6625,-16448.0,-1920.0,128.0
9.665,-16448.0,-1984.0,192.0
9.6675,-16320.0,-2048.0,256.0
9.67,-16256.0,-2176.0,320.0
9.6725,-16192.0,-2176.0,320.0
9.675,-16128.0,-2176.0,320.0
9.6775,-16064.0,-2240.0,256.0
9.68,-15808.0,-2368.0,256.0
9.6825,-15808.0,-2368.0,192.0
9.685,-15744.0,-2368.0,128.0
9.6875,-15680.0,-2304.0,128.0
9.69,-15552.0,-2304.0,128.0
9.6925,-15552.0,-2304.0,64.0
9.695,-15488.0,-2304.0,64.0
9.6975,-15360.0,-2240.0,0.0
9.7,-15232.0,-2240.0,0.0
9.7025,-15168.0,-2176.0,-64.0
9.705,-15104.0,-2240.0,64.0
9.7075,-15104.0,-2112.0,64.0
9.71,-14976.0,-2048.0,0.0
9.7125,-14848.0,-1984.0,0.0
9.715,-14848.0,-1984.0,64.0
9.7175,-14784.0,-1984.0,128.0
9.72,-14656.0,-1984.0,128.0
9.7225,-14656.0,-1984.0,256.0
9.725,-14592.0,-1984.0,320.0
9.7275,-14656.0,-2112.0,256.0
9.73,-14592.0,-2176.0,320.0
9.7325,-14464.0,-2176.0,384.0
9.735,-14464.0,-2176.0,512.0
9.7375,-14336.0,-2176.0,512.0
9.74,-14272.0,-2176.0,512.0
9.7425,-14208.0,-2176.0,640.0
9.745,-14080.0,-2240.0,704.0
9.7475,-13952.0,-2176.0,704.0
9.75,-13888.0,-2176.0,768.0
9.7525,-13760.0,-2176.0,704.0
9.755,-13696.0,-2112.0,640.0
9.7575,-13568.0,-2112.0,704.0
9.76,-13376.0,-2112.0,640.0
9.7625,-13376.0,-2112.0,640.0
9.765,-13376.0,-2048.0,576.0
9.7675,-13376.0,-2048.0,512.0
9.77,-13376.0,-2048.0,576.0
9.7725,-13312.0,-1984.0,512.0
9.775,-13312.0,-1920.0,512.0
9.7775,-13376.0,-1856.0,448.0
9.78,-13440.0,-1792.0,448.0
9.7825,-13568.0,-1664.0,320.0
9.785,-13632.0,-1600.0,256.0
9.7875,-13760.0,-1600.0,192.0
9.79,-13824.0,-1472.0,128.0
9.7925,-13952.0,-1408.0,128.0
9.795,-13952.0,-1408.0,192.0
9.7975,-14144.0,-1344.0,192.0
9.8,-14272.0,-1344.0,192.0
9.8025,-14336.0,-1280.0,256.0
9.805,-14400.0,-1280.0,256.0
9.8075,-14528.0,-1280.0,256.0
9.81,-14592.0,-1280.0,256.0
9.8125,-14720.0,-1280.0,320.0
9.815,-14848.0,-1280.0,448.0
9.8175,-14912.0,-1280.0,448.0
9.82,-14912.0,-1408.0,512.0
9.8225,-15040.0,-1472.0,512.0
9.825,-15104.0,-1536.0,512.0
9.8275,-15104.0,-1664.0,576.0
9.83,-15168.0,-1728.0,576.0
9.8325,-15168.0,-1856.0,640.0
9.835,-15168.0,-1856.0,640.0
9.8375,-15296.0,-1984.0,640.0
9.84,-15232.0,-2112.0,640.0
9.8425,-15232.0,-2112.0,704.0
9.845,-15168.0,-2112.0,640.0
9.8475,-15232.0,-2176.0,640.0
9.85,-15168.0,-2112.0,576.0
9.8525,-15168.0,-2112.0,576.0
9.855,-15232.0,-2112.0,512.0
9.8575,-15232.0,-2048.0,384.0
9.86,-15232.0,-2048.0,320.0
9.8625,-15168.0,-2048.0,256.0
9.865,-15296.0,-1984.0,192.0
9.8675,-15360.0,-1984.0,128.0
9.87,-15488.0,-1984.0,128.0
9.8725,-15552.0,-1920.0,0.0
9.875,-15680.0,-1856.0,64.0
9.8775,-15808.0,-1792.0,128.0
9.88,-15808.0,-1664.0,128.0
9.8825,-15936.0,-1536.0,64.0
9.885,-15936.0,-1408.0,128.0
9.8875,-16064.0,-1280.0,128.0
9.89,-16192.0,-1280.0,256.0
9.8925,-16192.0,-1088.0,320.0
9.895,-16320.0,-1152.0,320.0
9.8975,-16384.0,-1088.0,384.0
9.9,-16384.0,-1088.0,384.0
9.9025,-16320.0,-1088.0,384.0
9.905,-16384.0,-1088.0,448.0
9.9075,-16384.0,-1088.0,448.0
9.91,-16384.0,-1152.0,512.0
9.9125,-16320.0,-1152.0,576.0
9.915,-16320.0,-1088.0,576.0
9.9175,-16256.0,-1152.0,640.0
9.92,-16128.0,-1216.0,704.0
9.9225,-16064.0,-1216.0,768.0
9.925,-16000.0,-1280.0,768.0
9.9275,-15872.0,-1344.0,768.0
9.93,-15808.0,-1344.0,704.0
9.9325,-15680.0,-1344.0,704.0
9.935,-15552.0,-1344.0,704.0
9.9375,-15424.0,-1344.0,768.0
9.94,-15424.0,-1408.0,704.0
9.9425,-15296.0,-1408.0,704.0
9.945,-15168.0,-1408.0,832.0
9.9475,-15104.0,-1344.0,832.0
9.95,-15104.0,-1344.0,768.0
9.9525,-15040.0,-1344.0,832.0
9.955,-15040.0,-1344.0,832.0
9.9575,-15040.0,-1344.0,832.0
9.96,-14976.0,-1344.0,832.0
9.9625,-14976.0,-1408.0,896.0
9.965,-14976.0,-1408.0,896.0
9.9675,-14912.0,-1472.0,896.0
9.97,-14912.0,-1472.0,896.0
9.9725,-14912.0,-1536.0,896.0
