time_stamp,acc_x,acc_y,acc_z
0.0,-14912.0,-6528.0,256.0
0.0025,-14976.0,-6528.0,256.0
0.005,-15104.0,-6464.0,320.0
0.0075,-15040.0,-6528.0,448.0
0.01,-15104.0,-6592.0,448.0
0.0125,-15104.0,-6528.0,448.0
0.015,-15104.0,-6528.0,512.0
0.0175,-15104.0,-6592.0,448.0
0.02,-15104.0,-6528.0,512.0
0.0225,-15104.0,-6528.0,448.0
0.025,-15104.0,-6528.0,448.0
0.0275,-15168.0,-6528.0,448.0
0.03,-15168.0,-6528.0,512.0
0.0325,-15232.0,-6528.0,448.0
0.035,-15232.0,-6528.0,512.0
0.0375,-15296.0,-6528.0,512.0
0.04,-15296.0,-6528.0,512.0
0.0425,-15296.0,-6528.0,512.0
0.045,-15232.0,-6528.0,448.0
0.0475,-15296.0,-6528.0,448.0
0.05,-15232.0,-6528.0,448.0
0.0525,-15168.0,-6592.0,448.0
0.055,-15296.0,-6592.0,448.0
0.0575,-15232.0,-6656.0,384.0
0.06,-15168.0,-6592.0,448.0
0.0625,-15168.0,-6592.0,448.0
0.065,-15168.0,-6656.0,384.0
0.0675,-15232.0,-6656.0,384.0
0.07,-15168.0,-6592.0,320.0
0.0725,-15296.0,-6656.0,320.0
0.075,-15232.0,-6720.0,320.0
0.0775,-15232.0,-6656.0,320.0
0.08,-15168.0,-6592.0,320.0
0.0825,-15168.0,-6656.0,320.0
0.085,-15104.0,-6656.0,320.0
0.0875,-15104.0,-6656.0,384.0
0.09,-15168.0,-6656.0,320.0
0.0925,-15104.0,-6656.0,384.0
0.095,-15040.0,-6720.0,320.0
0.0975,-15040.0,-6656.0,384.0
0.1,-15104.0,-6656.0,384.0
0.1025,-15168.0,-6656.0,384.0
0.105,-15168.0,-6656.0,448.0
0.1075,-15168.0,-6656.0,384.0
0.11,-15168.0,-6592.0,384.0
0.1125,-15168.0,-6528.0,384.0
0.115,-15104.0,-6528.0,448.0
0.1175,-15168.0,-6592.0,448.0
0.12,-15232.0,-6528.0,448.0
0.1225,-15232.0,-6528.0,448.0
0.125,-15232.0,-6528.0,448.0
0.1275,-15168.0,-6464.0,448.0
0.13,-15168.0,-6528.0,512.0
0.1325,-15168.0,-6528.0,512.0
0.135,-15232.0,-6592.0,512.0
0.1375,-15168.0,-6592.0,512.0
0.14,-15104.0,-6592.0,512.0
0.1425,-15104.0,-6592.0,512.0
0.145,-15104.0,-6592.0,512.0
0.1475,-15168.0,-6656.0,512.0
0.15,-15168.0,-6720.0,512.0
0.1525,-15104.0,-6720.0,448.0
0.155,-15104.0,-6720.0,384.0
0.1575,-15104.0,-6720.0,448.0
0.16,-15104.0,-6720.0,448.0
0.1625,-15168.0,-6720.0,448.0
0.165,-15104.0,-6656.0,512.0
0.1675,-15104.0,-6720.0,512.0
0.17,-15104.0,-6784.0,576.0
0.1725,-15168.0,-6784.0,448.0
0.175,-15168.0,-6784.0,512.0
0.1775,-15040.0,-6720.0,448.0
0.18,-15104.0,-6720.0,384.0
0.1825,-15040.0,-6784.0,448.0
0.185,-15040.0,-6720.0,448.0
0.1875,-15104.0,-6848.0,448.0
0.19,-15104.0,-6848.0,512.0
0.1925,-15104.0,-6848.0,448.0
0.195,-15040.0,-6848.0,512.0
0.1975,-14976.0,-6784.0,512.0
0.2,-15040.0,-6784.0,512.0
0.2025,-15040.0,-6720.0,576.0
0.205,-14976.0,-6720.0,576.0
0.2075,-15040.0,-6784.0,576.0
0.21,-15040.0,-6784.0,640.0
0.2125,-15040.0,-6784.0,640.0
0.215,-15040.0,-6784.0,576.0
0.2175,-15040.0,-6784.0,576.0
0.22,-15040.0,-6784.0,576.0
0.2225,-15040.0,-6784.0,576.0
0.225,-14976.0,-6720.0,640.0
0.2275,-14976.0,-6720.0,576.0
0.23,-14976.0,-6784.0,576.0
0.2325,-14976.0,-6848.0,576.0
0.235,-15040.0,-6848.0,576.0
0.2375,-15040.0,-6848.0,576.0
0.24,-14976.0,-6912.0,512.0
0.2425,-14976.0,-6976.0,512.0
0.245,-14976.0,-6912.0,512.0
0.2475,-15040.0,-6976.0,512.0
0.25,-15040.0,-6912.0,512.0
0.2525,-15040.0,-6976.0,576.0
0.255,-15104.0,-6912.0,512.0
0.2575,-15104.0,-6976.0,512.0
0.26,-15104.0,-6912.0,512.0
0.2625,-15040.0,-6848.0,512.0
0.265,-14976.0,-6784.0,512.0
0.2675,-15040.0,-6848.0,512.0
0.27,-15040.0,-6784.0,576.0
0.2725,-15040.0,-6784.0,576.0
0.275,-15040.0,-6784.0,576.0
0.2775,-15040.0,-6784.0,576.0
0.28,-15040.0,-6784.0,576.0
0.2825,-15040.0,-6784.0,576.0
0.285,-15040.0,-6784.0,640.0
0.2875,-15040.0,-6784.0,640.0
0.29,-15040.0,-6784.0,640.0
0.2925,-15040.0,-6848.0,640.0
0.295,-15104.0,-6784.0,640.0
0.2975,-15040.0,-6784.0,512.0
0.3,-15104.0,-6720.0,512.0
0.3025,-15104.0,-6784.0,448.0
0.305,-15104.0,-6784.0,512.0
0.3075,-15104.0,-6720.0,448.0
0.31,-15040.0,-6720.0,512.0
0.3125,-15040.0,-6720.0,512.0
0.315,-15040.0,-6720.0,576.0
0.3175,-15104.0,-6720.0,576.0
0.32,-15104.0,-6592.0,512.0
0.3225,-15104.0,-6656.0,512.0
0.325,-15104.0,-6656.0,576.0
0.3275,-15104.0,-6592.0,576.0
0.33,-15168.0,-6528.0,512.0
0.3325,-15168.0,-6528.0,576.0
0.335,-15168.0,-6592.0,576.0
0.3375,-15168.0,-6592.0,576.0
0.34,-15168.0,-6592.0,512.0
0.3425,-15232.0,-6656.0,448.0
0.345,-15232.0,-6656.0,448.0
0.3475,-15232.0,-6656.0,512.0
0.35,-15168.0,-6656.0,448.0
0.3525,-15232.0,-6656.0,448.0
0.355,-15232.0,-6656.0,448.0
0.3575,-15168.0,-6592.0,448.0
0.36,-15168.0,-6592.0,448.0
0.3625,-15168.0,-6592.0,448.0
0.365,-15232.0,-6592.0,448.0
0.3675,-15296.0,-6592.0,384.0
0.37,-15232.0,-6592.0,448.0
0.3725,-15296.0,-6528.0,448.0
0.375,-15232.0,-6528.0,512.0
0.3775,-15296.0,-6528.0,448.0
0.38,-15360.0,-6464.0,448.0
0.3825,-15360.0,-6464.0,384.0
0.385,-15232.0,-6400.0,384.0
0.3875,-15296.0,-6400.0,384.0
0.39,-15296.0,-6400.0,448.0
0.3925,-15296.0,-6336.0,320.0
0.395,-15296.0,-6400.0,384.0
0.3975,-15232.0,-6464.0,448.0
0.4,-15232.0,-6528.0,448.0
0.4025,-15232.0,-6464.0,384.0
0.405,-15232.0,-6464.0,384.0
0.4075,-15232.0,-6464.0,320.0
0.41,-15232.0,-6400.0,384.0
0.4125,-15168.0,-6400.0,448.0
0.415,-15168.0,-6336.0,448.0
0.4175,-15232.0,-6400.0,448.0
0.42,-15168.0,-6336.0,448.0
0.4225,-15232.0,-6336.0,384.0
0.425,-15168.0,-6400.0,384.0
0.4275,-15168.0,-6336.0,384.0
0.43,-15168.0,-6336.0,384.0
0.4325,-15104.0,-6400.0,448.0
0.435,-15168.0,-6400.0,384.0
0.4375,-15168.0,-6400.0,384.0
0.44,-15168.0,-6400.0,448.0
0.4425,-15232.0,-6336.0,448.0
0.445,-15232.0,-6400.0,448.0
0.4475,-15232.0,-6336.0,384.0
0.45,-15232.0,-6400.0,448.0
0.4525,-15168.0,-6400.0,512.0
0.455,-15168.0,-6464.0,448.0
0.4575,-15168.0,-6400.0,448.0
0.46,-15168.0,-6400.0,448.0
0.4625,-15168.0,-6336.0,384.0
0.465,-15168.0,-6336.0,384.0
0.4675,-15104.0,-6336.0,384.0
0.47,-15168.0,-6400.0,320.0
0.4725,-15104.0,-6336.0,320.0
0.475,-15168.0,-6336.0,320.0
0.4775,-15168.0,-6400.0,384.0
0.48,-15168.0,-6464.0,320.0
0.4825,-15168.0,-6464.0,320.0
0.485,-15104.0,-6464.0,320.0
0.4875,-15232.0,-6464.0,384.0
0.49,-15168.0,-6528.0,320.0
0.4925,-15232.0,-6528.0,320.0
0.495,-15232.0,-6528.0,320.0
0.4975,-15232.0,-6592.0,320.0
0.5,-15168.0,-6592.0,384.0
0.5025,-15168.0,-6592.0,384.0
0.505,-15168.0,-6592.0,384.0
0.5075,-15168.0,-6464.0,384.0
0.51,-15232.0,-6464.0,384.0
0.5125,-15104.0,-6464.0,320.0
0.515,-15232.0,-6464.0,384.0
0.5175,-15168.0,-6592.0,320.0
0.52,-15168.0,-6528.0,320.0
0.5225,-15168.0,-6528.0,384.0
0.525,-15232.0,-6464.0,384.0
0.5275,-15232.0,-6400.0,384.0
0.53,-15232.0,-6400.0,448.0
0.5325,-15232.0,-6464.0,512.0
0.535,-15232.0,-6400.0,448.0
0.5375,-15232.0,-6464.0,448.0
0.54,-15232.0,-6464.0,512.0
0.5425,-15232.0,-6400.0,512.0
0.545,-15168.0,-6464.0,576.0
0.5475,-15168.0,-6464.0,512.0
0.55,-15104.0,-6464.0,512.0
0.5525,-15168.0,-6464.0,576.0
0.555,-15232.0,-6400.0,576.0
0.5575,-15232.0,-6464.0,576.0
0.56,-15104.0,-6464.0,512.0
0.5625,-15104.0,-6528.0,512.0
0.565,-15104.0,-6528.0,512.0
0.5675,-15040.0,-6464.0,512.0
0.57,-15104.0,-6464.0,512.0
0.5725,-15168.0,-6528.0,512.0
0.575,-15104.0,-6528.0,512.0
0.5775,-15040.0,-6528.0,448.0
0.58,-14976.0,-6464.0,384.0
0.5825,-14976.0,-6528.0,448.0
0.585,-14976.0,-6528.0,448.0
0.5875,-14976.0,-6464.0,448.0
0.59,-14976.0,-6528.0,448.0
0.5925,-15040.0,-6528.0,384.0
0.595,-14976.0,-6528.0,384.0
0.5975,-14976.0,-6528.0,448.0
0.6,-14976.0,-6592.0,448.0
0.6025,-14976.0,-6592.0,512.0
0.605,-15040.0,-6528.0,448.0
0.6075,-15104.0,-6592.0,512.0
0.61,-15104.0,-6528.0,512.0
0.6125,-15232.0,-6528.0,512.0
0.615,-15168.0,-6528.0,448.0
0.6175,-15232.0,-6464.0,448.0
0.62,-15168.0,-6464.0,448.0
0.6225,-15168.0,-6528.0,448.0
0.625,-15168.0,-6528.0,448.0
0.6275,-15168.0,-6528.0,512.0
0.63,-15168.0,-6528.0,512.0
0.6325,-15168.0,-6592.0,576.0
0.635,-15232.0,-6656.0,512.0
0.6375,-15232.0,-6656.0,512.0
0.64,-15232.0,-6720.0,640.0
0.6425,-15232.0,-6720.0,512.0
0.645,-15168.0,-6720.0,576.0
0.6475,-15168.0,-6784.0,576.0
0.65,-15232.0,-6784.0,512.0
0.6525,-15232.0,-6720.0,512.0
0.655,-15232.0,-6720.0,576.0
0.6575,-15168.0,-6720.0,576.0
0.66,-15168.0,-6784.0,640.0
0.6625,-15232.0,-6720.0,512.0
0.665,-15168.0,-6720.0,576.0
0.6675,-15168.0,-6656.0,512.0
0.67,-15168.0,-6720.0,576.0
0.6725,-15232.0,-6720.0,512.0
0.675,-15232.0,-6720.0,512.0
0.6775,-15168.0,-6720.0,512.0
0.68,-15232.0,-6784.0,512.0
0.6825,-15168.0,-6784.0,512.0
0.685,-15168.0,-6848.0,448.0
0.6875,-15168.0,-6848.0,512.0
0.69,-15104.0,-6784.0,512.0
0.6925,-15168.0,-6784.0,512.0
0.695,-15232.0,-6848.0,576.0
0.6975,-15232.0,-6784.0,512.0
0.7,-15232.0,-6784.0,576.0
0.7025,-15232.0,-6848.0,576.0
0.705,-15232.0,-6848.0,576.0
0.7075,-15232.0,-6784.0,576.0
0.71,-15296.0,-6784.0,576.0
0.7125,-15232.0,-6784.0,576.0
0.715,-15232.0,-6720.0,576.0
0.7175,-15296.0,-6720.0,576.0
0.72,-15296.0,-6784.0,640.0
0.7225,-15296.0,-6784.0,640.0
0.725,-15296.0,-6784.0,640.0
0.7275,-15296.0,-6784.0,640.0
0.73,-15296.0,-6848.0,704.0
0.7325,-15360.0,-6784.0,704.0
0.735,-15360.0,-6784.0,704.0
0.7375,-15360.0,-6720.0,640.0
0.74,-15360.0,-6784.0,640.0
0.7425,-15360.0,-6720.0,640.0
0.745,-15232.0,-6656.0,640.0
0.7475,-15232.0,-6592.0,704.0
0.75,-15296.0,-6592.0,640.0
0.7525,-15296.0,-6592.0,704.0
0.755,-15296.0,-6656.0,640.0
0.7575,-15232.0,-6592.0,704.0
0.76,-15360.0,-6656.0,640.0
0.7625,-15232.0,-6656.0,576.0
0.765,-15232.0,-6592.0,576.0
0.7675,-15232.0,-6656.0,576.0
0.77,-15168.0,-6720.0,576.0
0.7725,-15232.0,-6720.0,576.0
0.775,-15232.0,-6656.0,640.0
0.7775,-15232.0,-6592.0,576.0
0.78,-15232.0,-6592.0,576.0
0.7825,-15232.0,-6656.0,640.0
0.785,-15232.0,-6592.0,576.0
0.7875,-15232.0,-6656.0,576.0
0.79,-15232.0,-6656.0,576.0
0.7925,-15296.0,-6656.0,512.0
0.795,-15232.0,-6656.0,576.0
0.7975,-15232.0,-6656.0,512.0
0.8,-15232.0,-6656.0,512.0
0.8025,-15232.0,-6592.0,576.0
0.805,-15232.0,-6592.0,512.0
0.8075,-15296.0,-6592.0,576.0
0.81,-15232.0,-6592.0,640.0
0.8125,-15232.0,-6528.0,576.0
0.815,-15168.0,-6464.0,704.0
0.8175,-15168.0,-6464.0,640.0
0.82,-15232.0,-6464.0,640.0
0.8225,-15232.0,-6400.0,640.0
0.825,-15168.0,-6464.0,640.0
0.8275,-15168.0,-6528.0,640.0
0.83,-15168.0,-6528.0,704.0
0.8325,-15168.0,-6528.0,704.0
0.835,-15168.0,-6592.0,704.0
0.8375,-15168.0,-6528.0,640.0
0.84,-15168.0,-6464.0,640.0
0.8425,-15168.0,-6528.0,640.0
0.845,-15232.0,-6528.0,640.0
0.8475,-15168.0,-6528.0,704.0
0.85,-15168.0,-6528.0,704.0
0.8525,-15168.0,-6528.0,640.0
0.855,-15168.0,-6464.0,576.0
0.8575,-15104.0,-6464.0,576.0
0.86,-15168.0,-6400.0,704.0
0.8625,-15168.0,-6400.0,640.0
0.865,-15104.0,-6400.0,576.0
0.8675,-15104.0,-6400.0,576.0
0.87,-15104.0,-6400.0,576.0
0.8725,-15104.0,-6400.0,576.0
0.875,-15040.0,-6400.0,512.0
0.8775,-15040.0,-6464.0,576.0
0.88,-15040.0,-6528.0,448.0
0.8825,-15040.0,-6464.0,512.0
0.885,-15104.0,-6528.0,512.0
0.8875,-15168.0,-6528.0,448.0
0.89,-15168.0,-6528.0,512.0
0.8925,-15104.0,-6528.0,448.0
0.895,-15104.0,-6528.0,512.0
0.8975,-15104.0,-6592.0,448.0
0.9,-15104.0,-6464.0,448.0
0.9025,-15168.0,-6464.0,448.0
0.905,-15104.0,-6464.0,512.0
0.9075,-15104.0,-6464.0,448.0
0.91,-15104.0,-6400.0,384.0
0.9125,-15104.0,-6400.0,384.0
0.915,-15104.0,-6400.0,512.0
0.9175,-15104.0,-6336.0,512.0
0.92,-15104.0,-6336.0,512.0
0.9225,-15104.0,-6336.0,512.0
0.925,-15232.0,-6400.0,448.0
0.9275,-15232.0,-6400.0,448.0
0.93,-15168.0,-6400.0,448.0
0.9325,-15232.0,-6400.0,448.0
0.935,-15296.0,-6400.0,512.0
0.9375,-15296.0,-6400.0,512.0
0.94,-15296.0,-6400.0,576.0
0.9425,-15296.0,-6464.0,512.0
0.945,-15360.0,-6464.0,512.0
0.9475,-15360.0,-6464.0,512.0
0.95,-15424.0,-6464.0,576.0
0.9525,-15360.0,-6464.0,576.0
0.955,-15424.0,-6400.0,576.0
0.9575,-15488.0,-6464.0,640.0
0.96,-15424.0,-6336.0,576.0
0.9625,-15424.0,-6336.0,576.0
0.965,-15488.0,-6336.0,576.0
0.9675,-15552.0,-6272.0,576.0
0.97,-15488.0,-6336.0,576.0
0.9725,-15488.0,-6272.0,512.0
0.975,-15424.0,-6272.0,576.0
0.9775,-15488.0,-6336.0,640.0
0.98,-15424.0,-6400.0,640.0
0.9825,-15488.0,-6400.0,640.0
0.985,-15552.0,-6400.0,640.0
0.9875,-15488.0,-6464.0,576.0
0.99,-15552.0,-6400.0,576.0
0.9925,-15488.0,-6464.0,640.0
0.995,-15552.0,-6400.0,640.0
0.9975,-15552.0,-6400.0,576.0
1.0,-15488.0,-6336.0,640.0
1.0025,-15488.0,-6336.0,576.0
1.005,-15488.0,-6464.0,640.0
1.0075,-15424.0,-6336.0,640.0
1.01,-15424.0,-6272.0,576.0
1.0125,-15424.0,-6336.0,640.0
1.015,-15360.0,-6336.0,640.0
1.0175,-15296.0,-6336.0,640.0
1.02,-15168.0,-6336.0,704.0
1.0225,-15232.0,-6336.0,704.0
1.025,-15232.0,-6400.0,640.0
1.0275,-15232.0,-6336.0,640.0
1.03,-15168.0,-6400.0,704.0
1.0325,-15168.0,-6336.0,704.0
1.035,-15168.0,-6336.0,640.0
1.0375,-15168.0,-6400.0,704.0
1.04,-15104.0,-6336.0,768.0
1.0425,-15040.0,-6400.0,704.0
1.045,-15040.0,-6336.0,704.0
1.0475,-15040.0,-6400.0,704.0
1.05,-15104.0,-6336.0,704.0
1.0525,-15040.0,-6336.0,640.0
1.055,-15104.0,-6336.0,640.0
1.0575,-15104.0,-6272.0,640.0
1.06,-15104.0,-6272.0,640.0
1.0625,-15040.0,-6272.0,576.0
1.065,-15040.0,-6272.0,576.0
1.0675,-15040.0,-6336.0,640.0
1.07,-15168.0,-6272.0,640.0
1.0725,-15168.0,-6336.0,576.0
1.075,-15168.0,-6336.0,640.0
1.0775,-15168.0,-6336.0,640.0
1.08,-15104.0,-6272.0,704.0
1.0825,-15040.0,-6272.0,704.0
1.085,-14976.0,-6272.0,640.0
1.0875,-15104.0,-6336.0,704.0
1.09,-15104.0,-6400.0,704.0
1.0925,-15104.0,-6336.0,704.0
1.095,-15168.0,-6336.0,640.0
1.0975,-15168.0,-6400.0,640.0
1.1,-15168.0,-6464.0,640.0
1.1025,-15168.0,-6464.0,576.0
1.105,-15232.0,-6528.0,704.0
1.1075,-15168.0,-6464.0,576.0
1.11,-15168.0,-6336.0,640.0
1.1125,-15232.0,-6336.0,640.0
1.115,-15232.0,-6336.0,576.0
1.1175,-15232.0,-6336.0,576.0
1.12,-15296.0,-6336.0,640.0
1.1225,-15296.0,-6336.0,640.0
1.125,-15232.0,-6336.0,640.0
1.1275,-15232.0,-6272.0,640.0
1.13,-15232.0,-6336.0,640.0
1.1325,-15232.0,-6464.0,576.0
1.135,-15296.0,-6400.0,576.0
1.1375,-15232.0,-6336.0,576.0
1.14,-15296.0,-6336.0,640.0
1.1425,-15168.0,-6272.0,576.0
1.145,-15232.0,-6272.0,576.0
1.1475,-15232.0,-6336.0,576.0
1.15,-15296.0,-6272.0,576.0
1.1525,-15296.0,-6272.0,640.0
1.155,-15360.0,-6272.0,576.0
1.1575,-15360.0,-6336.0,576.0
1.16,-15360.0,-6272.0,576.0
1.1625,-15296.0,-6208.0,576.0
1.165,-15360.0,-6272.0,576.0
1.1675,-15360.0,-6272.0,576.0
1.17,-15360.0,-6272.0,640.0
1.1725,-15360.0,-6272.0,576.0
1.175,-15360.0,-6272.0,640.0
1.1775,-15424.0,-6336.0,576.0
1.18,-15360.0,-6272.0,640.0
1.1825,-15424.0,-6336.0,576.0
1.185,-15424.0,-6336.0,576.0
1.1875,-15424.0,-6208.0,576.0
1.19,-15360.0,-6272.0,576.0
1.1925,-15424.0,-6272.0,640.0
1.195,-15424.0,-6208.0,640.0
1.1975,-15424.0,-6272.0,576.0
1.2,-15424.0,-6272.0,576.0
1.2025,-15360.0,-6272.0,640.0
1.205,-15424.0,-6208.0,640.0
1.2075,-15360.0,-6144.0,640.0
1.21,-15360.0,-6144.0,576.0
1.2125,-15424.0,-6144.0,640.0
1.215,-15360.0,-6208.0,640.0
1.2175,-15360.0,-6208.0,640.0
1.22,-15360.0,-6272.0,704.0
1.2225,-15360.0,-6208.0,704.0
1.225,-15360.0,-6208.0,640.0
1.2275,-15296.0,-6208.0,640.0
1.23,-15232.0,-6272.0,640.0
1.2325,-15232.0,-6272.0,640.0
1.235,-15296.0,-6272.0,640.0
1.2375,-15296.0,-6208.0,640.0
1.24,-15360.0,-6208.0,704.0
1.2425,-15232.0,-6272.0,640.0
1.245,-15296.0,-6272.0,704.0
1.2475,-15296.0,-6272.0,704.0
1.25,-15168.0,-6272.0,640.0
1.2525,-15232.0,-6208.0,640.0
1.255,-15232.0,-6272.0,640.0
1.2575,-15232.0,-6272.0,640.0
1.26,-15232.0,-6272.0,640.0
1.2625,-15232.0,-6272.0,704.0
1.265,-15232.0,-6272.0,640.0
1.2675,-15296.0,-6272.0,704.0
1.27,-15296.0,-6144.0,640.0
1.2725,-15296.0,-6144.0,640.0
1.275,-15232.0,-6144.0,640.0
1.2775,-15168.0,-6208.0,576.0
1.28,-15232.0,-6272.0,576.0
1.2825,-15296.0,-6272.0,640.0
1.285,-15296.0,-6272.0,640.0
1.2875,-15232.0,-6272.0,640.0
1.29,-15232.0,-6272.0,640.0
1.2925,-15232.0,-6272.0,640.0
1.295,-15296.0,-6336.0,640.0
1.2975,-15296.0,-6336.0,704.0
1.3,-15296.0,-6336.0,704.0
1.3025,-15296.0,-6336.0,640.0
1.305,-15296.0,-6336.0,768.0
1.3075,-15360.0,-6272.0,704.0
1.31,-15296.0,-6272.0,768.0
1.3125,-15360.0,-6272.0,768.0
1.315,-15296.0,-6208.0,704.0
1.3175,-15232.0,-6272.0,832.0
1.32,-15296.0,-6208.0,768.0
1.3225,-15296.0,-6272.0,768.0
1.325,-15296.0,-6272.0,832.0
1.3275,-15360.0,-6272.0,832.0
1.33,-15296.0,-6272.0,832.0
1.3325,-15296.0,-6272.0,896.0
1.335,-15296.0,-6208.0,832.0
1.3375,-15232.0,-6208.0,832.0
1.34,-15168.0,-6208.0,832.0
1.3425,-15168.0,-6272.0,832.0
1.345,-15168.0,-6208.0,832.0
1.3475,-15168.0,-6208.0,832.0
1.35,-15232.0,-6208.0,768.0
1.3525,-15232.0,-6208.0,768.0
1.355,-15168.0,-6272.0,768.0
1.3575,-15168.0,-6272.0,832.0
1.36,-15104.0,-6272.0,704.0
1.3625,-15040.0,-6272.0,768.0
1.365,-15040.0,-6272.0,768.0
1.3675,-15104.0,-6272.0,768.0
1.37,-15104.0,-6272.0,768.0
1.3725,-15040.0,-6272.0,832.0
1.375,-15040.0,-6272.0,832.0
1.3775,-15104.0,-6208.0,832.0
1.38,-15040.0,-6144.0,768.0
1.3825,-15104.0,-6080.0,768.0
1.385,-15104.0,-6080.0,768.0
1.3875,-15168.0,-6144.0,832.0
1.39,-15232.0,-6080.0,768.0
1.3925,-15168.0,-6080.0,832.0
1.395,-15168.0,-6080.0,832.0
1.3975,-15104.0,-6144.0,896.0
1.4,-15168.0,-6144.0,960.0
1.4025,-15168.0,-6144.0,832.0
1.405,-15168.0,-6144.0,832.0
1.4075,-15168.0,-6144.0,896.0
1.41,-15168.0,-6144.0,832.0
1.4125,-15232.0,-6208.0,832.0
1.415,-15232.0,-6144.0,768.0
1.4175,-15296.0,-6144.0,832.0
1.42,-15296.0,-6080.0,768.0
1.4225,-15360.0,-6080.0,832.0
1.425,-15424.0,-6016.0,832.0
1.4275,-15360.0,-5952.0,832.0
1.43,-15360.0,-6016.0,832.0
1.4325,-15360.0,-5952.0,896.0
1.435,-15360.0,-5952.0,960.0
1.4375,-15360.0,-5888.0,896.0
1.44,-15424.0,-5888.0,832.0
1.4425,-15424.0,-5952.0,896.0
1.445,-15424.0,-6016.0,960.0
1.4475,-15424.0,-5952.0,960.0
1.45,-15424.0,-5952.0,960.0
1.4525,-15360.0,-6016.0,832.0
1.455,-15424.0,-5952.0,960.0
1.4575,-15424.0,-5952.0,832.0
1.46,-15424.0,-6016.0,896.0
1.4625,-15296.0,-6016.0,832.0
1.465,-15296.0,-6080.0,896.0
1.4675,-15296.0,-6080.0,896.0
1.47,-15296.0,-6080.0,896.0
1.4725,-15232.0,-6080.0,832.0
1.475,-15232.0,-6080.0,832.0
1.4775,-15232.0,-6080.0,768.0
1.48,-15296.0,-6144.0,832.0
1.4825,-15232.0,-6144.0,832.0
1.485,-15232.0,-6080.0,768.0
1.4875,-15232.0,-6080.0,832.0
1.49,-15232.0,-6080.0,768.0
1.4925,-15296.0,-6080.0,832.0
1.495,-15232.0,-6016.0,832.0
1.4975,-15232.0,-6080.0,896.0
1.5,-15296.0,-6144.0,832.0
1.5025,-15296.0,-6144.0,896.0
1.505,-15360.0,-6144.0,768.0
1.5075,-15296.0,-6144.0,768.0
1.51,-15296.0,-6208.0,768.0
1.5125,-15296.0,-6208.0,704.0
1.515,-15168.0,-6208.0,704.0
1.5175,-15232.0,-6208.0,768.0
1.52,-15232.0,-6336.0,832.0
1.5225,-15232.0,-6336.0,832.0
1.525,-15232.0,-6400.0,832.0
1.5275,-15232.0,-6336.0,832.0
1.53,-15232.0,-6336.0,832.0
1.5325,-15232.0,-6336.0,832.0
1.535,-15232.0,-6336.0,832.0
1.5375,-15232.0,-6336.0,832.0
1.54,-15168.0,-6336.0,896.0
1.5425,-15168.0,-6336.0,896.0
1.545,-15232.0,-6272.0,832.0
1.5475,-15168.0,-6272.0,832.0
1.55,-15168.0,-6272.0,832.0
1.5525,-15168.0,-6272.0,768.0
1.555,-15168.0,-6208.0,768.0
1.5575,-15168.0,-6272.0,832.0
1.56,-15232.0,-6272.0,832.0
1.5625,-15168.0,-6336.0,768.0
1.565,-15168.0,-6336.0,768.0
1.5675,-15232.0,-6336.0,768.0
1.57,-15168.0,-6336.0,768.0
1.5725,-15168.0,-6400.0,704.0
1.575,-15168.0,-6336.0,768.0
1.5775,-15168.0,-6336.0,832.0
1.58,-15168.0,-6336.0,832.0
1.5825,-15296.0,-6336.0,768.0
1.585,-15232.0,-6336.0,704.0
1.5875,-15232.0,-6336.0,704.0
1.59,-15232.0,-6336.0,640.0
1.5925,-15232.0,-6336.0,704.0
1.595,-15232.0,-6400.0,704.0
1.5975,-15232.0,-6400.0,704.0
1.6,-15296.0,-6400.0,704.0
1.6025,-15360.0,-6400.0,768.0
1.605,-15296.0,-6464.0,768.0
1.6075,-15296.0,-6400.0,768.0
1.61,-15296.0,-6336.0,832.0
1.6125,-15296.0,-6336.0,832.0
1.615,-15296.0,-6400.0,768.0
1.6175,-15360.0,-6336.0,768.0
1.62,-15360.0,-6336.0,768.0
1.6225,-15360.0,-6336.0,768.0
1.625,-15360.0,-6336.0,768.0
1.6275,-15360.0,-6336.0,768.0
1.63,-15296.0,-6272.0,704.0
1.6325,-15360.0,-6336.0,704.0
1.635,-15360.0,-6336.0,768.0
1.6375,-15424.0,-6464.0,704.0
1.64,-15360.0,-6464.0,704.0
1.6425,-15296.0,-6528.0,704.0
1.645,-15360.0,-6528.0,640.0
1.6475,-15360.0,-6528.0,640.0
1.65,-15360.0,-6528.0,576.0
1.6525,-15360.0,-6464.0,640.0
1.655,-15296.0,-6528.0,640.0
1.6575,-15360.0,-6592.0,640.0
1.66,-15360.0,-6592.0,768.0
1.6625,-15360.0,-6528.0,704.0
1.665,-15296.0,-6592.0,704.0
1.6675,-15232.0,-6528.0,768.0
1.67,-15232.0,-6464.0,832.0
1.6725,-15232.0,-6528.0,832.0
1.675,-15232.0,-6592.0,832.0
1.6775,-15232.0,-6592.0,768.0
1.68,-15168.0,-6656.0,896.0
1.6825,-15168.0,-6656.0,896.0
1.685,-15232.0,-6720.0,896.0
1.6875,-15168.0,-6592.0,960.0
1.69,-15232.0,-6592.0,960.0
1.6925,-15232.0,-6592.0,832.0
1.695,-15232.0,-6592.0,832.0
1.6975,-15296.0,-6592.0,896.0
1.7,-15296.0,-6592.0,832.0
1.7025,-15296.0,-6592.0,768.0
1.705,-15360.0,-6592.0,768.0
1.7075,-15360.0,-6592.0,704.0
1.71,-15424.0,-6528.0,640.0
1.7125,-15488.0,-6528.0,576.0
1.715,-15552.0,-6528.0,512.0
1.7175,-15616.0,-6464.0,576.0
1.72,-15616.0,-6400.0,448.0
1.7225,-15680.0,-6464.0,448.0
1.725,-15680.0,-6528.0,448.0
1.7275,-15744.0,-6528.0,384.0
1.73,-15744.0,-6528.0,384.0
1.7325,-15744.0,-6528.0,448.0
1.735,-15808.0,-6528.0,448.0
1.7375,-15872.0,-6464.0,448.0
1.74,-15808.0,-6464.0,512.0
1.7425,-15872.0,-6464.0,512.0
1.745,-15808.0,-6400.0,576.0
1.7475,-15808.0,-6400.0,576.0
1.75,-15808.0,-6400.0,576.0
1.7525,-15744.0,-6336.0,704.0
1.755,-15808.0,-6336.0,704.0
1.7575,-15808.0,-6272.0,768.0
1.76,-15616.0,-6208.0,832.0
1.7625,-15616.0,-6144.0,832.0
1.765,-15616.0,-6080.0,832.0
1.7675,-15552.0,-6080.0,832.0
1.77,-15488.0,-6080.0,896.0
1.7725,-15488.0,-5952.0,832.0
1.775,-15424.0,-5952.0,896.0
1.7775,-15360.0,-5952.0,896.0
1.78,-15360.0,-6016.0,896.0
1.7825,-15360.0,-6016.0,896.0
1.785,-15232.0,-6016.0,960.0
1.7875,-15232.0,-5952.0,960.0
1.79,-15296.0,-5952.0,896.0
1.7925,-15232.0,-5888.0,896.0
1.795,-15168.0,-5952.0,832.0
1.7975,-15168.0,-5952.0,768.0
1.8,-15104.0,-5888.0,832.0
1.8025,-15104.0,-5952.0,768.0
1.805,-15168.0,-6016.0,832.0
1.8075,-15168.0,-6080.0,832.0
1.81,-15104.0,-6080.0,832.0
1.8125,-15104.0,-6144.0,768.0
1.815,-15104.0,-6208.0,768.0
1.8175,-15104.0,-6144.0,704.0
1.82,-15104.0,-6144.0,768.0
1.8225,-15104.0,-6144.0,704.0
1.825,-15104.0,-6208.0,640.0
1.8275,-15104.0,-6208.0,640.0
1.83,-15040.0,-6272.0,704.0
1.8325,-15104.0,-6272.0,640.0
1.835,-15168.0,-6272.0,640.0
1.8375,-15104.0,-6272.0,640.0
1.84,-15168.0,-6336.0,640.0
1.8425,-15168.0,-6400.0,640.0
1.845,-15168.0,-6336.0,640.0
1.8475,-15168.0,-6272.0,640.0
1.85,-15168.0,-6336.0,640.0
1.8525,-15232.0,-6272.0,640.0
1.855,-15232.0,-6272.0,704.0
1.8575,-15232.0,-6272.0,768.0
1.86,-15232.0,-6272.0,704.0
1.8625,-15232.0,-6272.0,704.0
1.865,-15232.0,-6208.0,768.0
1.8675,-15296.0,-6208.0,704.0
1.87,-15296.0,-6208.0,704.0
1.8725,-15360.0,-6144.0,768.0
1.875,-15360.0,-6144.0,768.0
1.8775,-15360.0,-6144.0,768.0
1.88,-15360.0,-6080.0,768.0
1.8825,-15360.0,-6144.0,832.0
1.885,-15424.0,-6080.0,768.0
1.8875,-15488.0,-6016.0,768.0
1.89,-15488.0,-6016.0,832.0
1.8925,-15488.0,-5952.0,832.0
1.895,-15552.0,-6016.0,832.0
1.8975,-15552.0,-5888.0,896.0
1.9,-15552.0,-5952.0,896.0
1.9025,-15616.0,-5888.0,960.0
1.905,-15552.0,-5888.0,1024.0
1.9075,-15552.0,-5888.0,1088.0
1.91,-15552.0,-5888.0,1024.0
1.9125,-15552.0,-5888.0,1024.0
1.915,-15552.0,-5888.0,1024.0
1.9175,-15616.0,-5952.0,1024.0
1.92,-15552.0,-5952.0,960.0
1.9225,-15616.0,-5888.0,960.0
1.925,-15616.0,-5888.0,960.0
1.9275,-15616.0,-5888.0,960.0
1.93,-15680.0,-5888.0,1024.0
1.9325,-15616.0,-5888.0,960.0
1.935,-15552.0,-5824.0,960.0
1.9375,-15552.0,-5888.0,896.0
1.94,-15552.0,-5888.0,832.0
1.9425,-15616.0,-5888.0,832.0
1.945,-15616.0,-5824.0,832.0
1.9475,-15488.0,-5888.0,832.0
1.95,-15552.0,-5888.0,832.0
1.9525,-15552.0,-5888.0,832.0
1.955,-15616.0,-5888.0,832.0
1.9575,-15616.0,-5952.0,832.0
1.96,-15616.0,-5952.0,832.0
1.9625,-15552.0,-5888.0,832.0
1.965,-15552.0,-5952.0,960.0
1.9675,-15488.0,-5888.0,960.0
1.97,-15488.0,-5888.0,1024.0
1.9725,-15424.0,-5888.0,1088.0
1.975,-15424.0,-5952.0,960.0
1.9775,-15424.0,-5952.0,960.0
1.98,-15296.0,-5952.0,960.0
1.9825,-15296.0,-5952.0,960.0
1.985,-15296.0,-5952.0,960.0
1.9875,-15232.0,-6016.0,960.0
1.99,-15232.0,-5952.0,1024.0
1.9925,-15232.0,-5952.0,960.0
1.995,-15168.0,-5952.0,960.0
1.9975,-15168.0,-5952.0,1024.0
2.0,-15104.0,-6016.0,1024.0
2.0025,-15040.0,-5952.0,1088.0
2.005,-15040.0,-6016.0,1024.0
2.0075,-15040.0,-5952.0,960.0
2.01,-14976.0,-6016.0,1024.0
2.0125,-15040.0,-6016.0,960.0
2.015,-15040.0,-6016.0,896.0
2.0175,-14976.0,-6016.0,896.0
2.02,-14976.0,-6080.0,1024.0
2.0225,-14912.0,-6144.0,1024.0
2.025,-14976.0,-6144.0,1024.0
2.0275,-14976.0,-6144.0,1024.0
2.03,-14976.0,-6144.0,1024.0
2.0325,-14912.0,-6208.0,1024.0
2.035,-14912.0,-6144.0,960.0
2.0375,-14912.0,-6144.0,960.0
2.04,-14912.0,-6208.0,960.0
2.0425,-14976.0,-6208.0,1088.0
2.045,-14976.0,-6144.0,1024.0
2.0475,-14912.0,-6144.0,1024.0
2.05,-14976.0,-6144.0,1088.0
2.0525,-15040.0,-6080.0,1088.0
2.055,-15040.0,-6080.0,1152.0
2.0575,-15104.0,-6144.0,1152.0
2.06,-15104.0,-6144.0,1152.0
2.0625,-15040.0,-6144.0,1024.0
2.065,-15104.0,-6144.0,1024.0
2.0675,-15104.0,-6144.0,1024.0
2.07,-15168.0,-6144.0,1024.0
2.0725,-15168.0,-6208.0,960.0
2.075,-15232.0,-6272.0,960.0
2.0775,-15232.0,-6272.0,960.0
2.08,-15296.0,-6336.0,960.0
2.0825,-15360.0,-6336.0,960.0
2.085,-15360.0,-6400.0,1024.0
2.0875,-15424.0,-6400.0,960.0
2.09,-15424.0,-6336.0,960.0
2.0925,-15424.0,-6336.0,960.0
2.095,-15488.0,-6272.0,896.0
2.0975,-15360.0,-6272.0,960.0
2.1,-15360.0,-6208.0,960.0
2.1025,-15424.0,-6208.0,896.0
2.105,-15360.0,-6144.0,896.0
2.1075,-15424.0,-6144.0,960.0
2.11,-15360.0,-6080.0,960.0
2.1125,-15424.0,-6080.0,960.0
2.115,-15424.0,-6080.0,960.0
2.1175,-15424.0,-6016.0,960.0
2.12,-15424.0,-6080.0,960.0
2.1225,-15424.0,-6080.0,960.0
2.125,-15424.0,-6144.0,832.0
2.1275,-15360.0,-6080.0,768.0
2.13,-15360.0,-6144.0,896.0
2.1325,-15360.0,-6208.0,832.0
2.135,-15360.0,-6144.0,832.0
2.1375,-15360.0,-6144.0,768.0
2.14,-15296.0,-6080.0,768.0
2.1425,-15296.0,-6080.0,768.0
2.145,-15232.0,-6080.0,768.0
2.1475,-15296.0,-6144.0,768.0
2.15,-15296.0,-6144.0,768.0
2.1525,-15296.0,-6080.0,768.0
2.155,-15424.0,-6080.0,768.0
2.1575,-15360.0,-6080.0,768.0
2.16,-15360.0,-6144.0,704.0
2.1625,-15360.0,-6016.0,704.0
2.165,-15360.0,-5952.0,768.0
2.1675,-15296.0,-5888.0,768.0
2.17,-15296.0,-5952.0,704.0
2.1725,-15424.0,-5952.0,640.0
2.175,-15424.0,-6080.0,704.0
2.1775,-15424.0,-5952.0,704.0
2.18,-15360.0,-5952.0,768.0
2.1825,-15360.0,-6016.0,768.0
2.185,-15360.0,-6016.0,768.0
2.1875,-15360.0,-5888.0,832.0
2.19,-15296.0,-5952.0,768.0
2.1925,-15296.0,-5952.0,768.0
2.195,-15296.0,-5952.0,768.0
2.1975,-15296.0,-5952.0,768.0
2.2,-15360.0,-5888.0,768.0
2.2025,-15296.0,-5824.0,832.0
2.205,-15296.0,-5824.0,832.0
2.2075,-15296.0,-5824.0,768.0
2.21,-15296.0,-5888.0,704.0
2.2125,-15232.0,-5888.0,704.0
2.215,-15232.0,-5888.0,704.0
2.2175,-15168.0,-5888.0,768.0
2.22,-15168.0,-5888.0,768.0
2.2225,-15104.0,-5888.0,768.0
2.225,-15104.0,-5824.0,768.0
2.2275,-15168.0,-5824.0,768.0
2.23,-15168.0,-5888.0,640.0
2.2325,-15104.0,-5952.0,640.0
2.235,-15104.0,-5952.0,640.0
2.2375,-15104.0,-6016.0,640.0
2.24,-15040.0,-6080.0,576.0
2.2425,-15104.0,-6080.0,640.0
2.245,-15040.0,-6016.0,640.0
2.2475,-15040.0,-6080.0,576.0
2.25,-14976.0,-6144.0,576.0
2.2525,-14976.0,-6080.0,576.0
2.255,-15040.0,-6080.0,576.0
2.2575,-15040.0,-6080.0,576.0
2.26,-15104.0,-6016.0,640.0
2.2625,-15040.0,-6080.0,576.0
2.265,-15104.0,-6080.0,576.0
2.2675,-15040.0,-6016.0,640.0
2.27,-15040.0,-6080.0,576.0
2.2725,-15040.0,-6016.0,512.0
2.275,-15040.0,-6016.0,576.0
2.2775,-15040.0,-6016.0,576.0
2.28,-15040.0,-6016.0,512.0
2.2825,-15040.0,-6080.0,512.0
2.285,-15104.0,-6080.0,576.0
2.2875,-15104.0,-6080.0,512.0
2.29,-15104.0,-6080.0,512.0
2.2925,-15104.0,-6016.0,512.0
2.295,-15168.0,-6016.0,576.0
2.2975,-15232.0,-6016.0,576.0
2.3,-15168.0,-6016.0,576.0
2.3025,-15232.0,-5952.0,512.0
2.305,-15168.0,-6080.0,512.0
2.3075,-15232.0,-6080.0,512.0
2.31,-15168.0,-6080.0,576.0
2.3125,-15168.0,-6080.0,576.0
2.315,-15168.0,-6080.0,512.0
2.3175,-15168.0,-6080.0,576.0
2.32,-15232.0,-6080.0,576.0
2.3225,-15232.0,-6080.0,576.0
2.325,-15296.0,-6144.0,576.0
2.3275,-15296.0,-6080.0,576.0
2.33,-15296.0,-6016.0,576.0
2.3325,-15296.0,-6016.0,576.0
2.335,-15296.0,-6016.0,576.0
2.3375,-15296.0,-6016.0,576.0
2.34,-15232.0,-6016.0,640.0
2.3425,-15232.0,-6016.0,512.0
2.345,-15232.0,-5888.0,512.0
2.3475,-15296.0,-5952.0,512.0
2.35,-15232.0,-5952.0,576.0
2.3525,-15232.0,-5952.0,576.0
2.355,-15296.0,-5952.0,640.0
2.3575,-15296.0,-6016.0,576.0
2.36,-15360.0,-6016.0,576.0
2.3625,-15424.0,-6016.0,576.0
2.365,-15424.0,-6016.0,576.0
2.3675,-15424.0,-6016.0,576.0
2.37,-15424.0,-6016.0,576.0
2.3725,-15360.0,-6016.0,576.0
2.375,-15360.0,-6016.0,640.0
2.3775,-15424.0,-6016.0,640.0
2.38,-15424.0,-6016.0,640.0
2.3825,-15488.0,-6080.0,640.0
2.385,-15424.0,-6080.0,640.0
2.3875,-15424.0,-6016.0,576.0
2.39,-15424.0,-6080.0,576.0
2.3925,-15360.0,-6080.0,640.0
2.395,-15424.0,-6016.0,576.0
2.3975,-15424.0,-6080.0,576.0
2.4,-15488.0,-6080.0,704.0
2.4025,-15488.0,-6016.0,704.0
2.405,-15488.0,-6016.0,704.0
2.4075,-15424.0,-6016.0,576.0
2.41,-15488.0,-6016.0,576.0
2.4125,-15424.0,-6016.0,576.0
2.415,-15488.0,-6080.0,704.0
2.4175,-15424.0,-6144.0,704.0
2.42,-15424.0,-6144.0,704.0
2.4225,-15424.0,-6144.0,768.0
2.425,-15488.0,-6144.0,768.0
2.4275,-15424.0,-6080.0,704.0
2.43,-15424.0,-6080.0,640.0
2.4325,-15424.0,-6080.0,640.0
2.435,-15424.0,-6080.0,640.0
2.4375,-15360.0,-6144.0,704.0
2.44,-15360.0,-6144.0,704.0
2.4425,-15424.0,-6080.0,704.0
2.445,-15424.0,-6016.0,640.0
2.4475,-15424.0,-6080.0,640.0
2.45,-15424.0,-6016.0,704.0
2.4525,-15424.0,-6144.0,704.0
2.455,-15488.0,-6144.0,704.0
2.4575,-15488.0,-6144.0,704.0
2.46,-15424.0,-6080.0,704.0
2.4625,-15424.0,-6208.0,704.0
2.465,-15360.0,-6144.0,768.0
2.4675,-15424.0,-6144.0,704.0
2.47,-15424.0,-6144.0,768.0
2.4725,-15424.0,-6144.0,768.0
2.475,-15488.0,-6144.0,768.0
2.4775,-15424.0,-6144.0,832.0
2.48,-15424.0,-6080.0,832.0
2.4825,-15424.0,-6144.0,832.0
2.485,-15488.0,-6144.0,832.0
2.4875,-15552.0,-6144.0,768.0
2.49,-15616.0,-6080.0,768.0
2.4925,-15552.0,-6080.0,768.0
2.495,-15552.0,-6016.0,768.0
2.4975,-15552.0,-6016.0,832.0
2.5,-15552.0,-6080.0,832.0
2.5025,-15552.0,-6080.0,896.0
2.505,-15616.0,-6080.0,896.0
2.5075,-15552.0,-6080.0,896.0
2.51,-15552.0,-6144.0,896.0
2.5125,-15552.0,-6144.0,896.0
2.515,-15552.0,-6080.0,896.0
2.5175,-15488.0,-6080.0,896.0
2.52,-15552.0,-6144.0,832.0
2.5225,-15552.0,-6144.0,832.0
2.525,-15552.0,-6208.0,832.0
2.5275,-15552.0,-6208.0,832.0
2.53,-15488.0,-6144.0,768.0
2.5325,-15488.0,-6208.0,768.0
2.535,-15488.0,-6208.0,832.0
2.5375,-15552.0,-6208.0,768.0
2.54,-15552.0,-6208.0,832.0
2.5425,-15616.0,-6272.0,832.0
2.545,-15552.0,-6272.0,768.0
2.5475,-15488.0,-6336.0,832.0
2.55,-15488.0,-6272.0,768.0
2.5525,-15552.0,-6272.0,768.0
2.555,-15488.0,-6208.0,832.0
2.5575,-15488.0,-6208.0,832.0
2.56,-15360.0,-6144.0,832.0
2.5625,-15424.0,-6144.0,832.0
2.565,-15424.0,-6144.0,832.0
2.5675,-15360.0,-6144.0,960.0
2.57,-15424.0,-6144.0,1024.0
2.5725,-15360.0,-6144.0,1024.0
2.575,-15360.0,-6144.0,1088.0
2.5775,-15296.0,-6144.0,1088.0
2.58,-15360.0,-6144.0,1088.0
2.5825,-15360.0,-6144.0,1088.0
2.585,-15360.0,-6080.0,1088.0
2.5875,-15360.0,-6080.0,1088.0
2.59,-15360.0,-6080.0,1088.0
2.5925,-15424.0,-6080.0,1088.0
2.595,-15424.0,-6080.0,1152.0
2.5975,-15424.0,-6080.0,1088.0
2.6,-15360.0,-6016.0,1088.0
2.6025,-15360.0,-6016.0,1088.0
2.605,-15360.0,-6080.0,1024.0
2.6075,-15360.0,-6080.0,1024.0
2.61,-15360.0,-6016.0,960.0
2.6125,-15360.0,-6016.0,960.0
2.615,-15360.0,-6080.0,960.0
2.6175,-15424.0,-6080.0,960.0
2.62,-15424.0,-6080.0,896.0
2.6225,-15424.0,-6080.0,896.0
2.625,-15424.0,-6144.0,960.0
2.6275,-15424.0,-6144.0,960.0
2.63,-15424.0,-6080.0,896.0
2.6325,-15488.0,-6080.0,960.0
2.635,-15424.0,-6016.0,960.0
2.6375,-15488.0,-6016.0,1024.0
2.64,-15488.0,-5952.0,960.0
2.6425,-15360.0,-6016.0,960.0
2.645,-15360.0,-6016.0,1024.0
2.6475,-15360.0,-6080.0,1088.0
2.65,-15360.0,-6016.0,1024.0
2.6525,-15360.0,-6080.0,1088.0
2.655,-15296.0,-6080.0,960.0
2.6575,-15232.0,-6080.0,1024.0
2.66,-15232.0,-6080.0,1088.0
2.6625,-15232.0,-6016.0,1152.0
2.665,-15232.0,-6016.0,1152.0
2.6675,-15296.0,-6016.0,1152.0
2.67,-15296.0,-6016.0,1152.0
2.6725,-15296.0,-6016.0,1152.0
2.675,-15296.0,-5952.0,1216.0
2.6775,-15360.0,-5952.0,1216.0
2.68,-15360.0,-5952.0,1216.0
2.6825,-15296.0,-5952.0,1152.0
2.685,-15296.0,-5888.0,1152.0
2.6875,-15360.0,-5888.0,1088.0
2.69,-15296.0,-5888.0,1152.0
2.6925,-15360.0,-5888.0,1152.0
2.695,-15296.0,-5824.0,1152.0
2.6975,-15296.0,-5824.0,1152.0
2.7,-15296.0,-5824.0,1152.0
2.7025,-15296.0,-5952.0,1152.0
2.705,-15360.0,-5888.0,1152.0
2.7075,-15296.0,-6080.0,1152.0
2.71,-15360.0,-6080.0,1152.0
2.7125,-15360.0,-6144.0,1088.0
2.715,-15424.0,-6208.0,1088.0
2.7175,-15424.0,-6144.0,1024.0
2.72,-15424.0,-6144.0,1024.0
2.7225,-15424.0,-6144.0,1024.0
2.725,-15488.0,-6144.0,1024.0
2.7275,-15488.0,-6144.0,1024.0
2.73,-15488.0,-6080.0,960.0
2.7325,-15488.0,-6080.0,1024.0
2.735,-15424.0,-6080.0,960.0
2.7375,-15488.0,-6080.0,1024.0
2.74,-15424.0,-6016.0,896.0
2.7425,-15488.0,-6080.0,960.0
2.745,-15424.0,-6016.0,1024.0
2.7475,-15424.0,-6080.0,1024.0
2.75,-15424.0,-6080.0,960.0
2.7525,-15424.0,-6080.0,960.0
2.755,-15488.0,-6080.0,960.0
2.7575,-15488.0,-6016.0,896.0
2.76,-15488.0,-6080.0,896.0
2.7625,-15552.0,-6080.0,960.0
2.765,-15488.0,-6144.0,1024.0
2.7675,-15552.0,-6144.0,1024.0
2.77,-15552.0,-6080.0,1024.0
2.7725,-15552.0,-6080.0,1024.0
2.775,-15616.0,-5952.0,1024.0
2.7775,-15680.0,-5952.0,896.0
2.78,-15680.0,-5888.0,960.0
2.7825,-15616.0,-5824.0,896.0
2.785,-15552.0,-5824.0,960.0
2.7875,-15552.0,-5824.0,960.0
2.79,-15488.0,-5824.0,1024.0
2.7925,-15552.0,-5888.0,960.0
2.795,-15552.0,-5888.0,1024.0
2.7975,-15488.0,-5888.0,960.0
2.8,-15488.0,-5952.0,960.0
2.8025,-15552.0,-6016.0,896.0
2.805,-15552.0,-6016.0,832.0
2.8075,-15552.0,-6016.0,896.0
2.81,-15488.0,-6080.0,832.0
2.8125,-15488.0,-6080.0,832.0
2.815,-15552.0,-6016.0,704.0
2.8175,-15552.0,-6016.0,704.0
2.82,-15488.0,-6016.0,640.0
2.8225,-15552.0,-6016.0,576.0
2.825,-15616.0,-5952.0,640.0
2.8275,-15616.0,-5824.0,640.0
2.83,-15616.0,-5888.0,640.0
2.8325,-15552.0,-5888.0,640.0
2.835,-15552.0,-5824.0,704.0
2.8375,-15552.0,-5760.0,576.0
2.84,-15616.0,-5696.0,640.0
2.8425,-15616.0,-5760.0,640.0
2.845,-15616.0,-5824.0,704.0
2.8475,-15616.0,-5760.0,704.0
2.85,-15616.0,-5760.0,640.0
2.8525,-15616.0,-5760.0,640.0
2.855,-15616.0,-5760.0,640.0
2.8575,-15616.0,-5760.0,704.0
2.86,-15680.0,-5760.0,768.0
2.8625,-15680.0,-5760.0,768.0
2.865,-15680.0,-5696.0,768.0
2.8675,-15680.0,-5696.0,768.0
2.87,-15680.0,-5696.0,768.0
2.8725,-15680.0,-5696.0,768.0
2.875,-15680.0,-5696.0,832.0
2.8775,-15680.0,-5632.0,832.0
2.88,-15616.0,-5632.0,832.0
2.8825,-15616.0,-5632.0,832.0
2.885,-15616.0,-5632.0,768.0
2.8875,-15616.0,-5632.0,832.0
2.89,-15616.0,-5632.0,704.0
2.8925,-15616.0,-5632.0,768.0
2.895,-15552.0,-5632.0,768.0
2.8975,-15488.0,-5632.0,704.0
2.9,-15424.0,-5696.0,640.0
2.9025,-15488.0,-5760.0,640.0
2.905,-15424.0,-5760.0,640.0
2.9075,-15360.0,-5760.0,576.0
2.91,-15424.0,-5760.0,640.0
2.9125,-15424.0,-5760.0,704.0
2.915,-15424.0,-5696.0,640.0
2.9175,-15360.0,-5696.0,640.0
2.92,-15360.0,-5760.0,640.0
2.9225,-15296.0,-5760.0,576.0
2.925,-15296.0,-5760.0,576.0
2.9275,-15296.0,-5760.0,576.0
2.93,-15296.0,-5760.0,576.0
2.9325,-15232.0,-5824.0,640.0
2.935,-15296.0,-5760.0,704.0
2.9375,-15296.0,-5696.0,640.0
2.94,-15296.0,-5696.0,576.0
2.9425,-15296.0,-5632.0,576.0
2.945,-15360.0,-5696.0,640.0
2.9475,-15360.0,-5696.0,640.0
2.95,-15296.0,-5632.0,640.0
2.9525,-15424.0,-5568.0,640.0
2.955,-15360.0,-5568.0,640.0
2.9575,-15424.0,-5632.0,576.0
2.96,-15424.0,-5632.0,640.0
2.9625,-15424.0,-5632.0,640.0
2.965,-15488.0,-5632.0,704.0
2.9675,-15424.0,-5696.0,640.0
2.97,-15488.0,-5760.0,640.0
2.9725,-15488.0,-5760.0,640.0
2.975,-15488.0,-5824.0,576.0
2.9775,-15488.0,-5760.0,576.0
2.98,-15616.0,-5760.0,576.0
2.9825,-15552.0,-5696.0,640.0
2.985,-15552.0,-5760.0,576.0
2.9875,-15552.0,-5696.0,640.0
2.99,-15552.0,-5696.0,576.0
2.9925,-15552.0,-5696.0,576.0
2.995,-15552.0,-5696.0,576.0
2.9975,-15616.0,-5760.0,576.0
3.0,-15552.0,-5696.0,704.0
3.0025,-15552.0,-5760.0,768.0
3.005,-15552.0,-5760.0,832.0
3.0075,-15552.0,-5760.0,768.0
3.01,-15616.0,-5760.0,768.0
3.0125,-15552.0,-5760.0,704.0
3.015,-15488.0,-5760.0,768.0
3.0175,-15424.0,-5760.0,768.0
3.02,-15360.0,-5696.0,768.0
3.0225,-15360.0,-5696.0,832.0
3.025,-15488.0,-5696.0,832.0
3.0275,-15488.0,-5696.0,832.0
3.03,-15488.0,-5760.0,832.0
3.0325,-15488.0,-5824.0,832.0
3.035,-15424.0,-5760.0,832.0
3.0375,-15424.0,-5696.0,832.0
3.04,-15424.0,-5824.0,768.0
3.0425,-15424.0,-5760.0,704.0
3.045,-15424.0,-5760.0,704.0
3.0475,-15424.0,-5760.0,704.0
3.05,-15424.0,-5888.0,704.0
3.0525,-15360.0,-5824.0,704.0
3.055,-15360.0,-5824.0,704.0
3.0575,-15360.0,-5888.0,704.0
3.06,-15424.0,-5888.0,704.0
3.0625,-15360.0,-5824.0,704.0
3.065,-15360.0,-5888.0,768.0
3.0675,-15360.0,-5888.0,704.0
3.07,-15296.0,-5888.0,704.0
3.0725,-15296.0,-5952.0,768.0
3.075,-15360.0,-5952.0,832.0
3.0775,-15296.0,-5952.0,768.0
3.08,-15296.0,-6016.0,832.0
3.0825,-15360.0,-5952.0,832.0
3.085,-15296.0,-6016.0,832.0
3.0875,-15296.0,-5952.0,896.0
3.09,-15360.0,-6016.0,832.0
3.0925,-15296.0,-6016.0,896.0
3.095,-15296.0,-5952.0,896.0
3.0975,-15232.0,-5952.0,832.0
3.1,-15232.0,-5888.0,896.0
3.1025,-15296.0,-5824.0,832.0
3.105,-15232.0,-5888.0,896.0
3.1075,-15168.0,-5888.0,896.0
3.11,-15168.0,-5888.0,960.0
3.1125,-15168.0,-5952.0,896.0
3.115,-15232.0,-5888.0,896.0
3.1175,-15296.0,-5888.0,896.0
3.12,-15232.0,-5888.0,896.0
3.1225,-15232.0,-5888.0,896.0
3.125,-15232.0,-5952.0,832.0
3.1275,-15232.0,-5952.0,896.0
3.13,-15232.0,-5952.0,896.0
3.1325,-15168.0,-5952.0,960.0
3.135,-15168.0,-5952.0,832.0
3.1375,-15232.0,-6016.0,960.0
3.14,-15168.0,-6016.0,960.0
3.1425,-15168.0,-6080.0,960.0
3.145,-15168.0,-6080.0,896.0
3.1475,-15168.0,-6080.0,832.0
3.15,-15168.0,-6080.0,832.0
3.1525,-15232.0,-6080.0,832.0
3.155,-15296.0,-6080.0,896.0
3.1575,-15296.0,-6080.0,960.0
3.16,-15296.0,-6144.0,960.0
3.1625,-15296.0,-6080.0,832.0
3.165,-15232.0,-6144.0,768.0
3.1675,-15232.0,-6144.0,896.0
3.17,-15232.0,-6144.0,832.0
3.1725,-15232.0,-6144.0,896.0
3.175,-15296.0,-6208.0,960.0
3.1775,-15296.0,-6208.0,896.0
3.18,-15360.0,-6272.0,960.0
3.1825,-15360.0,-6272.0,960.0
3.185,-15360.0,-6272.0,896.0
3.1875,-15360.0,-6272.0,896.0
3.19,-15296.0,-6272.0,832.0
3.1925,-15296.0,-6272.0,896.0
3.195,-15232.0,-6272.0,896.0
3.1975,-15296.0,-6272.0,832.0
3.2,-15232.0,-6272.0,832.0
3.2025,-15232.0,-6272.0,896.0
3.205,-15232.0,-6272.0,832.0
3.2075,-15168.0,-6208.0,768.0
3.21,-15232.0,-6208.0,768.0
3.2125,-15232.0,-6144.0,768.0
3.215,-15232.0,-6208.0,768.0
3.2175,-15296.0,-6272.0,832.0
3.22,-15296.0,-6208.0,768.0
3.2225,-15360.0,-6208.0,832.0
3.225,-15360.0,-6208.0,832.0
3.2275,-15360.0,-6144.0,832.0
3.23,-15360.0,-6208.0,832.0
3.2325,-15360.0,-6144.0,832.0
3.235,-15488.0,-6080.0,896.0
3.2375,-15552.0,-6080.0,960.0
3.24,-15488.0,-6080.0,832.0
3.2425,-15424.0,-6080.0,832.0
3.245,-15424.0,-6016.0,896.0
3.2475,-15424.0,-6016.0,960.0
3.25,-15488.0,-6080.0,960.0
3.2525,-15488.0,-6080.0,960.0
3.255,-15488.0,-6080.0,1024.0
3.2575,-15552.0,-6080.0,960.0
3.26,-15488.0,-6080.0,960.0
3.2625,-15488.0,-6144.0,1024.0
3.265,-15552.0,-6144.0,1024.0
3.2675,-15552.0,-6144.0,1024.0
3.27,-15552.0,-6144.0,960.0
3.2725,-15616.0,-6080.0,1024.0
3.275,-15552.0,-6080.0,960.0
3.2775,-15552.0,-6080.0,1024.0
3.28,-15552.0,-6016.0,960.0
3.2825,-15552.0,-6016.0,896.0
3.285,-15552.0,-6016.0,960.0
3.2875,-15488.0,-5952.0,960.0
3.29,-15488.0,-5952.0,960.0
3.2925,-15488.0,-6016.0,960.0
3.295,-15552.0,-6016.0,896.0
3.2975,-15552.0,-6144.0,768.0
3.3,-15552.0,-6080.0,832.0
3.3025,-15616.0,-6144.0,768.0
3.305,-15616.0,-6080.0,768.0
3.3075,-15616.0,-6080.0,768.0
3.31,-15552.0,-6080.0,768.0
3.3125,-15552.0,-6144.0,832.0
3.315,-15552.0,-6080.0,832.0
3.3175,-15552.0,-6016.0,832.0
3.32,-15616.0,-6016.0,768.0
3.3225,-15552.0,-6016.0,832.0
3.325,-15552.0,-6016.0,832.0
3.3275,-15488.0,-6080.0,896.0
3.33,-15424.0,-6016.0,960.0
3.3325,-15424.0,-6080.0,960.0
3.335,-15360.0,-6016.0,960.0
3.3375,-15360.0,-6016.0,1024.0
3.34,-15296.0,-6016.0,960.0
3.3425,-15296.0,-6080.0,1024.0
3.345,-15296.0,-6080.0,1088.0
3.3475,-15296.0,-6080.0,1088.0
3.35,-15296.0,-6016.0,1024.0
3.3525,-15296.0,-6080.0,1024.0
3.355,-15296.0,-6144.0,1088.0
3.3575,-15232.0,-6144.0,1024.0
3.36,-15232.0,-6080.0,960.0
3.3625,-15232.0,-6016.0,960.0
3.365,-15168.0,-6016.0,896.0
3.3675,-15168.0,-6080.0,896.0
3.37,-15168.0,-6080.0,960.0
3.3725,-15168.0,-6080.0,960.0
3.375,-15168.0,-6016.0,896.0
3.3775,-15168.0,-6016.0,960.0
3.38,-15232.0,-5952.0,960.0
3.3825,-15168.0,-5952.0,960.0
3.385,-15168.0,-5952.0,960.0
3.3875,-15232.0,-5888.0,960.0
3.39,-15168.0,-5888.0,960.0
3.3925,-15168.0,-5888.0,960.0
3.395,-15232.0,-5952.0,1024.0
3.3975,-15232.0,-5952.0,1024.0
3.4,-15232.0,-5952.0,1024.0
3.4025,-15296.0,-5952.0,1088.0
3.405,-15232.0,-5952.0,960.0
3.4075,-15168.0,-6016.0,960.0
3.41,-15232.0,-6016.0,960.0
3.4125,-15232.0,-6080.0,896.0
3.415,-15232.0,-6080.0,896.0
3.4175,-15232.0,-6016.0,832.0
3.42,-15232.0,-6080.0,832.0
3.4225,-15296.0,-6080.0,832.0
3.425,-15296.0,-6016.0,768.0
3.4275,-15232.0,-6016.0,832.0
3.43,-15232.0,-6016.0,768.0
3.4325,-15232.0,-5952.0,768.0
3.435,-15232.0,-6016.0,832.0
3.4375,-15360.0,-6016.0,832.0
3.44,-15360.0,-6016.0,832.0
3.4425,-15360.0,-5952.0,832.0
3.445,-15360.0,-6016.0,768.0
3.4475,-15360.0,-6016.0,832.0
3.45,-15424.0,-5952.0,768.0
3.4525,-15360.0,-6016.0,832.0
3.455,-15424.0,-6016.0,832.0
3.4575,-15488.0,-6016.0,768.0
3.46,-15424.0,-5952.0,832.0
3.4625,-15424.0,-5952.0,832.0
3.465,-15424.0,-5888.0,768.0
3.4675,-15488.0,-5952.0,768.0
3.47,-15552.0,-5888.0,704.0
3.4725,-15488.0,-5888.0,704.0
3.475,-15552.0,-5888.0,768.0
3.4775,-15552.0,-5824.0,832.0
3.48,-15552.0,-5824.0,832.0
3.4825,-15552.0,-5824.0,768.0
3.485,-15616.0,-5824.0,704.0
3.4875,-15616.0,-5824.0,704.0
3.49,-15616.0,-5824.0,768.0
3.4925,-15680.0,-5824.0,704.0
3.495,-15616.0,-5952.0,704.0
3.4975,-15552.0,-5952.0,704.0
3.5,-15552.0,-5888.0,704.0
3.5025,-15552.0,-5888.0,704.0
3.505,-15488.0,-5888.0,640.0
3.5075,-15552.0,-5952.0,704.0
3.51,-15552.0,-5952.0,704.0
3.5125,-15552.0,-5952.0,704.0
3.515,-15488.0,-5888.0,704.0
3.5175,-15552.0,-5952.0,704.0
3.52,-15616.0,-5888.0,704.0
3.5225,-15680.0,-5888.0,768.0
3.525,-15616.0,-5888.0,768.0
3.5275,-15616.0,-5824.0,704.0
3.53,-15616.0,-5888.0,704.0
3.5325,-15616.0,-5824.0,576.0
3.535,-15616.0,-5824.0,640.0
3.5375,-15616.0,-5824.0,704.0
3.54,-15616.0,-5760.0,768.0
3.5425,-15552.0,-5760.0,768.0
3.545,-15552.0,-5824.0,704.0
3.5475,-15616.0,-5760.0,768.0
3.55,-15616.0,-5824.0,768.0
3.5525,-15616.0,-5824.0,832.0
3.555,-15552.0,-5760.0,832.0
3.5575,-15616.0,-5760.0,768.0
3.56,-15552.0,-5760.0,832.0
3.5625,-15552.0,-5760.0,832.0
3.565,-15552.0,-5824.0,768.0
3.5675,-15552.0,-5760.0,768.0
3.57,-15552.0,-5824.0,832.0
3.5725,-15552.0,-5760.0,768.0
3.575,-15488.0,-5824.0,768.0
3.5775,-15424.0,-5760.0,704.0
3.58,-15424.0,-5824.0,704.0
3.5825,-15488.0,-5824.0,704.0
3.585,-15488.0,-5824.0,768.0
3.5875,-15488.0,-5824.0,768.0
3.59,-15424.0,-5760.0,768.0
3.5925,-15424.0,-5760.0,768.0
3.595,-15488.0,-5824.0,768.0
3.5975,-15424.0,-5824.0,704.0
3.6,-15488.0,-5760.0,704.0
3.6025,-15424.0,-5696.0,768.0
3.605,-15424.0,-5696.0,768.0
3.6075,-15424.0,-5760.0,768.0
3.61,-15488.0,-5760.0,832.0
3.6125,-15424.0,-5760.0,768.0
3.615,-15424.0,-5760.0,832.0
3.6175,-15424.0,-5824.0,768.0
3.62,-15424.0,-5824.0,768.0
3.6225,-15424.0,-5824.0,768.0
3.625,-15488.0,-5888.0,832.0
3.6275,-15488.0,-5888.0,768.0
3.63,-15488.0,-5824.0,768.0
3.6325,-15424.0,-5824.0,832.0
3.635,-15424.0,-5824.0,832.0
3.6375,-15424.0,-5888.0,768.0
3.64,-15424.0,-5888.0,768.0
3.6425,-15424.0,-5824.0,768.0
3.645,-15424.0,-5888.0,704.0
3.6475,-15360.0,-5824.0,768.0
3.65,-15360.0,-5824.0,768.0
3.6525,-15360.0,-5824.0,832.0
3.655,-15360.0,-5824.0,832.0
3.6575,-15360.0,-5824.0,832.0
3.66,-15360.0,-5824.0,832.0
3.6625,-15360.0,-5824.0,832.0
3.665,-15360.0,-5824.0,896.0
3.6675,-15424.0,-5760.0,896.0
3.67,-15360.0,-5760.0,896.0
3.6725,-15424.0,-5824.0,896.0
3.675,-15424.0,-5824.0,832.0
3.6775,-15424.0,-5824.0,832.0
3.68,-15488.0,-5824.0,832.0
3.6825,-15488.0,-5888.0,896.0
3.685,-15488.0,-5888.0,896.0
3.6875,-15424.0,-5824.0,896.0
3.69,-15424.0,-5824.0,896.0
3.6925,-15488.0,-5888.0,832.0
3.695,-15424.0,-5824.0,768.0
3.6975,-15488.0,-5824.0,768.0
3.7,-15488.0,-5824.0,768.0
3.7025,-15488.0,-5824.0,832.0
3.705,-15424.0,-5824.0,832.0
3.7075,-15360.0,-5888.0,896.0
3.71,-15424.0,-5824.0,896.0
3.7125,-15424.0,-5760.0,896.0
3.715,-15424.0,-5760.0,960.0
3.7175,-15424.0,-5824.0,960.0
3.72,-15424.0,-5760.0,896.0
3.7225,-15424.0,-5760.0,960.0
3.725,-15296.0,-5760.0,960.0
3.7275,-15424.0,-5760.0,960.0
3.73,-15360.0,-5824.0,1024.0
3.7325,-15360.0,-5760.0,1024.0
3.735,-15360.0,-5760.0,1088.0
3.7375,-15360.0,-5824.0,1024.0
3.74,-15360.0,-5824.0,896.0
3.7425,-15360.0,-5824.0,960.0
3.745,-15360.0,-5824.0,960.0
3.7475,-15360.0,-5824.0,960.0
3.75,-15360.0,-5888.0,896.0
3.7525,-15360.0,-5824.0,832.0
3.755,-15360.0,-5824.0,896.0
3.7575,-15296.0,-5824.0,896.0
3.76,-15296.0,-5888.0,960.0
3.7625,-15360.0,-5888.0,896.0
3.765,-15360.0,-5824.0,896.0
3.7675,-15360.0,-5824.0,896.0
3.77,-15360.0,-5824.0,896.0
3.7725,-15360.0,-5888.0,896.0
3.775,-15424.0,-5888.0,832.0
3.7775,-15424.0,-5888.0,832.0
3.78,-15360.0,-5888.0,832.0
3.7825,-15424.0,-5952.0,832.0
3.785,-15424.0,-5952.0,896.0
3.7875,-15424.0,-5952.0,896.0
3.79,-15424.0,-5888.0,960.0
3.7925,-15488.0,-5824.0,960.0
3.795,-15488.0,-5824.0,960.0
3.7975,-15488.0,-5824.0,960.0
3.8,-15424.0,-5824.0,960.0
3.8025,-15488.0,-5824.0,1024.0
3.805,-15424.0,-5888.0,960.0
3.8075,-15424.0,-5888.0,960.0
3.81,-15424.0,-5888.0,1024.0
3.8125,-15424.0,-5888.0,960.0
3.815,-15488.0,-5888.0,960.0
3.8175,-15488.0,-5888.0,960.0
3.82,-15424.0,-5888.0,960.0
3.8225,-15424.0,-5952.0,896.0
3.825,-15424.0,-5952.0,960.0
3.8275,-15488.0,-6016.0,896.0
3.83,-15552.0,-6016.0,896.0
3.8325,-15488.0,-6016.0,896.0
3.835,-15552.0,-5952.0,896.0
3.8375,-15552.0,-5952.0,896.0
3.84,-15552.0,-5952.0,896.0
3.8425,-15488.0,-5952.0,896.0
3.845,-15488.0,-5952.0,832.0
3.8475,-15488.0,-5888.0,896.0
3.85,-15552.0,-5888.0,832.0
3.8525,-15552.0,-5952.0,768.0
3.855,-15552.0,-5888.0,896.0
3.8575,-15488.0,-5888.0,832.0
3.86,-15488.0,-5888.0,896.0
3.8625,-15488.0,-5952.0,832.0
3.865,-15488.0,-6016.0,896.0
3.8675,-15424.0,-6016.0,832.0
3.87,-15488.0,-5952.0,896.0
3.8725,-15424.0,-6016.0,896.0
3.875,-15488.0,-6016.0,960.0
3.8775,-15488.0,-5952.0,896.0
3.88,-15424.0,-5952.0,960.0
3.8825,-15488.0,-5952.0,960.0
3.885,-15424.0,-5888.0,832.0
3.8875,-15424.0,-5888.0,832.0
3.89,-15424.0,-5888.0,896.0
3.8925,-15424.0,-5824.0,960.0
3.895,-15424.0,-5824.0,960.0
3.8975,-15424.0,-5888.0,1024.0
3.9,-15424.0,-5824.0,1024.0
3.9025,-15424.0,-5888.0,960.0
3.905,-15424.0,-5824.0,960.0
3.9075,-15424.0,-5824.0,960.0
3.91,-15360.0,-5888.0,960.0
3.9125,-15360.0,-5824.0,960.0
3.915,-15360.0,-5824.0,960.0
3.9175,-15360.0,-5824.0,896.0
3.92,-15360.0,-5888.0,832.0
3.9225,-15424.0,-5888.0,832.0
3.925,-15424.0,-5888.0,768.0
3.9275,-15360.0,-5952.0,768.0
3.93,-15424.0,-5952.0,768.0
3.9325,-15360.0,-5952.0,768.0
3.935,-15360.0,-5952.0,768.0
3.9375,-15360.0,-5888.0,768.0
3.94,-15424.0,-5952.0,768.0
3.9425,-15424.0,-5888.0,768.0
3.945,-15424.0,-5888.0,704.0
3.9475,-15424.0,-5824.0,768.0
3.95,-15552.0,-5888.0,832.0
3.9525,-15552.0,-5888.0,832.0
3.955,-15552.0,-5824.0,896.0
3.9575,-15552.0,-5888.0,896.0
3.96,-15488.0,-5888.0,960.0
3.9625,-15488.0,-5888.0,960.0
3.965,-15424.0,-5888.0,1024.0
3.9675,-15488.0,-5824.0,960.0
3.97,-15488.0,-5824.0,896.0
3.9725,-15488.0,-5888.0,832.0
3.975,-15488.0,-5824.0,832.0
3.9775,-15552.0,-5824.0,768.0
3.98,-15616.0,-5888.0,832.0
3.9825,-15616.0,-5888.0,832.0
3.985,-15616.0,-5888.0,832.0
3.9875,-15680.0,-6016.0,768.0
3.99,-15680.0,-5952.0,768.0
3.9925,-15744.0,-5888.0,704.0
3.995,-15808.0,-5824.0,832.0
3.9975,-15936.0,-5824.0,768.0
4.0,-15936.0,-5760.0,704.0
4.0025,-15936.0,-5696.0,832.0
4.005,-15936.0,-5696.0,832.0
4.0075,-16000.0,-5696.0,832.0
4.01,-16064.0,-5632.0,896.0
4.0125,-16128.0,-5568.0,896.0
4.015,-16192.0,-5504.0,960.0
4.0175,-16128.0,-5568.0,960.0
4.02,-16064.0,-5632.0,1024.0
4.0225,-16128.0,-5568.0,1024.0
4.025,-16128.0,-5568.0,1152.0
4.0275,-16064.0,-5504.0,1088.0
4.03,-16064.0,-5568.0,1152.0
4.0325,-16064.0,-5632.0,1216.0
4.035,-16064.0,-5568.0,1152.0
4.0375,-16064.0,-5568.0,1216.0
4.04,-16000.0,-5568.0,1280.0
4.0425,-16000.0,-5504.0,1280.0
4.045,-15936.0,-5440.0,1344.0
4.0475,-15872.0,-5440.0,1344.0
4.05,-15808.0,-5440.0,1344.0
4.0525,-15744.0,-5440.0,1280.0
4.055,-15680.0,-5440.0,1280.0
4.0575,-15680.0,-5440.0,1280.0
4.06,-15616.0,-5504.0,1344.0
4.0625,-15552.0,-5440.0,1344.0
4.065,-15552.0,-5440.0,1344.0
4.0675,-15424.0,-5440.0,1280.0
4.07,-15424.0,-5504.0,1216.0
4.0725,-15360.0,-5504.0,1216.0
4.075,-15296.0,-5440.0,1088.0
4.0775,-15232.0,-5504.0,1024.0
4.08,-15168.0,-5504.0,1024.0
4.0825,-15104.0,-5504.0,1024.0
4.085,-15040.0,-5504.0,1024.0
4.0875,-14976.0,-5568.0,960.0
4.09,-14912.0,-5568.0,896.0
4.0925,-14848.0,-5568.0,832.0
4.095,-14720.0,-5696.0,896.0
4.0975,-14656.0,-5696.0,768.0
4.1,-14720.0,-5696.0,768.0
4.1025,-14592.0,-5760.0,832.0
4.105,-14592.0,-5760.0,832.0
4.1075,-14592.0,-5824.0,896.0
4.11,-14592.0,-5824.0,832.0
4.1125,-14464.0,-5824.0,832.0
4.115,-14592.0,-5760.0,832.0
4.1175,-14592.0,-5760.0,832.0
4.12,-14528.0,-5760.0,896.0
4.1225,-14528.0,-5696.0,896.0
4.125,-14528.0,-5696.0,896.0
4.1275,-14528.0,-5632.0,832.0
4.13,-14464.0,-5696.0,768.0
4.1325,-14464.0,-5760.0,768.0
4.135,-14464.0,-5760.0,768.0
4.1375,-14464.0,-5760.0,832.0
4.14,-14464.0,-5824.0,768.0
4.1425,-14528.0,-5824.0,704.0
4.145,-14464.0,-5760.0,576.0
4.1475,-14528.0,-5760.0,640.0
4.15,-14528.0,-5824.0,640.0
4.1525,-14528.0,-5824.0,576.0
4.155,-14528.0,-5824.0,576.0
4.1575,-14528.0,-5824.0,576.0
4.16,-14528.0,-5696.0,512.0
4.1625,-14592.0,-5760.0,448.0
4.165,-14592.0,-5760.0,384.0
4.1675,-14592.0,-5760.0,448.0
4.17,-14592.0,-5696.0,448.0
4.1725,-14656.0,-5696.0,384.0
4.175,-14656.0,-5760.0,448.0
4.1775,-14656.0,-5824.0,448.0
4.18,-14656.0,-5824.0,384.0
4.1825,-14720.0,-5760.0,384.0
4.185,-14784.0,-5760.0,384.0
4.1875,-14848.0,-5760.0,320.0
4.19,-14848.0,-5760.0,256.0
4.1925,-14912.0,-5824.0,192.0
4.195,-14976.0,-5760.0,128.0
4.1975,-14976.0,-5824.0,192.0
4.2,-15104.0,-5824.0,64.0
4.2025,-15104.0,-5824.0,128.0
4.205,-15168.0,-5824.0,64.0
4.2075,-15168.0,-5824.0,64.0
4.21,-15232.0,-5824.0,64.0
4.2125,-15296.0,-5888.0,0.0
4.215,-15296.0,-5888.0,0.0
4.2175,-15360.0,-5888.0,0.0
4.22,-15424.0,-5888.0,0.0
4.2225,-15488.0,-5952.0,0.0
4.225,-15552.0,-5952.0,0.0
4.2275,-15680.0,-5888.0,-64.0
4.23,-15744.0,-5888.0,-64.0
4.2325,-15808.0,-5824.0,-64.0
4.235,-15872.0,-5888.0,-64.0
4.2375,-15936.0,-5824.0,0.0
4.24,-16000.0,-5888.0,0.0
4.2425,-16000.0,-5888.0,64.0
4.245,-16128.0,-5888.0,64.0
4.2475,-16128.0,-5888.0,0.0
4.25,-16128.0,-5824.0,128.0
4.2525,-16256.0,-5760.0,128.0
4.255,-16320.0,-5824.0,192.0
4.2575,-16320.0,-5824.0,192.0
4.26,-16448.0,-5824.0,256.0
4.2625,-16512.0,-5824.0,192.0
4.265,-16576.0,-5824.0,192.0
4.2675,-16640.0,-5824.0,192.0
4.27,-16640.0,-5824.0,256.0
4.2725,-16704.0,-5824.0,256.0
4.275,-16704.0,-5888.0,256.0
4.2775,-16768.0,-5888.0,384.0
4.28,-16768.0,-5888.0,448.0
4.2825,-16768.0,-5952.0,512.0
4.285,-16768.0,-5952.0,512.0
4.2875,-16768.0,-5952.0,448.0
4.29,-16704.0,-6016.0,448.0
4.2925,-16704.0,-6080.0,512.0
4.295,-16640.0,-6080.0,448.0
4.2975,-16640.0,-6080.0,640.0
4.3,-16576.0,-6080.0,640.0
4.3025,-16512.0,-6144.0,704.0
4.305,-16512.0,-6080.0,704.0
4.3075,-16448.0,-6144.0,704.0
4.31,-16384.0,-6144.0,704.0
4.3125,-16320.0,-6144.0,640.0
4.315,-16256.0,-6144.0,704.0
4.3175,-16128.0,-6208.0,704.0
4.32,-16064.0,-6272.0,704.0
4.3225,-16000.0,-6272.0,704.0
4.325,-15936.0,-6272.0,704.0
4.3275,-15808.0,-6336.0,704.0
4.33,-15744.0,-6336.0,640.0
4.3325,-15680.0,-6336.0,704.0
4.335,-15616.0,-6272.0,640.0
4.3375,-15616.0,-6336.0,640.0
4.34,-15488.0,-6400.0,640.0
4.3425,-15488.0,-6336.0,640.0
4.345,-15488.0,-6400.0,704.0
4.3475,-15424.0,-6336.0,704.0
4.35,-15168.0,-6400.0,704.0
4.3525,-15296.0,-6400.0,896.0
4.355,-15232.0,-6400.0,960.0
4.3575,-15168.0,-6336.0,1024.0
4.36,-15104.0,-6400.0,1024.0
4.3625,-15040.0,-6400.0,1024.0
4.365,-15040.0,-6464.0,1024.0
4.3675,-15040.0,-6464.0,1152.0
4.37,-14976.0,-6528.0,1088.0
4.3725,-14976.0,-6528.0,1152.0
4.375,-14912.0,-6464.0,1152.0
4.3775,-14848.0,-6464.0,1216.0
4.38,-14848.0,-6464.0,1280.0
4.3825,-14848.0,-6528.0,1280.0
4.385,-14848.0,-6464.0,1344.0
4.3875,-14912.0,-6400.0,1216.0
4.39,-14848.0,-6400.0,1344.0
4.3925,-14848.0,-6336.0,1216.0
4.395,-14784.0,-6272.0,1216.0
4.3975,-14720.0,-6336.0,1280.0
4.4,-14656.0,-6336.0,1280.0
4.4025,-14720.0,-6336.0,1216.0
4.405,-14656.0,-6336.0,1152.0
4.4075,-14656.0,-6336.0,1088.0
4.41,-14592.0,-6400.0,1088.0
4.4125,-14592.0,-6400.0,1152.0
4.415,-14592.0,-6336.0,1088.0
4.4175,-14592.0,-6400.0,1024.0
4.42,-14592.0,-6464.0,1024.0
4.4225,-14592.0,-6464.0,960.0
4.425,-14656.0,-6464.0,960.0
4.4275,-14720.0,-6464.0,960.0
4.43,-14784.0,-6464.0,960.0
4.4325,-14976.0,-6336.0,960.0
4.435,-15040.0,-6400.0,1024.0
4.4375,-15168.0,-6336.0,960.0
4.44,-15232.0,-6336.0,960.0
4.4425,-15232.0,-6336.0,1024.0
4.445,-15296.0,-6336.0,1024.0
4.4475,-15424.0,-6400.0,1088.0
4.45,-15488.0,-6464.0,1088.0
4.4525,-15552.0,-6336.0,1216.0
4.455,-15680.0,-6208.0,1152.0
4.4575,-15680.0,-6208.0,1152.0
4.46,-15744.0,-6208.0,1152.0
4.4625,-15808.0,-6272.0,1152.0
4.465,-15808.0,-6208.0,1152.0
4.4675,-15936.0,-6208.0,1088.0
4.47,-15936.0,-6208.0,1152.0
4.4725,-15936.0,-6144.0,1152.0
4.475,-15936.0,-6144.0,1152.0
4.4775,-15936.0,-6144.0,1216.0
4.48,-15936.0,-6016.0,1152.0
4.4825,-15936.0,-6080.0,1088.0
4.485,-15936.0,-6080.0,1216.0
4.4875,-15872.0,-6016.0,1152.0
4.49,-15872.0,-6016.0,1152.0
4.4925,-15808.0,-5952.0,1088.0
4.495,-15808.0,-5888.0,1152.0
4.4975,-15744.0,-5824.0,1152.0
4.5,-15680.0,-5824.0,1152.0
4.5025,-15680.0,-5760.0,1088.0
4.505,-15616.0,-5824.0,1024.0
4.5075,-15552.0,-5696.0,1024.0
4.51,-15552.0,-5696.0,1024.0
4.5125,-15488.0,-5632.0,960.0
4.515,-15552.0,-5632.0,896.0
4.5175,-15488.0,-5632.0,832.0
4.52,-15488.0,-5568.0,832.0
4.5225,-15424.0,-5568.0,832.0
4.525,-15552.0,-5504.0,832.0
4.5275,-15552.0,-5504.0,768.0
4.53,-15552.0,-5504.0,704.0
4.5325,-15552.0,-5440.0,704.0
4.535,-15552.0,-5504.0,704.0
4.5375,-15552.0,-5504.0,640.0
4.54,-15552.0,-5504.0,640.0
4.5425,-15552.0,-5504.0,640.0
4.545,-15552.0,-5568.0,576.0
4.5475,-15488.0,-5504.0,640.0
4.55,-15488.0,-5504.0,640.0
4.5525,-15488.0,-5504.0,576.0
4.555,-15552.0,-5504.0,576.0
4.5575,-15552.0,-5440.0,512.0
4.56,-15616.0,-5440.0,512.0
4.5625,-15616.0,-5440.0,512.0
4.565,-15616.0,-5376.0,448.0
4.5675,-15616.0,-5376.0,512.0
4.57,-15616.0,-5312.0,448.0
4.5725,-15552.0,-5312.0,448.0
4.575,-15552.0,-5312.0,512.0
4.5775,-15552.0,-5312.0,448.0
4.58,-15552.0,-5376.0,384.0
4.5825,-15552.0,-5376.0,384.0
4.585,-15616.0,-5440.0,384.0
4.5875,-15552.0,-5376.0,320.0
4.59,-15552.0,-5440.0,256.0
4.5925,-15616.0,-5440.0,192.0
4.595,-15616.0,-5440.0,192.0
4.5975,-15680.0,-5440.0,192.0
4.6,-15744.0,-5568.0,128.0
4.6025,-15744.0,-5568.0,192.0
4.605,-15744.0,-5568.0,128.0
4.6075,-15680.0,-5632.0,128.0
4.61,-15616.0,-5632.0,128.0
4.6125,-15680.0,-5632.0,64.0
4.615,-15616.0,-5696.0,128.0
4.6175,-15680.0,-5696.0,128.0
4.62,-15616.0,-5696.0,192.0
4.6225,-15680.0,-5696.0,128.0
4.625,-15744.0,-5696.0,128.0
4.6275,-15744.0,-5760.0,128.0
4.63,-15744.0,-5760.0,128.0
4.6325,-15680.0,-5760.0,64.0
4.635,-15680.0,-5760.0,64.0
4.6375,-15680.0,-5696.0,64.0
4.64,-15744.0,-5632.0,64.0
4.6425,-15744.0,-5696.0,0.0
4.645,-15680.0,-5696.0,0.0
4.6475,-15680.0,-5696.0,0.0
4.65,-15616.0,-5696.0,0.0
4.6525,-15552.0,-5696.0,0.0
4.655,-15488.0,-5760.0,0.0
4.6575,-15552.0,-5760.0,0.0
4.66,-15488.0,-5760.0,64.0
4.6625,-15488.0,-5696.0,64.0
4.665,-15424.0,-5696.0,64.0
4.6675,-15360.0,-5760.0,0.0
4.67,-15296.0,-5760.0,0.0
4.6725,-15296.0,-5760.0,64.0
4.675,-15296.0,-5760.0,64.0
4.6775,-15296.0,-5696.0,128.0
4.68,-15296.0,-5696.0,64.0
4.6825,-15296.0,-5760.0,0.0
4.685,-15296.0,-5760.0,-64.0
4.6875,-15232.0,-5824.0,0.0
4.69,-15232.0,-5824.0,0.0
4.6925,-15168.0,-5760.0,64.0
4.695,-15168.0,-5824.0,0.0
4.6975,-15232.0,-5824.0,-64.0
4.7,-15232.0,-5824.0,64.0
4.7025,-15232.0,-5888.0,64.0
4.705,-15232.0,-5888.0,0.0
4.7075,-15232.0,-5952.0,64.0
4.71,-15168.0,-5952.0,128.0
4.7125,-15168.0,-6016.0,64.0
4.715,-15104.0,-6080.0,64.0
4.7175,-15168.0,-6144.0,128.0
4.72,-15104.0,-6208.0,128.0
4.7225,-15104.0,-6208.0,64.0
4.725,-15104.0,-6208.0,192.0
4.7275,-15104.0,-6272.0,192.0
4.73,-15040.0,-6272.0,192.0
4.7325,-15040.0,-6336.0,192.0
4.735,-14976.0,-6336.0,320.0
4.7375,-14976.0,-6400.0,256.0
4.74,-15040.0,-6400.0,320.0
4.7425,-14976.0,-6464.0,320.0
4.745,-14976.0,-6464.0,320.0
4.7475,-14976.0,-6592.0,320.0
4.75,-14976.0,-6656.0,384.0
4.7525,-14912.0,-6656.0,448.0
4.755,-14848.0,-6720.0,512.0
4.7575,-14848.0,-6784.0,512.0
4.76,-14848.0,-6848.0,640.0
4.7625,-14720.0,-6912.0,640.0
4.765,-14720.0,-6784.0,512.0
4.7675,-14784.0,-6912.0,512.0
4.77,-14720.0,-6848.0,512.0
4.7725,-14656.0,-6912.0,448.0
4.775,-14656.0,-6976.0,448.0
4.7775,-14656.0,-7040.0,512.0
4.78,-14720.0,-7104.0,512.0
4.7825,-14720.0,-7168.0,512.0
4.785,-14720.0,-7232.0,448.0
4.7875,-14784.0,-7296.0,448.0
4.79,-14848.0,-7296.0,448.0
4.7925,-14976.0,-7360.0,384.0
4.795,-15040.0,-7360.0,448.0
4.7975,-15040.0,-7424.0,448.0
4.8,-15104.0,-7488.0,384.0
4.8025,-15232.0,-7616.0,384.0
4.805,-15296.0,-7616.0,384.0
4.8075,-15360.0,-7616.0,448.0
4.81,-15488.0,-7616.0,448.0
4.8125,-15552.0,-7552.0,576.0
4.815,-15552.0,-7616.0,576.0
4.8175,-15616.0,-7552.0,640.0
4.82,-15680.0,-7488.0,640.0
4.8225,-15744.0,-7488.0,704.0
4.825,-15808.0,-7488.0,768.0
4.8275,-15808.0,-7552.0,704.0
4.83,-15744.0,-7552.0,704.0
4.8325,-15680.0,-7552.0,704.0
4.835,-15680.0,-7552.0,704.0
4.8375,-15680.0,-7552.0,704.0
4.84,-15616.0,-7552.0,640.0
4.8425,-15552.0,-7552.0,640.0
4.845,-15552.0,-7616.0,576.0
4.8475,-15488.0,-7552.0,576.0
4.85,-15424.0,-7488.0,576.0
4.8525,-15424.0,-7488.0,576.0
4.855,-15360.0,-7488.0,512.0
4.8575,-15296.0,-7424.0,576.0
4.86,-15232.0,-7360.0,640.0
4.8625,-15104.0,-7360.0,576.0
4.865,-15104.0,-7232.0,576.0
4.8675,-15104.0,-7168.0,576.0
4.87,-15040.0,-7168.0,576.0
4.8725,-14976.0,-7168.0,576.0
4.875,-14912.0,-7104.0,512.0
4.8775,-14976.0,-7040.0,576.0
4.88,-14912.0,-7040.0,576.0
4.8825,-14976.0,-6976.0,512.0
4.885,-14912.0,-6912.0,576.0
4.8875,-14912.0,-6912.0,512.0
4.89,-14912.0,-6848.0,512.0
4.8925,-14848.0,-6912.0,512.0
4.895,-14848.0,-6912.0,448.0
4.8975,-14912.0,-6784.0,448.0
4.9,-14912.0,-6784.0,384.0
4.9025,-14976.0,-6784.0,384.0
4.905,-14976.0,-6784.0,384.0
4.9075,-15040.0,-6720.0,384.0
4.91,-15104.0,-6656.0,320.0
4.9125,-15232.0,-6528.0,384.0
4.915,-15296.0,-6528.0,256.0
4.9175,-15296.0,-6464.0,256.0
4.92,-15360.0,-6400.0,256.0
4.9225,-15424.0,-6464.0,128.0
4.925,-15424.0,-6400.0,64.0
4.9275,-15552.0,-6336.0,128.0
4.93,-15552.0,-6336.0,64.0
4.9325,-15552.0,-6272.0,128.0
4.935,-15552.0,-6208.0,192.0
4.9375,-15616.0,-6208.0,192.0
4.94,-15680.0,-6208.0,192.0
4.9425,-15808.0,-6144.0,192.0
4.945,-15808.0,-6208.0,256.0
4.9475,-15872.0,-6144.0,256.0
4.95,-15808.0,-6080.0,256.0
4.9525,-15808.0,-6016.0,192.0
4.955,-15808.0,-5952.0,192.0
4.9575,-15808.0,-5888.0,256.0
4.96,-15808.0,-5888.0,256.0
4.9625,-15872.0,-5824.0,320.0
4.965,-15808.0,-5760.0,256.0
4.9675,-15808.0,-5760.0,320.0
4.97,-15744.0,-5696.0,384.0
4.9725,-15680.0,-5632.0,320.0
4.975,-15680.0,-5632.0,320.0
4.9775,-15680.0,-5568.0,320.0
4.98,-15680.0,-5568.0,256.0
4.9825,-15680.0,-5568.0,256.0
4.985,-15552.0,-5568.0,256.0
4.9875,-15552.0,-5632.0,192.0
4.99,-15552.0,-5568.0,128.0
4.9925,-15488.0,-5632.0,192.0
4.995,-15552.0,-5632.0,192.0
4.9975,-15424.0,-5632.0,192.0
5.0,-15360.0,-5632.0,192.0
5.0025,-15296.0,-5632.0,192.0
5.005,-15232.0,-5632.0,192.0
5.0075,-15168.0,-5632.0,256.0
5.01,-15168.0,-5568.0,192.0
5.0125,-15168.0,-5568.0,192.0
5.015,-15040.0,-5568.0,64.0
5.0175,-15040.0,-5504.0,128.0
5.02,-15040.0,-5504.0,192.0
5.0225,-15104.0,-5504.0,192.0
5.025,-15040.0,-5440.0,192.0
5.0275,-14976.0,-5504.0,192.0
5.03,-14912.0,-5504.0,192.0
5.0325,-14912.0,-5504.0,256.0
5.035,-14912.0,-5504.0,256.0
5.0375,-14912.0,-5440.0,192.0
5.04,-14848.0,-5504.0,256.0
5.0425,-14848.0,-5440.0,320.0
5.045,-14848.0,-5440.0,320.0
5.0475,-14784.0,-5440.0,320.0
5.05,-14848.0,-5504.0,384.0
5.0525,-14720.0,-5504.0,320.0
5.055,-14784.0,-5440.0,384.0
5.0575,-14784.0,-5504.0,384.0
5.06,-14720.0,-5504.0,320.0
5.0625,-14720.0,-5504.0,320.0
5.065,-14720.0,-5504.0,384.0
5.0675,-14720.0,-5568.0,384.0
5.07,-14656.0,-5568.0,384.0
5.0725,-14592.0,-5696.0,448.0
5.075,-14592.0,-5696.0,384.0
5.0775,-14592.0,-5760.0,384.0
5.08,-14592.0,-5824.0,384.0
5.0825,-14656.0,-5760.0,384.0
5.085,-14656.0,-5824.0,384.0
5.0875,-14656.0,-5888.0,320.0
5.09,-14592.0,-6016.0,320.0
5.0925,-14656.0,-6016.0,256.0
5.095,-14656.0,-6080.0,192.0
5.0975,-14656.0,-6080.0,256.0
5.1,-14592.0,-6144.0,320.0
5.1025,-14656.0,-6080.0,320.0
5.105,-14592.0,-6144.0,256.0
5.1075,-14592.0,-6208.0,256.0
5.11,-14592.0,-6208.0,256.0
5.1125,-14592.0,-6272.0,320.0
5.115,-14656.0,-6336.0,320.0
5.1175,-14656.0,-6336.0,384.0
5.12,-14656.0,-6336.0,384.0
5.1225,-14592.0,-6336.0,320.0
5.125,-14656.0,-6336.0,384.0
5.1275,-14720.0,-6400.0,384.0
5.13,-14656.0,-6400.0,320.0
5.1325,-14784.0,-6400.0,320.0
5.135,-14784.0,-6400.0,256.0
5.1375,-14848.0,-6400.0,320.0
5.14,-14848.0,-6464.0,256.0
5.1425,-14912.0,-6464.0,256.0
5.145,-14976.0,-6400.0,256.0
5.1475,-15040.0,-6336.0,320.0
5.15,-15040.0,-6400.0,320.0
5.1525,-15168.0,-6464.0,256.0
5.155,-15168.0,-6400.0,256.0
5.1575,-15232.0,-6336.0,256.0
5.16,-15360.0,-6336.0,320.0
5.1625,-15296.0,-6400.0,320.0
5.165,-15424.0,-6336.0,320.0
5.1675,-15488.0,-6336.0,384.0
5.17,-15488.0,-6336.0,320.0
5.1725,-15616.0,-6336.0,384.0
5.175,-15680.0,-6336.0,448.0
5.1775,-15808.0,-6272.0,448.0
5.18,-15808.0,-6272.0,576.0
5.1825,-15936.0,-6400.0,576.0
5.185,-16064.0,-6400.0,512.0
5.1875,-16128.0,-6400.0,576.0
5.19,-16320.0,-6400.0,640.0
5.1925,-16384.0,-6400.0,640.0
5.195,-16512.0,-6336.0,640.0
5.1975,-16704.0,-6400.0,704.0
5.2,-16704.0,-6400.0,768.0
5.2025,-16768.0,-6400.0,768.0
5.205,-16832.0,-6400.0,768.0
5.2075,-16896.0,-6464.0,768.0
5.21,-16896.0,-6464.0,768.0
5.2125,-16832.0,-6464.0,832.0
5.215,-16832.0,-6464.0,832.0
5.2175,-16832.0,-6464.0,896.0
5.22,-16832.0,-6464.0,960.0
5.2225,-16832.0,-6592.0,960.0
5.225,-16768.0,-6528.0,960.0
5.2275,-16768.0,-6400.0,960.0
5.23,-16704.0,-6400.0,960.0
5.2325,-16640.0,-6592.0,896.0
5.235,-16576.0,-6464.0,896.0
5.2375,-16448.0,-6464.0,832.0
5.24,-16320.0,-6400.0,768.0
5.2425,-16256.0,-6464.0,768.0
5.245,-16192.0,-6464.0,704.0
5.2475,-16064.0,-6464.0,768.0
5.25,-15936.0,-6528.0,704.0
5.2525,-15872.0,-6592.0,704.0
5.255,-15744.0,-6528.0,704.0
5.2575,-15616.0,-6528.0,704.0
5.26,-15488.0,-6592.0,640.0
5.2625,-15360.0,-6528.0,640.0
5.265,-15168.0,-6592.0,640.0
5.2675,-15040.0,-6528.0,576.0
5.27,-14912.0,-6592.0,512.0
5.2725,-14784.0,-6528.0,576.0
5.275,-14656.0,-6528.0,512.0
5.2775,-14528.0,-6528.0,448.0
5.28,-14464.0,-6464.0,448.0
5.2825,-14336.0,-6528.0,320.0
5.285,-14272.0,-6464.0,320.0
5.2875,-14144.0,-6528.0,256.0
5.29,-14080.0,-6592.0,256.0
5.2925,-14016.0,-6656.0,256.0
5.295,-13952.0,-6592.0,192.0
5.2975,-13952.0,-6528.0,256.0
5.3,-13952.0,-6656.0,192.0
5.3025,-13888.0,-6592.0,256.0
5.305,-13888.0,-6592.0,320.0
5.3075,-13888.0,-6528.0,320.0
5.31,-13824.0,-6528.0,384.0
5.3125,-13952.0,-6400.0,448.0
5.315,-13952.0,-6336.0,512.0
5.3175,-14016.0,-6272.0,512.0
5.32,-14080.0,-6208.0,512.0
5.3225,-14144.0,-6208.0,448.0
5.325,-14144.0,-6080.0,512.0
5.3275,-14272.0,-6080.0,512.0
5.33,-14400.0,-6016.0,512.0
5.3325,-14464.0,-5952.0,448.0
5.335,-14592.0,-5952.0,448.0
5.3375,-14656.0,-5888.0,448.0
5.34,-14784.0,-5824.0,384.0
5.3425,-14912.0,-5760.0,448.0
5.345,-15104.0,-5760.0,448.0
5.3475,-15168.0,-5696.0,512.0
5.35,-15296.0,-5696.0,512.0
5.3525,-15424.0,-5632.0,576.0
5.355,-15616.0,-5504.0,576.0
5.3575,-15808.0,-5504.0,576.0
5.36,-15936.0,-5440.0,640.0
5.3625,-16064.0,-5376.0,576.0
5.365,-16192.0,-5248.0,640.0
5.3675,-16320.0,-5248.0,640.0
5.37,-16512.0,-5248.0,704.0
5.3725,-16576.0,-5248.0,640.0
5.375,-16704.0,-5248.0,640.0
5.3775,-16704.0,-5248.0,768.0
5.38,-16832.0,-5312.0,832.0
5.3825,-16896.0,-5376.0,896.0
5.385,-16896.0,-5376.0,960.0
5.3875,-17024.0,-5440.0,1024.0
5.39,-17088.0,-5504.0,1024.0
5.3925,-17024.0,-5568.0,1024.0
5.395,-17024.0,-5632.0,1024.0
5.3975,-16960.0,-5760.0,1024.0
5.4,-16896.0,-5824.0,1088.0
5.4025,-16832.0,-5888.0,1088.0
5.405,-16832.0,-5952.0,960.0
5.4075,-16768.0,-6016.0,896.0
5.41,-16640.0,-6080.0,896.0
5.4125,-16448.0,-6144.0,960.0
5.415,-16320.0,-6208.0,832.0
5.4175,-16192.0,-6208.0,896.0
5.42,-16064.0,-6144.0,832.0
5.4225,-15872.0,-6144.0,832.0
5.425,-15744.0,-6144.0,768.0
5.4275,-15552.0,-6080.0,704.0
5.43,-15424.0,-6016.0,704.0
5.4325,-15296.0,-6016.0,768.0
5.435,-15168.0,-5952.0,768.0
5.4375,-14976.0,-5952.0,768.0
5.44,-14784.0,-5952.0,768.0
5.4425,-14656.0,-6016.0,832.0
5.445,-14528.0,-5952.0,832.0
5.4475,-14400.0,-5952.0,832.0
5.45,-14208.0,-5952.0,832.0
5.4525,-14144.0,-6080.0,896.0
5.455,-14016.0,-6080.0,896.0
5.4575,-13952.0,-6144.0,960.0
5.46,-13824.0,-6208.0,960.0
5.4625,-13760.0,-6272.0,960.0
5.465,-13696.0,-6272.0,896.0
5.4675,-13632.0,-6208.0,896.0
5.47,-13568.0,-6272.0,832.0
5.4725,-13440.0,-6336.0,768.0
5.475,-13440.0,-6272.0,832.0
5.4775,-13376.0,-6272.0,896.0
5.48,-13376.0,-6272.0,896.0
5.4825,-13376.0,-6272.0,832.0
5.485,-13312.0,-6272.0,768.0
5.4875,-13376.0,-6336.0,768.0
5.49,-13440.0,-6336.0,832.0
5.4925,-13504.0,-6400.0,768.0
5.495,-13504.0,-6400.0,768.0
5.4975,-13504.0,-6528.0,704.0
5.5,-13504.0,-6528.0,704.0
5.5025,-13504.0,-6592.0,640.0
5.505,-13504.0,-6656.0,640.0
5.5075,-13568.0,-6720.0,640.0
5.51,-13632.0,-6784.0,576.0
5.5125,-13696.0,-6848.0,576.0
5.515,-13824.0,-6848.0,512.0
5.5175,-13888.0,-6912.0,512.0
5.52,-13952.0,-6976.0,576.0
5.5225,-14016.0,-6976.0,512.0
5.525,-14144.0,-7040.0,512.0
5.5275,-14272.0,-7104.0,384.0
5.53,-14336.0,-7168.0,384.0
5.5325,-14400.0,-7168.0,384.0
5.535,-14528.0,-7168.0,384.0
5.5375,-14528.0,-7168.0,384.0
5.54,-14720.0,-7168.0,384.0
5.5425,-14848.0,-7232.0,320.0
5.545,-14912.0,-7232.0,320.0
5.5475,-14976.0,-7232.0,320.0
5.55,-15040.0,-7232.0,320.0
5.5525,-15296.0,-7104.0,320.0
5.555,-15360.0,-7104.0,320.0
5.5575,-15424.0,-7104.0,256.0
5.56,-15488.0,-7104.0,192.0
5.5625,-15616.0,-7168.0,128.0
5.565,-15616.0,-7168.0,192.0
5.5675,-15744.0,-7040.0,128.0
5.57,-15744.0,-7104.0,0.0
5.5725,-15808.0,-7040.0,0.0
5.575,-15872.0,-7104.0,0.0
5.5775,-15936.0,-7104.0,-64.0
5.58,-16000.0,-7104.0,-128.0
5.5825,-16064.0,-7104.0,-128.0
5.585,-16064.0,-7104.0,-128.0
5.5875,-16128.0,-7168.0,-64.0
5.59,-16128.0,-7168.0,-64.0
5.5925,-16192.0,-7168.0,-192.0
5.595,-16256.0,-7232.0,-128.0
5.5975,-16256.0,-7232.0,-192.0
5.6,-16256.0,-7232.0,-128.0
5.6025,-16320.0,-7232.0,-64.0
5.605,-16320.0,-7168.0,-64.0
5.6075,-16320.0,-7104.0,0.0
5.61,-16320.0,-7104.0,0.0
5.6125,-16384.0,-7104.0,128.0
5.615,-16256.0,-7168.0,64.0
5.6175,-16256.0,-7168.0,128.0
5.62,-16256.0,-7168.0,128.0
5.6225,-16192.0,-7104.0,256.0
5.625,-16256.0,-7104.0,320.0
5.6275,-16256.0,-7040.0,384.0
5.63,-16256.0,-7040.0,384.0
5.6325,-16192.0,-6976.0,448.0
5.635,-16128.0,-6912.0,576.0
5.6375,-16064.0,-6912.0,576.0
5.64,-16064.0,-6912.0,576.0
5.6425,-16000.0,-6912.0,640.0
5.645,-15936.0,-6912.0,576.0
5.6475,-15872.0,-6912.0,576.0
5.65,-15872.0,-6848.0,576.0
5.6525,-15744.0,-6848.0,576.0
5.655,-15680.0,-6848.0,512.0
5.6575,-15680.0,-6848.0,576.0
5.66,-15552.0,-6848.0,512.0
5.6625,-15552.0,-6848.0,512.0
5.665,-15488.0,-6912.0,512.0
5.6675,-15488.0,-6912.0,448.0
5.67,-15424.0,-6848.0,448.0
5.6725,-15360.0,-6848.0,512.0
5.675,-15296.0,-6848.0,512.0
5.6775,-15296.0,-6784.0,512.0
5.68,-15232.0,-6848.0,512.0
5.6825,-15104.0,-6784.0,448.0
5.685,-15104.0,-6720.0,448.0
5.6875,-15040.0,-6784.0,512.0
5.69,-15040.0,-6848.0,576.0
5.6925,-15040.0,-6848.0,576.0
5.695,-15040.0,-6848.0,576.0
5.6975,-15040.0,-6848.0,640.0
5.7,-14976.0,-6848.0,576.0
5.7025,-14976.0,-6848.0,640.0
5.705,-15040.0,-6912.0,704.0
5.7075,-14976.0,-6848.0,640.0
5.71,-15040.0,-6848.0,704.0
5.7125,-14976.0,-6848.0,704.0
5.715,-14976.0,-6848.0,704.0
5.7175,-15040.0,-6848.0,768.0
5.72,-14976.0,-6848.0,768.0
5.7225,-15040.0,-6848.0,768.0
5.725,-15104.0,-6784.0,768.0
5.7275,-15104.0,-6784.0,704.0
5.73,-15104.0,-6784.0,768.0
5.7325,-15040.0,-6720.0,704.0
5.735,-15104.0,-6720.0,768.0
5.7375,-15104.0,-6720.0,768.0
5.74,-15168.0,-6720.0,768.0
5.7425,-15168.0,-6656.0,768.0
5.745,-15232.0,-6656.0,704.0
5.7475,-15232.0,-6656.0,704.0
5.75,-15232.0,-6720.0,768.0
5.7525,-15232.0,-6656.0,704.0
5.755,-15296.0,-6656.0,704.0
5.7575,-15360.0,-6720.0,704.0
5.76,-15360.0,-6720.0,704.0
5.7625,-15360.0,-6656.0,704.0
5.765,-15296.0,-6720.0,640.0
5.7675,-15360.0,-6720.0,640.0
5.77,-15424.0,-6720.0,640.0
5.7725,-15488.0,-6720.0,640.0
5.775,-15488.0,-6720.0,576.0
5.7775,-15552.0,-6656.0,640.0
5.78,-15552.0,-6592.0,640.0
5.7825,-15488.0,-6592.0,640.0
5.785,-15488.0,-6656.0,704.0
5.7875,-15424.0,-6656.0,768.0
5.79,-15488.0,-6592.0,704.0
5.7925,-15488.0,-6656.0,768.0
5.795,-15488.0,-6528.0,832.0
5.7975,-15424.0,-6528.0,768.0
5.8,-15424.0,-6464.0,832.0
5.8025,-15424.0,-6464.0,768.0
5.805,-15360.0,-6400.0,832.0
5.8075,-15360.0,-6400.0,896.0
5.81,-15296.0,-6400.0,896.0
5.8125,-15296.0,-6336.0,896.0
5.815,-15296.0,-6336.0,896.0
5.8175,-15296.0,-6336.0,832.0
5.82,-15232.0,-6336.0,832.0
5.8225,-15232.0,-6336.0,768.0
5.825,-15232.0,-6336.0,832.0
5.8275,-15232.0,-6272.0,832.0
5.83,-15232.0,-6272.0,832.0
5.8325,-15296.0,-6272.0,832.0
5.835,-15232.0,-6208.0,896.0
5.8375,-15296.0,-6208.0,832.0
5.84,-15296.0,-6208.0,832.0
5.8425,-15296.0,-6208.0,832.0
5.845,-15296.0,-6208.0,960.0
5.8475,-15360.0,-6144.0,896.0
5.85,-15296.0,-6080.0,960.0
5.8525,-15360.0,-6080.0,960.0
5.855,-15360.0,-6080.0,960.0
5.8575,-15360.0,-6016.0,896.0
5.86,-15424.0,-6016.0,896.0
5.8625,-15424.0,-6016.0,896.0
5.865,-15424.0,-6016.0,960.0
5.8675,-15424.0,-6016.0,1024.0
5.87,-15488.0,-5952.0,1024.0
5.8725,-15552.0,-6016.0,1024.0
5.875,-15616.0,-6016.0,1024.0
5.8775,-15616.0,-5952.0,1024.0
5.88,-15552.0,-5952.0,1024.0
5.8825,-15552.0,-5952.0,1088.0
5.885,-15616.0,-5952.0,1088.0
5.8875,-15616.0,-6016.0,1088.0
5.89,-15616.0,-6016.0,1024.0
5.8925,-15552.0,-6016.0,1024.0
5.895,-15552.0,-6016.0,1024.0
5.8975,-15552.0,-6016.0,1024.0
5.9,-15552.0,-6016.0,1088.0
5.9025,-15552.0,-6016.0,1088.0
5.905,-15424.0,-6016.0,1088.0
5.9075,-15424.0,-6016.0,1088.0
5.91,-15424.0,-6016.0,1024.0
5.9125,-15360.0,-6016.0,1024.0
5.915,-15360.0,-6080.0,1024.0
5.9175,-15232.0,-6016.0,832.0
5.92,-15104.0,-6016.0,960.0
5.9225,-15104.0,-6080.0,1024.0
5.925,-15104.0,-6016.0,960.0
5.9275,-14976.0,-6016.0,960.0
5.93,-14976.0,-6016.0,832.0
5.9325,-14912.0,-6016.0,832.0
5.935,-14912.0,-6080.0,768.0
5.9375,-14848.0,-6016.0,704.0
5.94,-14784.0,-6016.0,704.0
5.9425,-14720.0,-6016.0,640.0
5.945,-14720.0,-6016.0,640.0
5.9475,-14656.0,-6016.0,640.0
5.95,-14592.0,-6144.0,640.0
5.9525,-14592.0,-6208.0,576.0
5.955,-14592.0,-6208.0,576.0
5.9575,-14528.0,-6144.0,512.0
5.96,-14528.0,-6144.0,512.0
5.9625,-14528.0,-6144.0,512.0
5.965,-14528.0,-6144.0,512.0
5.9675,-14528.0,-6144.0,576.0
5.97,-14528.0,-6144.0,576.0
5.9725,-14592.0,-6208.0,576.0
5.975,-14528.0,-6208.0,576.0
5.9775,-14528.0,-6272.0,512.0
5.98,-14528.0,-6272.0,448.0
5.9825,-14464.0,-6272.0,448.0
5.985,-14464.0,-6208.0,448.0
5.9875,-14528.0,-6208.0,448.0
5.99,-14528.0,-6144.0,448.0
5.9925,-14528.0,-6208.0,512.0
5.995,-14592.0,-6144.0,448.0
5.9975,-14592.0,-6144.0,384.0
6.0,-14656.0,-6144.0,384.0
6.0025,-14720.0,-6208.0,384.0
6.005,-14784.0,-6208.0,384.0
6.0075,-14784.0,-6144.0,384.0
6.01,-14848.0,-6080.0,384.0
6.0125,-14912.0,-6144.0,448.0
6.015,-14912.0,-6080.0,384.0
6.0175,-14976.0,-6080.0,384.0
6.02,-14976.0,-6080.0,384.0
6.0225,-15040.0,-6080.0,448.0
6.025,-15104.0,-6144.0,384.0
6.0275,-15168.0,-6080.0,384.0
6.03,-15232.0,-6208.0,384.0
6.0325,-15296.0,-6144.0,384.0
6.035,-15424.0,-6208.0,448.0
6.0375,-15424.0,-6144.0,384.0
6.04,-15488.0,-6144.0,384.0
6.0425,-15424.0,-6144.0,448.0
6.045,-15424.0,-6144.0,384.0
6.0475,-15424.0,-6208.0,384.0
6.05,-15488.0,-6272.0,448.0
6.0525,-15488.0,-6208.0,384.0
6.055,-15552.0,-6208.0,384.0
6.0575,-15552.0,-6208.0,384.0
6.06,-15552.0,-6272.0,448.0
6.0625,-15552.0,-6272.0,448.0
6.065,-15552.0,-6272.0,448.0
6.0675,-15552.0,-6336.0,384.0
6.07,-15552.0,-6336.0,384.0
6.0725,-15552.0,-6336.0,384.0
6.075,-15552.0,-6400.0,448.0
6.0775,-15552.0,-6336.0,320.0
6.08,-15552.0,-6400.0,384.0
6.0825,-15552.0,-6400.0,384.0
6.085,-15616.0,-6464.0,384.0
6.0875,-15616.0,-6400.0,384.0
6.09,-15552.0,-6400.0,384.0
6.0925,-15488.0,-6400.0,448.0
6.095,-15488.0,-6464.0,448.0
6.0975,-15552.0,-6464.0,448.0
6.1,-15552.0,-6464.0,512.0
6.1025,-15552.0,-6464.0,512.0
6.105,-15488.0,-6464.0,448.0
6.1075,-15552.0,-6464.0,512.0
6.11,-15488.0,-6464.0,512.0
6.1125,-15424.0,-6528.0,448.0
6.115,-15360.0,-6592.0,576.0
6.1175,-15296.0,-6656.0,576.0
6.12,-15232.0,-6720.0,576.0
6.1225,-15168.0,-6784.0,640.0
6.125,-15168.0,-6784.0,576.0
6.1275,-15104.0,-6784.0,576.0
6.13,-15040.0,-6784.0,640.0
6.1325,-14976.0,-6848.0,704.0
6.135,-14912.0,-6848.0,576.0
6.1375,-14912.0,-6912.0,640.0
6.14,-14848.0,-6912.0,576.0
6.1425,-14720.0,-6976.0,640.0
6.145,-14656.0,-7040.0,704.0
6.1475,-14592.0,-6976.0,768.0
6.15,-14592.0,-6976.0,832.0
6.1525,-14464.0,-6976.0,832.0
6.155,-14464.0,-7040.0,832.0
6.1575,-14400.0,-7040.0,832.0
6.16,-14400.0,-7104.0,768.0
6.1625,-14272.0,-7040.0,768.0
6.165,-14272.0,-7040.0,704.0
6.1675,-14272.0,-7040.0,768.0
6.17,-14272.0,-7040.0,704.0
6.1725,-14272.0,-7104.0,640.0
6.175,-14336.0,-7104.0,768.0
6.1775,-14272.0,-7104.0,768.0
6.18,-14336.0,-7104.0,640.0
6.1825,-14336.0,-7104.0,704.0
6.185,-14400.0,-7104.0,704.0
6.1875,-14400.0,-7104.0,704.0
6.19,-14400.0,-7168.0,640.0
6.1925,-14464.0,-7168.0,576.0
6.195,-14464.0,-7232.0,576.0
6.1975,-14464.0,-7168.0,576.0
6.2,-14528.0,-7232.0,640.0
6.2025,-14464.0,-7232.0,640.0
6.205,-14592.0,-7232.0,576.0
6.2075,-14656.0,-7296.0,576.0
6.21,-14592.0,-7360.0,576.0
6.2125,-14592.0,-7360.0,640.0
6.215,-14656.0,-7360.0,512.0
6.2175,-14592.0,-7360.0,576.0
6.22,-14656.0,-7296.0,576.0
6.2225,-14656.0,-7296.0,640.0
6.225,-14528.0,-7296.0,576.0
6.2275,-14528.0,-7360.0,576.0
6.23,-14528.0,-7296.0,512.0
6.2325,-14464.0,-7296.0,512.0
6.235,-14528.0,-7296.0,576.0
6.2375,-14528.0,-7296.0,512.0
6.24,-14528.0,-7232.0,512.0
6.2425,-14528.0,-7168.0,448.0
6.245,-14592.0,-7168.0,448.0
6.2475,-14592.0,-7104.0,448.0
6.25,-14656.0,-7104.0,448.0
6.2525,-14528.0,-7040.0,384.0
6.255,-14528.0,-7104.0,384.0
6.2575,-14528.0,-7104.0,320.0
6.26,-14528.0,-7040.0,320.0
6.2625,-14592.0,-7040.0,320.0
6.265,-14528.0,-7040.0,384.0
6.2675,-14528.0,-7040.0,320.0
6.27,-14528.0,-6976.0,320.0
6.2725,-14528.0,-6912.0,256.0
6.275,-14528.0,-7040.0,256.0
6.2775,-14528.0,-7040.0,256.0
6.28,-14528.0,-7040.0,256.0
6.2825,-14656.0,-7104.0,256.0
6.285,-14656.0,-7040.0,256.0
6.2875,-14720.0,-6976.0,128.0
6.29,-14720.0,-6976.0,192.0
6.2925,-14720.0,-6912.0,64.0
6.295,-14656.0,-6912.0,0.0
6.2975,-14720.0,-6976.0,64.0
6.3,-14720.0,-6848.0,64.0
6.3025,-14784.0,-6784.0,128.0
6.305,-14784.0,-6848.0,128.0
6.3075,-14784.0,-6848.0,64.0
6.31,-14784.0,-6912.0,128.0
6.3125,-14848.0,-6912.0,128.0
6.315,-14848.0,-6976.0,64.0
6.3175,-14784.0,-6976.0,64.0
6.32,-14912.0,-6976.0,0.0
6.3225,-14912.0,-6976.0,0.0
6.325,-14976.0,-6912.0,-64.0
6.3275,-14976.0,-6912.0,-128.0
6.33,-15040.0,-6848.0,-64.0
6.3325,-15040.0,-6848.0,0.0
6.335,-15040.0,-6848.0,0.0
6.3375,-14976.0,-6912.0,0.0
6.34,-15040.0,-6848.0,0.0
6.3425,-15104.0,-6848.0,64.0
6.345,-15104.0,-6848.0,128.0
6.3475,-15168.0,-6848.0,128.0
6.35,-15168.0,-6848.0,64.0
6.3525,-15104.0,-6976.0,128.0
6.355,-15232.0,-6976.0,128.0
6.3575,-15168.0,-6976.0,128.0
6.36,-15168.0,-7040.0,192.0
6.3625,-15296.0,-7040.0,192.0
6.365,-15296.0,-6976.0,192.0
6.3675,-15360.0,-6976.0,256.0
6.37,-15360.0,-7040.0,192.0
6.3725,-15296.0,-7104.0,256.0
6.375,-15296.0,-7104.0,192.0
6.3775,-15232.0,-7104.0,192.0
6.38,-15296.0,-7104.0,192.0
6.3825,-15296.0,-7104.0,192.0
6.385,-15360.0,-7168.0,192.0
6.3875,-15360.0,-7168.0,192.0
6.39,-15360.0,-7232.0,192.0
6.3925,-15360.0,-7168.0,256.0
6.395,-15424.0,-7232.0,256.0
6.3975,-15360.0,-7232.0,192.0
6.4,-15296.0,-7296.0,128.0
6.4025,-15296.0,-7296.0,128.0
6.405,-15232.0,-7360.0,192.0
6.4075,-15232.0,-7360.0,128.0
6.41,-15232.0,-7424.0,128.0
6.4125,-15104.0,-7424.0,192.0
6.415,-15104.0,-7424.0,192.0
6.4175,-15104.0,-7424.0,128.0
6.42,-15104.0,-7424.0,64.0
6.4225,-15104.0,-7488.0,64.0
6.425,-15104.0,-7552.0,128.0
6.4275,-15040.0,-7488.0,192.0
6.43,-15040.0,-7488.0,128.0
6.4325,-15040.0,-7552.0,256.0
6.435,-15040.0,-7488.0,256.0
6.4375,-14976.0,-7488.0,320.0
6.44,-14976.0,-7488.0,256.0
6.4425,-14976.0,-7488.0,256.0
6.445,-15040.0,-7488.0,256.0
6.4475,-15040.0,-7488.0,256.0
6.45,-15040.0,-7552.0,320.0
6.4525,-15040.0,-7552.0,384.0
6.455,-15104.0,-7552.0,384.0
6.4575,-15104.0,-7552.0,384.0
6.46,-15040.0,-7488.0,384.0
6.4625,-15040.0,-7552.0,448.0
6.465,-15040.0,-7680.0,448.0
6.4675,-15104.0,-7616.0,512.0
6.47,-15104.0,-7680.0,448.0
6.4725,-15104.0,-7616.0,448.0
6.475,-15040.0,-7616.0,448.0
6.4775,-15040.0,-7616.0,512.0
6.48,-15040.0,-7616.0,448.0
6.4825,-15040.0,-7616.0,512.0
6.485,-14976.0,-7616.0,512.0
6.4875,-14912.0,-7616.0,576.0
6.49,-14912.0,-7616.0,576.0
6.4925,-14912.0,-7616.0,576.0
6.495,-14848.0,-7552.0,576.0
6.4975,-14848.0,-7616.0,512.0
6.5,-14720.0,-7552.0,512.0
6.5025,-14656.0,-7552.0,448.0
6.505,-14656.0,-7552.0,512.0
6.5075,-14656.0,-7552.0,512.0
6.51,-14592.0,-7488.0,512.0
6.5125,-14528.0,-7488.0,448.0
6.515,-14464.0,-7552.0,448.0
6.5175,-14336.0,-7488.0,384.0
6.52,-14400.0,-7488.0,320.0
6.5225,-14336.0,-7488.0,320.0
6.525,-14208.0,-7488.0,384.0
6.5275,-14208.0,-7552.0,384.0
6.53,-14144.0,-7488.0,320.0
6.5325,-14144.0,-7424.0,320.0
6.535,-14080.0,-7360.0,384.0
6.5375,-14144.0,-7360.0,384.0
6.54,-14080.0,-7296.0,320.0
6.5425,-14016.0,-7232.0,256.0
6.545,-14016.0,-7296.0,256.0
6.5475,-13952.0,-7296.0,320.0
6.55,-14016.0,-7296.0,256.0
6.5525,-14080.0,-7296.0,192.0
6.555,-14080.0,-7232.0,256.0
6.5575,-14080.0,-7168.0,192.0
6.56,-14144.0,-7168.0,256.0
6.5625,-14144.0,-7104.0,256.0
6.565,-14144.0,-7168.0,192.0
6.5675,-14144.0,-7168.0,192.0
6.57,-14336.0,-7168.0,256.0
6.5725,-14272.0,-7168.0,192.0
6.575,-14336.0,-7168.0,256.0
6.5775,-14336.0,-7168.0,192.0
6.58,-14464.0,-7104.0,192.0
6.5825,-14464.0,-7168.0,128.0
6.585,-14528.0,-7168.0,128.0
6.5875,-14592.0,-7104.0,64.0
6.59,-14656.0,-7104.0,0.0
6.5925,-14720.0,-7104.0,-64.0
6.595,-14784.0,-7104.0,-128.0
6.5975,-14848.0,-7104.0,-128.0
6.6,-14912.0,-7104.0,-128.0
6.6025,-14912.0,-7104.0,-128.0
6.605,-14976.0,-7104.0,-64.0
6.6075,-15040.0,-7104.0,-128.0
6.61,-15040.0,-7104.0,-192.0
6.6125,-15040.0,-7104.0,-192.0
6.615,-15040.0,-7104.0,-192.0
6.6175,-15104.0,-7104.0,-256.0
6.62,-15168.0,-7104.0,-256.0
6.6225,-15104.0,-7104.0,-256.0
6.625,-15168.0,-7104.0,-192.0
6.6275,-15168.0,-7104.0,-256.0
6.63,-15168.0,-7104.0,-256.0
6.6325,-15168.0,-7168.0,-192.0
6.635,-15104.0,-7168.0,-256.0
6.6375,-15168.0,-7232.0,-256.0
6.64,-15168.0,-7232.0,-320.0
6.6425,-15104.0,-7232.0,-256.0
6.645,-15104.0,-7168.0,-256.0
6.6475,-15168.0,-7232.0,-256.0
6.65,-15168.0,-7232.0,-384.0
6.6525,-15104.0,-7232.0,-320.0
6.655,-15104.0,-7232.0,-320.0
6.6575,-15104.0,-7168.0,-320.0
6.66,-15104.0,-7232.0,-384.0
6.6625,-15168.0,-7168.0,-320.0
6.665,-15232.0,-7168.0,-256.0
6.6675,-15232.0,-7232.0,-192.0
6.67,-15232.0,-7168.0,-192.0
6.6725,-15296.0,-7232.0,-64.0
6.675,-15360.0,-7296.0,-128.0
6.6775,-15360.0,-7296.0,-128.0
6.68,-15360.0,-7296.0,-64.0
6.6825,-15360.0,-7296.0,-64.0
6.685,-15424.0,-7232.0,-64.0
6.6875,-15424.0,-7232.0,64.0
6.69,-15424.0,-7232.0,0.0
6.6925,-15488.0,-7232.0,64.0
6.695,-15488.0,-7232.0,128.0
6.6975,-15488.0,-7232.0,128.0
6.7,-15424.0,-7296.0,192.0
6.7025,-15360.0,-7232.0,192.0
6.705,-15360.0,-7232.0,192.0
6.7075,-15296.0,-7168.0,256.0
6.71,-15296.0,-7168.0,256.0
6.7125,-15296.0,-7168.0,256.0
6.715,-15168.0,-7168.0,256.0
6.7175,-15104.0,-7104.0,320.0
6.72,-15104.0,-7040.0,256.0
6.7225,-14976.0,-7040.0,192.0
6.725,-14976.0,-7040.0,128.0
6.7275,-14912.0,-7040.0,192.0
6.73,-14784.0,-6976.0,256.0
6.7325,-14784.0,-6976.0,192.0
6.735,-14784.0,-6976.0,128.0
6.7375,-14784.0,-6976.0,64.0
6.74,-14720.0,-6976.0,64.0
6.7425,-14720.0,-7040.0,0.0
6.745,-14720.0,-7040.0,64.0
6.7475,-14720.0,-7040.0,64.0
6.75,-14784.0,-7040.0,64.0
6.7525,-14656.0,-7040.0,-64.0
6.755,-14720.0,-6976.0,0.0
6.7575,-14656.0,-7040.0,0.0
6.76,-14720.0,-7040.0,-64.0
6.7625,-14656.0,-7040.0,0.0
6.765,-14656.0,-7104.0,0.0
6.7675,-14656.0,-7040.0,-64.0
6.77,-14656.0,-7104.0,0.0
6.7725,-14656.0,-7104.0,0.0
6.775,-14656.0,-7104.0,0.0
6.7775,-14656.0,-7104.0,0.0
6.78,-14592.0,-7104.0,0.0
6.7825,-14592.0,-7040.0,-64.0
6.785,-14528.0,-7104.0,64.0
6.7875,-14528.0,-7040.0,0.0
6.79,-14592.0,-7104.0,0.0
6.7925,-14592.0,-7104.0,-64.0
6.795,-14528.0,-7040.0,0.0
6.7975,-14464.0,-7040.0,0.0
6.8,-14464.0,-7040.0,0.0
6.8025,-14464.0,-7104.0,-64.0
6.805,-14464.0,-7040.0,-64.0
6.8075,-14400.0,-7040.0,-64.0
6.81,-14464.0,-6976.0,-64.0
6.8125,-14464.0,-7040.0,-64.0
6.815,-14528.0,-7040.0,-128.0
6.8175,-14528.0,-7040.0,-128.0
6.82,-14592.0,-7040.0,-192.0
6.8225,-14592.0,-7040.0,-256.0
6.825,-14528.0,-7040.0,-192.0
6.8275,-14592.0,-7040.0,-128.0
6.83,-14592.0,-7040.0,-64.0
6.8325,-14592.0,-7040.0,-128.0
6.835,-14656.0,-7040.0,-192.0
6.8375,-14720.0,-7040.0,-128.0
6.84,-14720.0,-7040.0,-64.0
6.8425,-14656.0,-7040.0,-128.0
6.845,-14720.0,-6976.0,-128.0
6.8475,-14720.0,-6976.0,-128.0
6.85,-14720.0,-6976.0,-128.0
6.8525,-14720.0,-6976.0,-128.0
6.855,-14784.0,-7040.0,-128.0
6.8575,-14784.0,-7040.0,-64.0
6.86,-14848.0,-7040.0,-128.0
6.8625,-14848.0,-7104.0,-192.0
6.865,-14912.0,-7104.0,-128.0
6.8675,-14912.0,-7168.0,-128.0
6.87,-14976.0,-7104.0,-128.0
6.8725,-15040.0,-7104.0,-64.0
6.875,-14976.0,-7104.0,-192.0
6.8775,-15040.0,-7104.0,-192.0
6.88,-15040.0,-7104.0,-192.0
6.8825,-15040.0,-7040.0,-128.0
6.885,-15104.0,-7040.0,-128.0
6.8875,-15104.0,-7040.0,-128.0
6.89,-15104.0,-7104.0,-128.0
6.8925,-15168.0,-7040.0,-128.0
6.895,-15168.0,-6912.0,-128.0
6.8975,-15232.0,-6976.0,-128.0
6.9,-15232.0,-6912.0,-128.0
6.9025,-15168.0,-6912.0,-64.0
6.905,-15168.0,-6912.0,-64.0
6.9075,-15232.0,-6848.0,-64.0
6.91,-15232.0,-6848.0,-64.0
6.9125,-15232.0,-6912.0,192.0
6.915,-15296.0,-6848.0,64.0
6.9175,-15296.0,-6848.0,0.0
6.92,-15296.0,-6912.0,0.0
6.9225,-15296.0,-6912.0,0.0
6.925,-15296.0,-6912.0,-64.0
6.9275,-15232.0,-6848.0,-64.0
6.93,-15296.0,-6848.0,-128.0
6.9325,-15232.0,-6912.0,-64.0
6.935,-15232.0,-6848.0,-64.0
6.9375,-15232.0,-6848.0,0.0
6.94,-15232.0,-6848.0,-64.0
6.9425,-15168.0,-6848.0,-64.0
6.945,-15168.0,-6912.0,-64.0
6.9475,-15104.0,-6848.0,0.0
6.95,-15168.0,-6848.0,0.0
6.9525,-15104.0,-6912.0,-64.0
6.955,-15104.0,-6912.0,-128.0
6.9575,-15104.0,-6976.0,-128.0
6.96,-15104.0,-6976.0,-128.0
6.9625,-15104.0,-6976.0,-64.0
6.965,-15104.0,-6976.0,-128.0
6.9675,-15104.0,-6912.0,-192.0
6.97,-15104.0,-6912.0,-128.0
6.9725,-15040.0,-6912.0,-192.0
6.975,-15040.0,-6912.0,-128.0
6.9775,-15104.0,-6976.0,-128.0
6.98,-15040.0,-6976.0,-128.0
6.9825,-14976.0,-6912.0,-128.0
6.985,-15040.0,-6912.0,-64.0
6.9875,-14976.0,-6976.0,-64.0
6.99,-14976.0,-6912.0,0.0
6.9925,-15040.0,-6976.0,0.0
6.995,-15040.0,-6912.0,0.0
6.9975,-15040.0,-6848.0,0.0
7.0,-15040.0,-6848.0,0.0
7.0025,-14976.0,-6784.0,0.0
7.005,-14976.0,-6784.0,192.0
7.0075,-14976.0,-6784.0,256.0
7.01,-14912.0,-6784.0,128.0
7.0125,-14976.0,-6784.0,128.0
7.015,-14976.0,-6784.0,128.0
7.0175,-15040.0,-6720.0,128.0
7.02,-14976.0,-6656.0,192.0
7.0225,-14976.0,-6656.0,192.0
7.025,-14976.0,-6656.0,192.0
7.0275,-14976.0,-6720.0,192.0
7.03,-14976.0,-6784.0,256.0
7.0325,-14976.0,-6784.0,320.0
7.035,-14976.0,-6720.0,256.0
7.0375,-14976.0,-6720.0,256.0
7.04,-14976.0,-6720.0,256.0
7.0425,-14912.0,-6720.0,256.0
7.045,-14912.0,-6720.0,256.0
7.0475,-14912.0,-6784.0,256.0
7.05,-14912.0,-6784.0,256.0
7.0525,-14976.0,-6784.0,192.0
7.055,-14912.0,-6848.0,192.0
7.0575,-14976.0,-6912.0,192.0
7.06,-14912.0,-6848.0,192.0
7.0625,-14912.0,-6848.0,128.0
7.065,-14976.0,-6784.0,128.0
7.0675,-14976.0,-6848.0,128.0
7.07,-15104.0,-6848.0,128.0
7.0725,-14976.0,-6848.0,192.0
7.075,-14976.0,-6848.0,192.0
7.0775,-15040.0,-6784.0,256.0
7.08,-15104.0,-6784.0,192.0
7.0825,-15040.0,-6720.0,256.0
7.085,-14976.0,-6784.0,256.0
7.0875,-15040.0,-6784.0,320.0
7.09,-14976.0,-6784.0,320.0
7.0925,-15040.0,-6720.0,320.0
7.095,-15040.0,-6784.0,384.0
7.0975,-15040.0,-6784.0,448.0
7.1,-15040.0,-6784.0,512.0
7.1025,-15104.0,-6784.0,512.0
7.105,-15040.0,-6784.0,448.0
7.1075,-15040.0,-6784.0,448.0
7.11,-15040.0,-6848.0,448.0
7.1125,-15040.0,-6784.0,512.0
7.115,-15040.0,-6848.0,448.0
7.1175,-15040.0,-6784.0,448.0
7.12,-15040.0,-6784.0,320.0
7.1225,-15104.0,-6784.0,320.0
7.125,-15040.0,-6848.0,320.0
7.1275,-15040.0,-6848.0,256.0
7.13,-14976.0,-6912.0,256.0
7.1325,-15040.0,-6912.0,256.0
7.135,-15040.0,-6912.0,320.0
7.1375,-15040.0,-6912.0,320.0
7.14,-15040.0,-6912.0,192.0
7.1425,-15040.0,-6912.0,192.0
7.145,-15040.0,-6976.0,192.0
7.1475,-15040.0,-6976.0,192.0
7.15,-15104.0,-6976.0,256.0
7.1525,-15104.0,-6976.0,320.0
7.155,-15104.0,-7040.0,320.0
7.1575,-15104.0,-7040.0,320.0
7.16,-15104.0,-7040.0,320.0
7.1625,-15104.0,-6976.0,320.0
7.165,-15168.0,-7040.0,320.0
7.1675,-15168.0,-7040.0,384.0
7.17,-15104.0,-6976.0,448.0
7.1725,-15104.0,-7040.0,384.0
7.175,-15104.0,-7040.0,384.0
7.1775,-15168.0,-7040.0,384.0
7.18,-15104.0,-6976.0,448.0
7.1825,-15104.0,-6976.0,384.0
7.185,-15104.0,-6976.0,448.0
7.1875,-15040.0,-7040.0,384.0
7.19,-14976.0,-6976.0,384.0
7.1925,-14976.0,-7040.0,384.0
7.195,-14976.0,-7040.0,384.0
7.1975,-14976.0,-6976.0,384.0
7.2,-14976.0,-6912.0,384.0
7.2025,-14912.0,-7040.0,448.0
7.205,-14912.0,-7040.0,448.0
7.2075,-14912.0,-7104.0,384.0
7.21,-14848.0,-7040.0,384.0
7.2125,-14848.0,-7040.0,384.0
7.215,-14912.0,-7040.0,384.0
7.2175,-14848.0,-7040.0,384.0
7.22,-14784.0,-7040.0,448.0
7.2225,-14784.0,-7104.0,384.0
7.225,-14784.0,-7104.0,384.0
7.2275,-14784.0,-7040.0,384.0
7.23,-14784.0,-7040.0,320.0
7.2325,-14720.0,-6976.0,384.0
7.235,-14720.0,-6976.0,384.0
7.2375,-14720.0,-6912.0,384.0
7.24,-14656.0,-6976.0,384.0
7.2425,-14720.0,-6912.0,320.0
7.245,-14656.0,-6912.0,320.0
7.2475,-14656.0,-6976.0,256.0
7.25,-14720.0,-6976.0,256.0
7.2525,-14784.0,-6976.0,256.0
7.255,-14784.0,-6976.0,192.0
7.2575,-14720.0,-6912.0,192.0
7.26,-14784.0,-6976.0,256.0
7.2625,-14784.0,-6976.0,192.0
7.265,-14848.0,-6912.0,192.0
7.2675,-14848.0,-6912.0,192.0
7.27,-14848.0,-6976.0,192.0
7.2725,-14848.0,-6912.0,192.0
7.275,-14784.0,-6912.0,128.0
7.2775,-14848.0,-6912.0,128.0
7.28,-14912.0,-6912.0,192.0
7.2825,-14912.0,-6912.0,192.0
7.285,-14976.0,-6784.0,256.0
7.2875,-14912.0,-6784.0,192.0
7.29,-14912.0,-6784.0,192.0
7.2925,-14912.0,-6784.0,256.0
7.295,-14912.0,-6720.0,256.0
7.2975,-14912.0,-6656.0,256.0
7.3,-14912.0,-6720.0,256.0
7.3025,-14912.0,-6720.0,256.0
7.305,-14848.0,-6720.0,256.0
7.3075,-14784.0,-6720.0,192.0
7.31,-14784.0,-6720.0,192.0
7.3125,-14848.0,-6656.0,128.0
7.315,-14848.0,-6656.0,128.0
7.3175,-14848.0,-6656.0,64.0
7.32,-14848.0,-6656.0,64.0
7.3225,-14912.0,-6656.0,64.0
7.325,-14848.0,-6656.0,-64.0
7.3275,-14912.0,-6656.0,0.0
7.33,-14912.0,-6592.0,0.0
7.3325,-14912.0,-6592.0,0.0
7.335,-14848.0,-6656.0,0.0
7.3375,-14912.0,-6592.0,64.0
7.34,-14912.0,-6592.0,64.0
7.3425,-14976.0,-6528.0,64.0
7.345,-14976.0,-6528.0,64.0
7.3475,-14976.0,-6592.0,0.0
7.35,-14912.0,-6592.0,64.0
7.3525,-14976.0,-6592.0,0.0
7.355,-14976.0,-6592.0,0.0
7.3575,-15040.0,-6528.0,64.0
7.36,-14976.0,-6592.0,0.0
7.3625,-15040.0,-6656.0,64.0
7.365,-15040.0,-6592.0,64.0
7.3675,-15040.0,-6592.0,64.0
7.37,-15104.0,-6592.0,0.0
7.3725,-15104.0,-6528.0,64.0
7.375,-15232.0,-6528.0,64.0
7.3775,-15168.0,-6592.0,64.0
7.38,-15232.0,-6592.0,64.0
7.3825,-15232.0,-6592.0,0.0
7.385,-15296.0,-6592.0,-64.0
7.3875,-15296.0,-6592.0,-64.0
7.39,-15360.0,-6592.0,-64.0
7.3925,-15296.0,-6656.0,64.0
7.395,-15296.0,-6656.0,64.0
7.3975,-15232.0,-6592.0,64.0
7.4,-15296.0,-6592.0,64.0
7.4025,-15296.0,-6656.0,64.0
7.405,-15296.0,-6720.0,0.0
7.4075,-15296.0,-6784.0,-64.0
7.41,-15296.0,-6784.0,-64.0
7.4125,-15424.0,-6848.0,-64.0
7.415,-15360.0,-6784.0,-64.0
7.4175,-15360.0,-6784.0,-64.0
7.42,-15424.0,-6784.0,-128.0
7.4225,-15424.0,-6848.0,-64.0
7.425,-15296.0,-6848.0,-64.0
7.4275,-15296.0,-6848.0,0.0
7.43,-15296.0,-6848.0,64.0
7.4325,-15232.0,-6784.0,64.0
7.435,-15296.0,-6848.0,64.0
7.4375,-15360.0,-6784.0,0.0
7.44,-15360.0,-6784.0,64.0
7.4425,-15296.0,-6784.0,128.0
7.445,-15296.0,-6784.0,0.0
7.4475,-15232.0,-6848.0,64.0
7.45,-15232.0,-6848.0,192.0
7.4525,-15168.0,-6848.0,128.0
7.455,-15168.0,-6912.0,128.0
7.4575,-15168.0,-6912.0,128.0
7.46,-15168.0,-6912.0,128.0
7.4625,-15168.0,-7040.0,128.0
7.465,-15168.0,-7040.0,64.0
7.4675,-15168.0,-7040.0,0.0
7.47,-15168.0,-7040.0,0.0
7.4725,-15168.0,-7104.0,64.0
7.475,-15232.0,-7104.0,64.0
7.4775,-15232.0,-7168.0,128.0
7.48,-15104.0,-7168.0,128.0
7.4825,-15168.0,-7168.0,128.0
7.485,-15168.0,-7104.0,192.0
7.4875,-15168.0,-7104.0,192.0
7.49,-15168.0,-7104.0,128.0
7.4925,-15104.0,-7168.0,128.0
7.495,-15104.0,-7232.0,128.0
7.4975,-15104.0,-7104.0,192.0
7.5,-15168.0,-7104.0,256.0
7.5025,-15104.0,-7168.0,192.0
7.505,-15040.0,-7104.0,320.0
7.5075,-14976.0,-7040.0,320.0
7.51,-14976.0,-7040.0,320.0
7.5125,-14976.0,-7104.0,320.0
7.515,-14976.0,-7104.0,384.0
7.5175,-14912.0,-7040.0,320.0
7.52,-14976.0,-6976.0,384.0
7.5225,-14976.0,-7040.0,384.0
7.525,-14976.0,-7040.0,384.0
7.5275,-15040.0,-7104.0,448.0
7.53,-15104.0,-7104.0,384.0
7.5325,-14976.0,-6976.0,384.0
7.535,-15040.0,-7040.0,384.0
7.5375,-15040.0,-7040.0,384.0
7.54,-15104.0,-7040.0,448.0
7.5425,-15168.0,-7040.0,384.0
7.545,-15232.0,-6976.0,448.0
7.5475,-15232.0,-6976.0,448.0
7.55,-15296.0,-6976.0,448.0
7.5525,-15296.0,-6976.0,448.0
7.555,-15296.0,-6976.0,448.0
7.5575,-15360.0,-6976.0,448.0
7.56,-15296.0,-6976.0,384.0
7.5625,-15360.0,-6976.0,384.0
7.565,-15360.0,-6912.0,384.0
7.5675,-15360.0,-6976.0,384.0
7.57,-15360.0,-6976.0,384.0
7.5725,-15296.0,-6976.0,384.0
7.575,-15360.0,-6912.0,320.0
7.5775,-15360.0,-6912.0,448.0
7.58,-15296.0,-6976.0,384.0
7.5825,-15168.0,-6976.0,384.0
7.585,-15168.0,-6976.0,384.0
7.5875,-15168.0,-6912.0,384.0
7.59,-15168.0,-6976.0,448.0
7.5925,-15232.0,-6976.0,512.0
7.595,-15168.0,-6912.0,384.0
7.5975,-15168.0,-6912.0,448.0
7.6,-15104.0,-6848.0,512.0
7.6025,-15104.0,-6848.0,512.0
7.605,-15168.0,-6784.0,576.0
7.6075,-15104.0,-6784.0,512.0
7.61,-15040.0,-6784.0,576.0
7.6125,-15104.0,-6720.0,640.0
7.615,-15040.0,-6720.0,640.0
7.6175,-15040.0,-6720.0,640.0
7.62,-15040.0,-6720.0,576.0
7.6225,-15040.0,-6720.0,512.0
7.625,-15040.0,-6784.0,512.0
7.6275,-14976.0,-6848.0,512.0
7.63,-14976.0,-6848.0,512.0
7.6325,-14848.0,-6848.0,512.0
7.635,-14848.0,-6848.0,512.0
7.6375,-14848.0,-6848.0,512.0
7.64,-14912.0,-6912.0,512.0
7.6425,-14912.0,-6976.0,576.0
7.645,-14912.0,-6912.0,512.0
7.6475,-14848.0,-6912.0,448.0
7.65,-14848.0,-6912.0,448.0
7.6525,-14848.0,-6976.0,576.0
7.655,-14848.0,-6976.0,576.0
7.6575,-14912.0,-6976.0,640.0
7.66,-14976.0,-6976.0,576.0
7.6625,-14912.0,-6912.0,576.0
7.665,-14912.0,-6912.0,512.0
7.6675,-14912.0,-6848.0,576.0
7.67,-14976.0,-6848.0,512.0
7.6725,-14976.0,-6912.0,512.0
7.675,-14912.0,-6848.0,448.0
7.6775,-14912.0,-6912.0,448.0
7.68,-14976.0,-6912.0,448.0
7.6825,-14976.0,-6912.0,448.0
7.685,-14976.0,-6912.0,512.0
7.6875,-15040.0,-6848.0,448.0
7.69,-15040.0,-6912.0,512.0
7.6925,-15104.0,-6976.0,512.0
7.695,-15040.0,-6976.0,512.0
7.6975,-15104.0,-6976.0,448.0
7.7,-15104.0,-7040.0,448.0
7.7025,-15104.0,-7040.0,512.0
7.705,-15168.0,-7040.0,448.0
7.7075,-15168.0,-6976.0,448.0
7.71,-15232.0,-7040.0,384.0
7.7125,-15232.0,-6848.0,384.0
7.715,-15168.0,-6784.0,448.0
7.7175,-15296.0,-6784.0,448.0
7.72,-15360.0,-6784.0,384.0
7.7225,-15360.0,-6720.0,448.0
7.725,-15360.0,-6720.0,448.0
7.7275,-15424.0,-6784.0,384.0
7.73,-15488.0,-6784.0,448.0
7.7325,-15424.0,-6720.0,448.0
7.735,-15424.0,-6784.0,512.0
7.7375,-15424.0,-6848.0,512.0
7.74,-15488.0,-6848.0,448.0
7.7425,-15488.0,-6848.0,512.0
7.745,-15488.0,-6784.0,448.0
7.7475,-15424.0,-6784.0,448.0
7.75,-15424.0,-6784.0,512.0
7.7525,-15424.0,-6848.0,512.0
7.755,-15488.0,-6848.0,512.0
7.7575,-15424.0,-6848.0,512.0
7.76,-15360.0,-6848.0,384.0
7.7625,-15360.0,-6912.0,448.0
7.765,-15296.0,-6912.0,448.0
7.7675,-15296.0,-6976.0,384.0
7.77,-15232.0,-6976.0,384.0
7.7725,-15296.0,-6976.0,448.0
7.775,-15232.0,-6976.0,384.0
7.7775,-15232.0,-6976.0,448.0
7.78,-15168.0,-6976.0,384.0
7.7825,-15232.0,-6976.0,384.0
7.785,-15168.0,-7040.0,448.0
7.7875,-15168.0,-6976.0,512.0
7.79,-15168.0,-6976.0,512.0
7.7925,-15040.0,-6848.0,448.0
7.795,-15104.0,-6912.0,448.0
7.7975,-15040.0,-6912.0,448.0
7.8,-15040.0,-6848.0,512.0
7.8025,-15040.0,-6848.0,512.0
7.805,-14912.0,-6848.0,512.0
7.8075,-14912.0,-6848.0,448.0
7.81,-14912.0,-6784.0,448.0
7.8125,-14912.0,-6784.0,448.0
7.815,-14848.0,-6848.0,448.0
7.8175,-14784.0,-6848.0,448.0
7.82,-14784.0,-6912.0,384.0
7.8225,-14720.0,-6848.0,320.0
7.825,-14720.0,-6848.0,320.0
7.8275,-14656.0,-6912.0,384.0
7.83,-14656.0,-6912.0,320.0
7.8325,-14592.0,-6848.0,384.0
7.835,-14592.0,-6848.0,320.0
7.8375,-14592.0,-6912.0,320.0
7.84,-14592.0,-6912.0,320.0
7.8425,-14592.0,-6912.0,192.0
7.845,-14592.0,-6912.0,192.0
7.8475,-14528.0,-6912.0,128.0
7.85,-14656.0,-6848.0,256.0
7.8525,-14656.0,-6848.0,256.0
7.855,-14656.0,-6848.0,192.0
7.8575,-14720.0,-6848.0,128.0
7.86,-14656.0,-6848.0,128.0
7.8625,-14592.0,-6912.0,256.0
7.865,-14720.0,-6976.0,256.0
7.8675,-14656.0,-6912.0,256.0
7.87,-14656.0,-6912.0,256.0
7.8725,-14720.0,-6784.0,256.0
7.875,-14720.0,-6912.0,256.0
7.8775,-14784.0,-6848.0,256.0
7.88,-14784.0,-6784.0,256.0
7.8825,-14848.0,-6720.0,256.0
7.885,-14848.0,-6784.0,320.0
7.8875,-14784.0,-6848.0,320.0
7.89,-14784.0,-6784.0,320.0
7.8925,-14784.0,-6784.0,320.0
7.895,-14848.0,-6784.0,320.0
7.8975,-14848.0,-6720.0,192.0
7.9,-14848.0,-6656.0,256.0
7.9025,-14784.0,-6720.0,192.0
7.905,-14848.0,-6656.0,192.0
7.9075,-14784.0,-6656.0,192.0
7.91,-14784.0,-6656.0,128.0
7.9125,-14784.0,-6720.0,192.0
7.915,-14848.0,-6656.0,192.0
7.9175,-14848.0,-6720.0,128.0
7.92,-14848.0,-6656.0,128.0
7.9225,-14912.0,-6720.0,64.0
7.925,-14976.0,-6656.0,-64.0
7.9275,-14912.0,-6720.0,64.0
7.93,-14912.0,-6720.0,0.0
7.9325,-14912.0,-6720.0,64.0
7.935,-14976.0,-6656.0,64.0
7.9375,-15040.0,-6592.0,128.0
7.94,-15040.0,-6656.0,64.0
7.9425,-15040.0,-6592.0,0.0
7.945,-15040.0,-6656.0,64.0
7.9475,-15104.0,-6592.0,64.0
7.95,-15040.0,-6592.0,128.0
7.9525,-15104.0,-6528.0,128.0
7.955,-15040.0,-6528.0,128.0
7.9575,-15168.0,-6464.0,192.0
7.96,-15104.0,-6464.0,128.0
7.9625,-15168.0,-6464.0,64.0
7.965,-15168.0,-6464.0,64.0
7.9675,-15168.0,-6464.0,0.0
7.97,-15232.0,-6464.0,0.0
7.9725,-15232.0,-6464.0,0.0
7.975,-15168.0,-6464.0,0.0
7.9775,-15232.0,-6400.0,0.0
7.98,-15296.0,-6400.0,64.0
7.9825,-15232.0,-6400.0,128.0
7.985,-15232.0,-6400.0,192.0
7.9875,-15232.0,-6464.0,192.0
7.99,-15168.0,-6400.0,192.0
7.9925,-15168.0,-6400.0,128.0
7.995,-15104.0,-6400.0,192.0
7.9975,-15104.0,-6464.0,192.0
8.0,-15104.0,-6464.0,192.0
8.0025,-15040.0,-6464.0,192.0
8.005,-15040.0,-6464.0,256.0
8.0075,-15040.0,-6464.0,192.0
8.01,-14976.0,-6464.0,192.0
8.0125,-14976.0,-6464.0,192.0
8.015,-14912.0,-6400.0,128.0
8.0175,-14912.0,-6528.0,64.0
8.02,-14848.0,-6528.0,128.0
8.0225,-14848.0,-6528.0,0.0
8.025,-14784.0,-6592.0,0.0
8.0275,-14784.0,-6528.0,0.0
8.03,-14720.0,-6592.0,0.0
8.0325,-14720.0,-6592.0,-128.0
8.035,-14720.0,-6592.0,-128.0
8.0375,-14720.0,-6592.0,-128.0
8.04,-14784.0,-6656.0,-128.0
8.0425,-14784.0,-6592.0,-192.0
8.045,-14784.0,-6656.0,-192.0
8.0475,-14784.0,-6656.0,-256.0
8.05,-14720.0,-6720.0,-128.0
8.0525,-14720.0,-6720.0,-64.0
8.055,-14720.0,-6656.0,0.0
8.0575,-14784.0,-6720.0,64.0
8.06,-14848.0,-6720.0,128.0
8.0625,-14848.0,-6656.0,128.0
8.065,-14848.0,-6656.0,64.0
8.0675,-14848.0,-6656.0,128.0
8.07,-14848.0,-6592.0,192.0
8.0725,-14784.0,-6656.0,192.0
8.075,-14848.0,-6656.0,192.0
8.0775,-14848.0,-6656.0,192.0
8.08,-14848.0,-6656.0,192.0
8.0825,-14848.0,-6656.0,192.0
8.085,-14848.0,-6720.0,192.0
8.0875,-14912.0,-6720.0,128.0
8.09,-14912.0,-6784.0,128.0
8.0925,-14912.0,-6720.0,128.0
8.095,-14976.0,-6784.0,128.0
8.0975,-15040.0,-6720.0,128.0
8.1,-15040.0,-6784.0,192.0
8.1025,-15040.0,-6720.0,192.0
8.105,-15104.0,-6784.0,192.0
8.1075,-15104.0,-6784.0,192.0
8.11,-15104.0,-6784.0,192.0
8.1125,-15232.0,-6784.0,256.0
8.115,-15232.0,-6784.0,256.0
8.1175,-15296.0,-6912.0,256.0
8.12,-15232.0,-6848.0,320.0
8.1225,-15296.0,-6848.0,384.0
8.125,-15296.0,-6784.0,384.0
8.1275,-15296.0,-6848.0,384.0
8.13,-15296.0,-6848.0,448.0
8.1325,-15232.0,-6848.0,384.0
8.135,-15232.0,-6912.0,448.0
8.1375,-15296.0,-6912.0,448.0
8.14,-15232.0,-6912.0,448.0
8.1425,-15232.0,-6848.0,384.0
8.145,-15232.0,-6976.0,448.0
8.1475,-15232.0,-7040.0,448.0
8.15,-15104.0,-6976.0,512.0
8.1525,-15104.0,-7040.0,384.0
8.155,-15104.0,-7104.0,384.0
8.1575,-15104.0,-7168.0,320.0
8.16,-15040.0,-7232.0,320.0
8.1625,-15040.0,-7232.0,256.0
8.165,-14976.0,-7296.0,256.0
8.1675,-14976.0,-7296.0,256.0
8.17,-14848.0,-7360.0,256.0
8.1725,-14848.0,-7296.0,192.0
8.175,-14720.0,-7296.0,192.0
8.1775,-14720.0,-7296.0,192.0
8.18,-14720.0,-7296.0,128.0
8.1825,-14720.0,-7296.0,128.0
8.185,-14720.0,-7296.0,192.0
8.1875,-14720.0,-7296.0,192.0
8.19,-14656.0,-7296.0,256.0
8.1925,-14848.0,-7360.0,192.0
8.195,-14720.0,-7360.0,256.0
8.1975,-14720.0,-7360.0,384.0
8.2,-14720.0,-7360.0,384.0
8.2025,-14784.0,-7296.0,384.0
8.205,-14784.0,-7360.0,384.0
8.2075,-14784.0,-7360.0,320.0
8.21,-14912.0,-7296.0,384.0
8.2125,-14976.0,-7360.0,448.0
8.215,-14976.0,-7360.0,448.0
8.2175,-14976.0,-7360.0,512.0
8.22,-14976.0,-7296.0,512.0
8.2225,-15040.0,-7296.0,512.0
8.225,-15104.0,-7232.0,512.0
8.2275,-15104.0,-7232.0,448.0
8.23,-15040.0,-7168.0,512.0
8.2325,-15104.0,-7168.0,512.0
8.235,-15104.0,-7104.0,512.0
8.2375,-15040.0,-7040.0,512.0
8.24,-15040.0,-6976.0,512.0
8.2425,-15040.0,-6976.0,512.0
8.245,-15040.0,-7040.0,448.0
8.2475,-14976.0,-7040.0,512.0
8.25,-14912.0,-7040.0,512.0
8.2525,-14912.0,-7040.0,512.0
8.255,-14912.0,-7040.0,512.0
8.2575,-14784.0,-7040.0,512.0
8.26,-14848.0,-7040.0,512.0
8.2625,-14784.0,-6976.0,448.0
8.265,-14848.0,-6976.0,448.0
8.2675,-14848.0,-6976.0,448.0
8.27,-14848.0,-6976.0,384.0
8.2725,-14848.0,-6912.0,320.0
8.275,-14848.0,-6848.0,384.0
8.2775,-14912.0,-6912.0,384.0
8.28,-14848.0,-6848.0,320.0
8.2825,-14848.0,-6784.0,320.0
8.285,-14912.0,-6784.0,320.0
8.2875,-14912.0,-6784.0,256.0
8.29,-14912.0,-6784.0,320.0
8.2925,-14976.0,-6720.0,256.0
8.295,-14976.0,-6720.0,256.0
8.2975,-14912.0,-6720.0,192.0
8.3,-14912.0,-6720.0,128.0
8.3025,-14912.0,-6720.0,192.0
8.305,-14976.0,-6720.0,192.0
8.3075,-14976.0,-6784.0,128.0
8.31,-14912.0,-6784.0,128.0
8.3125,-14912.0,-6784.0,128.0
8.315,-14848.0,-6720.0,192.0
8.3175,-14784.0,-6720.0,256.0
8.32,-14848.0,-6720.0,256.0
8.3225,-14848.0,-6720.0,192.0
8.325,-14848.0,-6720.0,192.0
8.3275,-14784.0,-6656.0,192.0
8.33,-14784.0,-6592.0,192.0
8.3325,-14784.0,-6592.0,64.0
8.335,-14784.0,-6656.0,64.0
8.3375,-14784.0,-6656.0,0.0
8.34,-14720.0,-6720.0,-64.0
8.3425,-14784.0,-6720.0,0.0
8.345,-14784.0,-6784.0,0.0
8.3475,-14784.0,-6720.0,0.0
8.35,-14848.0,-6720.0,0.0
8.3525,-14848.0,-6784.0,-128.0
8.355,-14912.0,-6784.0,-192.0
8.3575,-14912.0,-6912.0,-192.0
8.36,-14976.0,-6912.0,-64.0
8.3625,-15040.0,-6976.0,-64.0
8.365,-15104.0,-7040.0,-64.0
8.3675,-15168.0,-7104.0,-64.0
8.37,-15168.0,-7104.0,-64.0
8.3725,-15296.0,-7168.0,-128.0
8.375,-15296.0,-7168.0,-64.0
8.3775,-15360.0,-7232.0,0.0
8.38,-15488.0,-7296.0,-64.0
8.3825,-15616.0,-7296.0,-64.0
8.385,-15744.0,-7360.0,-128.0
8.3875,-15808.0,-7296.0,-128.0
8.39,-15872.0,-7360.0,-64.0
8.3925,-15936.0,-7360.0,-64.0
8.395,-16000.0,-7360.0,-64.0
8.3975,-16000.0,-7296.0,0.0
8.4,-16064.0,-7296.0,0.0
8.4025,-16064.0,-7296.0,64.0
8.405,-16064.0,-7296.0,64.0
8.4075,-16064.0,-7296.0,128.0
8.41,-16064.0,-7296.0,64.0
8.4125,-16192.0,-7296.0,64.0
8.415,-16192.0,-7296.0,64.0
8.4175,-16128.0,-7232.0,64.0
8.42,-16064.0,-7232.0,64.0
8.4225,-16064.0,-7232.0,0.0
8.425,-16128.0,-7232.0,64.0
8.4275,-16000.0,-7168.0,64.0
8.43,-16000.0,-7168.0,64.0
8.4325,-15936.0,-7104.0,-64.0
8.435,-15936.0,-7040.0,-192.0
8.4375,-15936.0,-7104.0,-320.0
8.44,-15936.0,-7104.0,-384.0
8.4425,-16000.0,-7040.0,-512.0
8.445,-16000.0,-6976.0,-512.0
8.4475,-15872.0,-6912.0,-512.0
8.45,-15872.0,-6912.0,-576.0
8.4525,-15808.0,-6848.0,-576.0
8.455,-15808.0,-6784.0,-640.0
8.4575,-15808.0,-6656.0,-640.0
8.46,-15680.0,-6720.0,-704.0
8.4625,-15616.0,-6656.0,-704.0
8.465,-15488.0,-6592.0,-768.0
8.4675,-15360.0,-6592.0,-768.0
8.47,-15232.0,-6592.0,-768.0
8.4725,-15168.0,-6528.0,-768.0
8.475,-15040.0,-6528.0,-768.0
8.4775,-14848.0,-6528.0,-768.0
8.48,-14720.0,-6464.0,-768.0
8.4825,-14656.0,-6528.0,-832.0
8.485,-14592.0,-6592.0,-832.0
8.4875,-14464.0,-6656.0,-704.0
8.49,-14336.0,-6528.0,-704.0
8.4925,-14272.0,-6464.0,-704.0
8.495,-14144.0,-6464.0,-640.0
8.4975,-14080.0,-6272.0,-640.0
8.5,-13952.0,-6208.0,-640.0
8.5025,-13952.0,-6144.0,-768.0
8.505,-13824.0,-6208.0,-768.0
8.5075,-13760.0,-6208.0,-768.0
8.51,-13696.0,-6272.0,-704.0
8.5125,-13568.0,-6336.0,-640.0
8.515,-13504.0,-6272.0,-640.0
8.5175,-13440.0,-6272.0,-640.0
8.52,-13440.0,-6336.0,-704.0
8.5225,-13312.0,-6208.0,-704.0
8.525,-13312.0,-6208.0,-640.0
8.5275,-13184.0,-6272.0,-704.0
8.53,-13120.0,-6272.0,-704.0
8.5325,-13056.0,-6208.0,-704.0
8.535,-13056.0,-6144.0,-704.0
8.5375,-13056.0,-6144.0,-704.0
8.54,-12992.0,-6208.0,-576.0
8.5425,-12992.0,-6144.0,-576.0
8.545,-12928.0,-6272.0,-512.0
8.5475,-12928.0,-6208.0,-512.0
8.55,-12928.0,-6208.0,-512.0
8.5525,-12928.0,-6272.0,-512.0
8.555,-12864.0,-6272.0,-512.0
8.5575,-12864.0,-6336.0,-576.0
8.56,-12928.0,-6336.0,-576.0
8.5625,-12992.0,-6400.0,-640.0
8.565,-13056.0,-6528.0,-640.0
8.5675,-13184.0,-6592.0,-640.0
8.57,-13312.0,-6656.0,-704.0
8.5725,-13376.0,-6720.0,-704.0
8.575,-13504.0,-6848.0,-704.0
8.5775,-13632.0,-6848.0,-768.0
8.58,-13696.0,-6848.0,-832.0
8.5825,-13824.0,-6976.0,-960.0
8.585,-13952.0,-7040.0,-896.0
8.5875,-14080.0,-7040.0,-960.0
8.59,-14272.0,-7168.0,-896.0
8.5925,-14656.0,-7296.0,-896.0
8.595,-14784.0,-7360.0,-768.0
8.5975,-14912.0,-7424.0,-832.0
8.6,-15104.0,-7424.0,-704.0
8.6025,-15232.0,-7488.0,-768.0
8.605,-15488.0,-7552.0,-576.0
8.6075,-15616.0,-7488.0,-512.0
8.61,-15808.0,-7424.0,-512.0
8.6125,-15936.0,-7424.0,-512.0
8.615,-16064.0,-7424.0,-448.0
8.6175,-16128.0,-7360.0,-384.0
8.62,-16256.0,-7360.0,-320.0
8.6225,-16384.0,-7360.0,-384.0
8.625,-16512.0,-7488.0,-320.0
8.6275,-16576.0,-7552.0,-320.0
8.63,-16576.0,-7616.0,-192.0
8.6325,-16704.0,-7488.0,-128.0
8.635,-16832.0,-7488.0,-192.0
8.6375,-16896.0,-7488.0,-320.0
8.64,-16832.0,-7680.0,-512.0
8.6425,-16832.0,-7744.0,-640.0
8.645,-16832.0,-7808.0,-768.0
8.6475,-16960.0,-7744.0,-768.0
8.65,-16960.0,-7808.0,-832.0
8.6525,-16896.0,-7808.0,-768.0
8.655,-16832.0,-7744.0,-704.0
8.6575,-16832.0,-7616.0,-640.0
8.66,-16832.0,-7680.0,-576.0
8.6625,-16704.0,-7616.0,-576.0
8.665,-16704.0,-7616.0,-576.0
8.6675,-16640.0,-7680.0,-576.0
8.67,-16576.0,-7680.0,-576.0
8.6725,-16448.0,-7744.0,-512.0
8.675,-16256.0,-7680.0,-448.0
8.6775,-16128.0,-7680.0,-384.0
8.68,-16064.0,-7552.0,-192.0
8.6825,-16000.0,-7552.0,-64.0
8.685,-15936.0,-7488.0,128.0
8.6875,-15872.0,-7488.0,128.0
8.69,-15808.0,-7424.0,256.0
8.6925,-15744.0,-7488.0,384.0
8.695,-15616.0,-7424.0,384.0
8.6975,-15552.0,-7424.0,384.0
8.7,-15424.0,-7360.0,384.0
8.7025,-15296.0,-7296.0,384.0
8.705,-15232.0,-7296.0,448.0
8.7075,-15168.0,-7232.0,448.0
8.71,-15040.0,-7296.0,448.0
8.7125,-15040.0,-7168.0,384.0
8.715,-14848.0,-7168.0,448.0
8.7175,-14784.0,-7168.0,384.0
8.72,-14720.0,-7104.0,320.0
8.7225,-14720.0,-7040.0,256.0
8.725,-14656.0,-6976.0,256.0
8.7275,-14592.0,-6976.0,192.0
8.73,-14528.0,-6912.0,64.0
8.7325,-14336.0,-6912.0,0.0
8.735,-14336.0,-6912.0,0.0
8.7375,-14272.0,-6976.0,-64.0
8.74,-14272.0,-7040.0,-64.0
8.7425,-14272.0,-6976.0,-128.0
8.745,-14208.0,-7040.0,-128.0
8.7475,-14208.0,-7040.0,-128.0
8.75,-14208.0,-6976.0,-128.0
8.7525,-14272.0,-6912.0,-128.0
8.755,-14208.0,-6912.0,-64.0
8.7575,-14208.0,-6976.0,-64.0
8.76,-14208.0,-7040.0,-64.0
8.7625,-14208.0,-7040.0,64.0
8.765,-14208.0,-7104.0,128.0
8.7675,-14208.0,-7040.0,128.0
8.77,-14272.0,-7040.0,64.0
8.7725,-14272.0,-7104.0,128.0
8.775,-14336.0,-7040.0,128.0
8.7775,-14400.0,-7104.0,192.0
8.78,-14400.0,-7104.0,128.0
8.7825,-14400.0,-7040.0,128.0
8.785,-14400.0,-7104.0,64.0
8.7875,-14464.0,-7040.0,64.0
8.79,-14464.0,-6976.0,-64.0
8.7925,-14528.0,-6976.0,-128.0
8.795,-14528.0,-6976.0,-192.0
8.7975,-14528.0,-6912.0,-256.0
8.8,-14656.0,-6976.0,-320.0
8.8025,-14656.0,-6976.0,-320.0
8.805,-14784.0,-6976.0,-384.0
8.8075,-14912.0,-6912.0,-384.0
8.81,-14912.0,-6912.0,-448.0
8.8125,-14976.0,-6848.0,-448.0
8.815,-15040.0,-6848.0,-512.0
8.8175,-15104.0,-6848.0,-448.0
8.82,-15232.0,-6912.0,-512.0
8.8225,-15232.0,-6976.0,-512.0
8.825,-15232.0,-6912.0,-512.0
8.8275,-15360.0,-6912.0,-512.0
8.83,-15424.0,-6912.0,-512.0
8.8325,-15360.0,-6976.0,-512.0
8.835,-15424.0,-6912.0,-448.0
8.8375,-15424.0,-6976.0,-512.0
8.84,-15424.0,-6976.0,-448.0
8.8425,-15552.0,-6848.0,-448.0
8.845,-15552.0,-6976.0,-512.0
8.8475,-15552.0,-6976.0,-384.0
8.85,-15616.0,-6912.0,-384.0
8.8525,-15616.0,-6976.0,-384.0
8.855,-15552.0,-6912.0,-512.0
8.8575,-15552.0,-6912.0,-448.0
8.86,-15488.0,-6912.0,-448.0
8.8625,-15424.0,-6784.0,-448.0
8.865,-15424.0,-6784.0,-384.0
8.8675,-15424.0,-6720.0,-448.0
8.87,-15424.0,-6720.0,-384.0
8.8725,-15424.0,-6656.0,-384.0
8.875,-15424.0,-6656.0,-384.0
8.8775,-15424.0,-6656.0,-384.0
8.88,-15296.0,-6592.0,-384.0
8.8825,-15296.0,-6592.0,-384.0
8.885,-15296.0,-6528.0,-384.0
8.8875,-15296.0,-6528.0,-384.0
8.89,-15296.0,-6528.0,-384.0
8.8925,-15168.0,-6528.0,-384.0
8.895,-15168.0,-6528.0,-384.0
8.8975,-15104.0,-6464.0,-384.0
8.9,-15168.0,-6464.0,-320.0
8.9025,-15104.0,-6464.0,-256.0
8.905,-15104.0,-6400.0,-256.0
8.9075,-15040.0,-6400.0,-192.0
8.91,-15040.0,-6400.0,-256.0
8.9125,-15040.0,-6400.0,-128.0
8.915,-14976.0,-6400.0,-192.0
8.9175,-14976.0,-6400.0,-192.0
8.92,-14912.0,-6400.0,-256.0
8.9225,-14912.0,-6464.0,-256.0
8.925,-14848.0,-6464.0,-192.0
8.9275,-14848.0,-6464.0,-128.0
8.93,-14848.0,-6464.0,-128.0
8.9325,-14784.0,-6464.0,-192.0
8.935,-14784.0,-6464.0,-192.0
8.9375,-14784.0,-6464.0,-192.0
8.94,-14784.0,-6528.0,-192.0
8.9425,-14784.0,-6528.0,-192.0
8.945,-14656.0,-6528.0,-256.0
8.9475,-14656.0,-6592.0,-192.0
8.95,-14592.0,-6592.0,-256.0
8.9525,-14656.0,-6592.0,-256.0
8.955,-14528.0,-6656.0,-320.0
8.9575,-14592.0,-6720.0,-320.0
8.96,-14592.0,-6656.0,-320.0
8.9625,-14592.0,-6720.0,-384.0
8.965,-14592.0,-6720.0,-448.0
8.9675,-14528.0,-6720.0,-448.0
8.97,-14528.0,-6720.0,-448.0
8.9725,-14528.0,-6720.0,-448.0
8.975,-14464.0,-6784.0,-448.0
8.9775,-14592.0,-6784.0,-512.0
8.98,-14528.0,-6784.0,-512.0
8.9825,-14528.0,-6848.0,-512.0
8.985,-14528.0,-6848.0,-576.0
8.9875,-14464.0,-6784.0,-576.0
8.99,-14464.0,-6848.0,-704.0
8.9925,-14464.0,-6784.0,-704.0
8.995,-14464.0,-6848.0,-704.0
8.9975,-14528.0,-6848.0,-704.0
9.0,-14592.0,-6848.0,-704.0
9.0025,-14592.0,-6784.0,-704.0
9.005,-14656.0,-6784.0,-640.0
9.0075,-14720.0,-6784.0,-704.0
9.01,-14720.0,-6848.0,-768.0
9.0125,-14720.0,-6848.0,-832.0
9.015,-14784.0,-6912.0,-832.0
9.0175,-14784.0,-6912.0,-896.0
9.02,-14720.0,-6848.0,-896.0
9.0225,-14784.0,-6848.0,-896.0
9.025,-14848.0,-6848.0,-832.0
9.0275,-14848.0,-6848.0,-896.0
9.03,-14784.0,-6912.0,-896.0
9.0325,-14848.0,-6912.0,-896.0
9.035,-14848.0,-6848.0,-896.0
9.0375,-14848.0,-6912.0,-832.0
9.04,-14848.0,-6976.0,-896.0
9.0425,-14848.0,-7104.0,-896.0
9.045,-14848.0,-7040.0,-832.0
9.0475,-14912.0,-6976.0,-768.0
9.05,-14912.0,-7040.0,-768.0
9.0525,-14848.0,-7040.0,-768.0
9.055,-14848.0,-7040.0,-768.0
9.0575,-14848.0,-7104.0,-768.0
9.06,-14784.0,-7040.0,-768.0
9.0625,-14912.0,-7168.0,-768.0
9.065,-14912.0,-7040.0,-768.0
9.0675,-14912.0,-7104.0,-704.0
9.07,-14912.0,-6976.0,-768.0
9.0725,-14912.0,-6912.0,-832.0
9.075,-14912.0,-6976.0,-768.0
9.0775,-14912.0,-6912.0,-832.0
9.08,-14976.0,-6976.0,-832.0
9.0825,-14912.0,-6976.0,-896.0
9.085,-14912.0,-6976.0,-1024.0
9.0875,-14912.0,-6976.0,-960.0
9.09,-14912.0,-7040.0,-1024.0
9.0925,-14912.0,-7040.0,-1024.0
9.095,-14912.0,-7040.0,-960.0
9.0975,-14912.0,-7104.0,-960.0
9.1,-14976.0,-7040.0,-1024.0
9.1025,-14976.0,-7104.0,-1088.0
9.105,-14976.0,-7168.0,-1024.0
9.1075,-15040.0,-7168.0,-1024.0
9.11,-15040.0,-7232.0,-960.0
9.1125,-15040.0,-7232.0,-960.0
9.115,-15104.0,-7232.0,-960.0
9.1175,-15168.0,-7296.0,-896.0
9.12,-15168.0,-7232.0,-960.0
9.1225,-15168.0,-7232.0,-960.0
9.125,-15232.0,-7296.0,-896.0
9.1275,-15232.0,-7360.0,-896.0
9.13,-15296.0,-7296.0,-832.0
9.1325,-15360.0,-7360.0,-832.0
9.135,-15360.0,-7360.0,-832.0
9.1375,-15360.0,-7360.0,-768.0
9.14,-15488.0,-7296.0,-832.0
9.1425,-15488.0,-7360.0,-832.0
9.145,-15488.0,-7360.0,-768.0
9.1475,-15552.0,-7424.0,-768.0
9.15,-15552.0,-7360.0,-768.0
9.1525,-15552.0,-7360.0,-704.0
9.155,-15488.0,-7360.0,-640.0
9.1575,-15488.0,-7296.0,-704.0
9.16,-15488.0,-7296.0,-640.0
9.1625,-15424.0,-7296.0,-640.0
9.165,-15360.0,-7296.0,-576.0
9.1675,-15360.0,-7296.0,-704.0
9.17,-15232.0,-7360.0,-640.0
9.1725,-15168.0,-7360.0,-768.0
9.175,-15168.0,-7488.0,-704.0
9.1775,-15104.0,-7424.0,-768.0
9.18,-14976.0,-7488.0,-768.0
9.1825,-14912.0,-7552.0,-768.0
9.185,-14976.0,-7552.0,-768.0
9.1875,-14848.0,-7552.0,-768.0
9.19,-14848.0,-7552.0,-768.0
9.1925,-14848.0,-7616.0,-768.0
9.195,-14784.0,-7616.0,-768.0
9.1975,-14784.0,-7680.0,-832.0
9.2,-14784.0,-7680.0,-768.0
9.2025,-14720.0,-7680.0,-832.0
9.205,-14656.0,-7616.0,-832.0
9.2075,-14720.0,-7616.0,-832.0
9.21,-14720.0,-7552.0,-768.0
9.2125,-14656.0,-7488.0,-768.0
9.215,-14656.0,-7488.0,-768.0
9.2175,-14592.0,-7488.0,-768.0
9.22,-14656.0,-7552.0,-704.0
9.2225,-14592.0,-7488.0,-768.0
9.225,-14592.0,-7488.0,-768.0
9.2275,-14592.0,-7488.0,-704.0
9.23,-14592.0,-7488.0,-704.0
9.2325,-14656.0,-7488.0,-640.0
9.235,-14656.0,-7488.0,-512.0
9.2375,-14720.0,-7488.0,-448.0
9.24,-14784.0,-7424.0,-448.0
9.2425,-14784.0,-7424.0,-384.0
9.245,-14848.0,-7360.0,-256.0
9.2475,-14784.0,-7360.0,-192.0
9.25,-14848.0,-7360.0,-128.0
9.2525,-14784.0,-7360.0,-192.0
9.255,-14848.0,-7360.0,-192.0
9.2575,-14912.0,-7296.0,-128.0
9.26,-14912.0,-7296.0,-128.0
9.2625,-14912.0,-7296.0,-64.0
9.265,-14912.0,-7296.0,-128.0
9.2675,-14912.0,-7360.0,-192.0
9.27,-14912.0,-7360.0,-256.0
9.2725,-14912.0,-7360.0,-256.0
9.275,-14912.0,-7424.0,-256.0
9.2775,-14976.0,-7488.0,-256.0
9.28,-14976.0,-7488.0,-256.0
9.2825,-14976.0,-7360.0,-320.0
9.285,-15040.0,-7296.0,-256.0
9.2875,-15040.0,-7232.0,-320.0
9.29,-15040.0,-7168.0,-256.0
9.2925,-15040.0,-7040.0,-320.0
9.295,-15040.0,-6976.0,-256.0
9.2975,-14976.0,-7104.0,-256.0
9.3,-15104.0,-7104.0,-384.0
9.3025,-15104.0,-7104.0,-320.0
9.305,-15168.0,-7040.0,-320.0
9.3075,-15168.0,-7104.0,-320.0
9.31,-15104.0,-7296.0,-320.0
9.3125,-15168.0,-7552.0,-256.0
9.315,-15232.0,-7552.0,-256.0
9.3175,-15296.0,-7552.0,-320.0
9.32,-15296.0,-7616.0,-384.0
9.3225,-15360.0,-7616.0,-384.0
9.325,-15360.0,-7680.0,-448.0
9.3275,-15296.0,-7680.0,-448.0
9.33,-15232.0,-7616.0,-512.0
9.3325,-15296.0,-7616.0,-512.0
9.335,-15296.0,-7552.0,-576.0
9.3375,-15232.0,-7488.0,-576.0
9.34,-15232.0,-7424.0,-640.0
9.3425,-15168.0,-7360.0,-704.0
9.345,-15168.0,-7296.0,-704.0
9.3475,-15104.0,-7296.0,-768.0
9.35,-15040.0,-7232.0,-768.0
9.3525,-15040.0,-7232.0,-704.0
9.355,-14976.0,-7104.0,-768.0
9.3575,-14912.0,-7104.0,-832.0
9.36,-14912.0,-7168.0,-832.0
9.3625,-14848.0,-7104.0,-832.0
9.365,-14784.0,-7104.0,-832.0
9.3675,-14848.0,-7104.0,-896.0
9.37,-14784.0,-7104.0,-896.0
9.3725,-14720.0,-7040.0,-896.0
9.375,-14784.0,-7040.0,-1024.0
9.3775,-14720.0,-7040.0,-1024.0
9.38,-14656.0,-7104.0,-896.0
9.3825,-14656.0,-7104.0,-1024.0
9.385,-14720.0,-7040.0,-1024.0
9.3875,-14656.0,-6976.0,-1024.0
9.39,-14592.0,-7040.0,-1024.0
9.3925,-14528.0,-7104.0,-1024.0
9.395,-14592.0,-7104.0,-1024.0
9.3975,-14528.0,-7104.0,-1024.0
9.4,-14528.0,-7104.0,-1088.0
9.4025,-14464.0,-7168.0,-1152.0
9.405,-14464.0,-7232.0,-1216.0
9.4075,-14464.0,-7168.0,-1216.0
9.41,-14464.0,-7296.0,-1280.0
9.4125,-14464.0,-7296.0,-1280.0
9.415,-14528.0,-7296.0,-1280.0
9.4175,-14592.0,-7296.0,-1280.0
9.42,-14528.0,-7360.0,-1344.0
9.4225,-14528.0,-7296.0,-1408.0
9.425,-14592.0,-7360.0,-1280.0
9.4275,-14592.0,-7360.0,-1344.0
9.43,-14592.0,-7360.0,-1280.0
9.4325,-14656.0,-7424.0,-1344.0
9.435,-14656.0,-7424.0,-1280.0
9.4375,-14720.0,-7488.0,-1280.0
9.44,-14656.0,-7488.0,-1152.0
9.4425,-14720.0,-7552.0,-1152.0
9.445,-14656.0,-7488.0,-1152.0
9.4475,-14656.0,-7488.0,-1024.0
9.45,-14720.0,-7488.0,-1024.0
9.4525,-14720.0,-7552.0,-1024.0
9.455,-14720.0,-7552.0,-960.0
9.4575,-14720.0,-7552.0,-960.0
9.46,-14784.0,-7552.0,-1024.0
9.4625,-14720.0,-7552.0,-896.0
9.465,-14720.0,-7616.0,-960.0
9.4675,-14720.0,-7552.0,-960.0
9.47,-14720.0,-7616.0,-960.0
9.4725,-14784.0,-7680.0,-1024.0
9.475,-14720.0,-7616.0,-1024.0
9.4775,-14720.0,-7616.0,-1024.0
9.48,-14656.0,-7616.0,-1024.0
9.4825,-14656.0,-7552.0,-960.0
9.485,-14592.0,-7552.0,-960.0
9.4875,-14592.0,-7552.0,-1024.0
9.49,-14528.0,-7616.0,-960.0
9.4925,-14464.0,-7616.0,-896.0
9.495,-14464.0,-7680.0,-960.0
9.4975,-14464.0,-7680.0,-960.0
9.5,-14464.0,-7744.0,-960.0
9.5025,-14464.0,-7744.0,-1024.0
9.505,-14464.0,-7744.0,-960.0
9.5075,-14464.0,-7808.0,-960.0
9.51,-14400.0,-7808.0,-960.0
9.5125,-14464.0,-7808.0,-960.0
9.515,-14400.0,-7744.0,-1024.0
9.5175,-14464.0,-7744.0,-1024.0
9.52,-14400.0,-7680.0,-1088.0
9.5225,-14400.0,-7680.0,-1024.0
9.525,-14400.0,-7616.0,-960.0
9.5275,-14464.0,-7552.0,-1024.0
9.53,-14464.0,-7552.0,-1024.0
9.5325,-14464.0,-7552.0,-960.0
9.535,-14528.0,-7488.0,-960.0
9.5375,-14528.0,-7424.0,-896.0
9.54,-14528.0,-7488.0,-896.0
9.5425,-14528.0,-7424.0,-832.0
9.545,-14656.0,-7360.0,-832.0
9.5475,-14528.0,-7360.0,-832.0
9.55,-14592.0,-7296.0,-832.0
9.5525,-14592.0,-7168.0,-832.0
9.555,-14592.0,-7104.0,-768.0
9.5575,-14592.0,-7040.0,-768.0
9.56,-14656.0,-6976.0,-768.0
9.5625,-14720.0,-6912.0,-704.0
9.565,-14656.0,-6976.0,-704.0
9.5675,-14656.0,-6912.0,-704.0
9.57,-14656.0,-6848.0,-640.0
9.5725,-14720.0,-6784.0,-704.0
9.575,-14720.0,-6784.0,-768.0
9.5775,-14784.0,-6784.0,-832.0
9.58,-14912.0,-6784.0,-768.0
9.5825,-14912.0,-6784.0,-832.0
9.585,-14912.0,-6784.0,-768.0
9.5875,-14976.0,-6784.0,-832.0
9.59,-14976.0,-6848.0,-768.0
9.5925,-14976.0,-6784.0,-768.0
9.595,-15040.0,-6784.0,-768.0
9.5975,-15104.0,-6720.0,-768.0
9.6,-15104.0,-6784.0,-832.0
9.6025,-15040.0,-6848.0,-832.0
9.605,-15104.0,-6784.0,-768.0
9.6075,-15104.0,-6784.0,-768.0
9.61,-15168.0,-6720.0,-704.0
9.6125,-15168.0,-6720.0,-640.0
9.615,-15104.0,-6784.0,-640.0
9.6175,-15104.0,-6848.0,-640.0
9.62,-15104.0,-6784.0,-640.0
9.6225,-15104.0,-6720.0,-576.0
9.625,-14976.0,-6848.0,-576.0
9.6275,-14912.0,-6784.0,-512.0
9.63,-14912.0,-6848.0,-512.0
9.6325,-14848.0,-6912.0,-512.0
9.635,-14720.0,-6912.0,-512.0
9.6375,-14656.0,-6848.0,-384.0
9.64,-14592.0,-6848.0,-384.0
9.6425,-14592.0,-6848.0,-384.0
9.645,-14528.0,-6848.0,-384.0
9.6475,-14464.0,-6848.0,-448.0
9.65,-14400.0,-6848.0,-448.0
9.6525,-14400.0,-6848.0,-512.0
9.655,-14336.0,-6784.0,-512.0
9.6575,-14336.0,-6848.0,-512.0
9.66,-14208.0,-6848.0,-576.0
9.6625,-14208.0,-6912.0,-576.0
9.665,-14208.0,-6912.0,-448.0
9.6675,-14208.0,-6912.0,-512.0
9.67,-14208.0,-6912.0,-448.0
9.6725,-14080.0,-6848.0,-448.0
9.675,-14144.0,-6848.0,-576.0
9.6775,-14144.0,-6784.0,-512.0
9.68,-14144.0,-6784.0,-512.0
9.6825,-14144.0,-6784.0,-448.0
9.685,-14144.0,-6848.0,-576.0
9.6875,-14144.0,-6912.0,-576.0
9.69,-14080.0,-7040.0,-512.0
9.6925,-14016.0,-7040.0,-512.0
9.695,-14080.0,-7104.0,-512.0
9.6975,-14080.0,-7104.0,-512.0
9.7,-14080.0,-7104.0,-512.0
9.7025,-14080.0,-7104.0,-576.0
9.705,-14144.0,-7104.0,-512.0
9.7075,-14208.0,-7232.0,-640.0
9.71,-14208.0,-7296.0,-704.0
9.7125,-14208.0,-7360.0,-768.0
9.715,-14208.0,-7424.0,-768.0
9.7175,-14208.0,-7424.0,-768.0
9.72,-14272.0,-7424.0,-768.0
9.7225,-14272.0,-7424.0,-768.0
9.725,-14272.0,-7360.0,-768.0
9.7275,-14208.0,-7360.0,-832.0
9.73,-14208.0,-7360.0,-768.0
9.7325,-14272.0,-7360.0,-768.0
9.735,-14272.0,-7360.0,-768.0
9.7375,-14272.0,-7360.0,-768.0
9.74,-14336.0,-7424.0,-704.0
9.7425,-14272.0,-7424.0,-704.0
9.745,-14272.0,-7488.0,-768.0
9.7475,-14336.0,-7488.0,-768.0
9.75,-14272.0,-7488.0,-832.0
9.7525,-14336.0,-7552.0,-832.0
9.755,-14400.0,-7552.0,-768.0
9.7575,-14464.0,-7552.0,-832.0
9.76,-14464.0,-7488.0,-832.0
9.7625,-14528.0,-7616.0,-896.0
9.765,-14528.0,-7616.0,-832.0
9.7675,-14592.0,-7616.0,-896.0
9.77,-14528.0,-7616.0,-896.0
9.7725,-14528.0,-7552.0,-896.0
9.775,-14592.0,-7616.0,-960.0
9.7775,-14656.0,-7616.0,-1024.0
9.78,-14656.0,-7616.0,-1024.0
9.7825,-14656.0,-7552.0,-1088.0
9.785,-14656.0,-7616.0,-1088.0
9.7875,-14720.0,-7616.0,-1152.0
9.79,-14720.0,-7680.0,-1216.0
9.7925,-14720.0,-7808.0,-1088.0
9.795,-14720.0,-7808.0,-1088.0
9.7975,-14784.0,-7872.0,-1088.0
9.8,-14784.0,-7808.0,-1088.0
9.8025,-14784.0,-7808.0,-1088.0
9.805,-14848.0,-7744.0,-1088.0
9.8075,-14848.0,-7744.0,-1152.0
9.81,-14848.0,-7744.0,-1088.0
9.8125,-14848.0,-7680.0,-1152.0
9.815,-14912.0,-7744.0,-1088.0
9.8175,-14848.0,-7744.0,-1088.0
9.82,-14912.0,-7680.0,-1152.0
9.8225,-14976.0,-7744.0,-1152.0
9.825,-14976.0,-7680.0,-1152.0
9.8275,-15040.0,-7744.0,-1216.0
9.83,-14976.0,-7680.0,-1216.0
9.8325,-14976.0,-7616.0,-1152.0
9.835,-15040.0,-7744.0,-1216.0
9.8375,-15040.0,-7872.0,-1216.0
9.84,-15040.0,-7872.0,-1152.0
9.8425,-14976.0,-7872.0,-1216.0
9.845,-15040.0,-7936.0,-1344.0
9.8475,-14976.0,-7936.0,-1344.0
9.85,-14976.0,-8000.0,-1344.0
9.8525,-14912.0,-8064.0,-1408.0
9.855,-15040.0,-8064.0,-1344.0
9.8575,-15040.0,-8064.0,-1408.0
9.86,-15040.0,-8064.0,-1344.0
9.8625,-15104.0,-8064.0,-1344.0
9.865,-15104.0,-7936.0,-1344.0
9.8675,-15104.0,-7872.0,-1344.0
9.87,-15168.0,-7808.0,-1344.0
9.8725,-15104.0,-7872.0,-1344.0
9.875,-15040.0,-7936.0,-1280.0
9.8775,-15104.0,-7936.0,-1216.0
9.88,-15040.0,-7936.0,-1152.0
9.8825,-15040.0,-8000.0,-1216.0
9.885,-15232.0,-8064.0,-1280.0
9.8875,-15168.0,-8064.0,-1408.0
9.89,-15232.0,-8128.0,-1344.0
9.8925,-15296.0,-8192.0,-1344.0
9.895,-15360.0,-8192.0,-1408.0
9.8975,-15424.0,-8192.0,-1472.0
9.9,-15424.0,-8192.0,-1536.0
9.9025,-15552.0,-8192.0,-1472.0
9.905,-15552.0,-8064.0,-1472.0
9.9075,-15552.0,-8064.0,-1472.0
9.91,-15552.0,-8064.0,-1600.0
9.9125,-15552.0,-8064.0,-1664.0
9.915,-15552.0,-8000.0,-1664.0
9.9175,-15552.0,-7936.0,-1664.0
9.92,-15488.0,-7936.0,-1664.0
9.9225,-15488.0,-7936.0,-1728.0
9.925,-15424.0,-7936.0,-1664.0
9.9275,-15424.0,-7936.0,-1600.0
9.93,-15424.0,-7936.0,-1600.0
9.9325,-15360.0,-7872.0,-1536.0
9.935,-15296.0,-7808.0,-1536.0
9.9375,-15296.0,-7808.0,-1408.0
9.94,-15232.0,-7808.0,-1344.0
9.9425,-15168.0,-7744.0,-1280.0
9.945,-15168.0,-7744.0,-1280.0
9.9475,-14976.0,-7680.0,-1280.0
9.95,-14976.0,-7552.0,-1280.0
9.9525,-14784.0,-7424.0,-1088.0
9.955,-14720.0,-7360.0,-1024.0
9.9575,-14592.0,-7360.0,-1088.0
9.96,-14592.0,-7296.0,-1024.0
9.9625,-14592.0,-7232.0,-960.0
9.965,-14464.0,-7168.0,-896.0
9.9675,-14464.0,-7104.0,-896.0
9.97,-14400.0,-7104.0,-832.0
9.9725,-14336.0,-7104.0,-960.0
9.975,-14336.0,-7168.0,-960.0
9.9775,-14272.0,-7168.0,-960.0
9.98,-14208.0,-7168.0,-960.0
9.9825,-14208.0,-7232.0,-896.0
9.985,-14208.0,-7296.0,-960.0
9.9875,-14144.0,-7296.0,-960.0
9.99,-14144.0,-7296.0,-960.0
9.9925,-14080.0,-7360.0,-1024.0
9.995,-14080.0,-7296.0,-1024.0
9.9975,-14080.0,-7360.0,-960.0
10.0,-14080.0,-7296.0,-1024.0
10.0025,-14144.0,-7232.0,-1024.0
10.005,-14208.0,-7296.0,-1024.0
10.0075,-14208.0,-7232.0,-1088.0
10.01,-14208.0,-7296.0,-1088.0
10.0125,-14144.0,-7296.0,-1152.0
10.015,-14144.0,-7360.0,-1088.0
10.0175,-14208.0,-7296.0,-1088.0
10.02,-14144.0,-7360.0,-1088.0
10.0225,-14208.0,-7360.0,-1088.0
10.025,-14208.0,-7360.0,-1088.0
10.0275,-14208.0,-7424.0,-1088.0
10.03,-14144.0,-7424.0,-1216.0
10.0325,-14208.0,-7424.0,-1088.0
10.035,-14208.0,-7360.0,-1088.0
10.0375,-14208.0,-7360.0,-1088.0
10.04,-14208.0,-7360.0,-1024.0
10.0425,-14272.0,-7424.0,-1088.0
10.045,-14336.0,-7360.0,-1024.0
10.0475,-14272.0,-7424.0,-1024.0
10.05,-14336.0,-7360.0,-960.0
10.0525,-14336.0,-7296.0,-960.0
10.055,-14336.0,-7296.0,-1024.0
10.0575,-14272.0,-7232.0,-1024.0
10.06,-14400.0,-7232.0,-1088.0
10.0625,-14464.0,-7168.0,-1024.0
10.065,-14464.0,-7168.0,-1024.0
10.0675,-14464.0,-7104.0,-1088.0
10.07,-14528.0,-7104.0,-1088.0
10.0725,-14528.0,-7168.0,-1024.0
10.075,-14592.0,-7168.0,-1024.0
10.0775,-14528.0,-7168.0,-1088.0
10.08,-14528.0,-7168.0,-1024.0
10.0825,-14592.0,-7168.0,-1024.0
10.085,-14528.0,-7232.0,-1088.0
10.0875,-14592.0,-7296.0,-1024.0
10.09,-14656.0,-7296.0,-1024.0
10.0925,-14720.0,-7296.0,-1088.0
10.095,-14720.0,-7360.0,-1088.0
10.0975,-14784.0,-7360.0,-1088.0
10.1,-14784.0,-7360.0,-1152.0
10.1025,-14848.0,-7360.0,-1216.0
10.105,-14784.0,-7360.0,-1152.0
10.1075,-14784.0,-7296.0,-1216.0
10.11,-14784.0,-7360.0,-1216.0
10.1125,-14720.0,-7360.0,-1152.0
10.115,-14784.0,-7360.0,-1216.0
10.1175,-14784.0,-7360.0,-1216.0
10.12,-14784.0,-7360.0,-1280.0
10.1225,-14784.0,-7296.0,-1152.0
10.125,-14784.0,-7360.0,-1088.0
10.1275,-14784.0,-7232.0,-1152.0
10.13,-14784.0,-7232.0,-1088.0
10.1325,-14784.0,-7232.0,-1152.0
10.135,-14720.0,-7232.0,-1152.0
10.1375,-14720.0,-7296.0,-1216.0
10.14,-14784.0,-7296.0,-1152.0
10.1425,-14720.0,-7360.0,-1280.0
10.145,-14720.0,-7296.0,-1216.0
10.1475,-14784.0,-7232.0,-1280.0
10.15,-14784.0,-7232.0,-1280.0
10.1525,-14784.0,-7232.0,-1280.0
10.155,-14720.0,-7168.0,-1280.0
10.1575,-14720.0,-7232.0,-1216.0
10.16,-14784.0,-7168.0,-1280.0
10.1625,-14784.0,-7232.0,-1280.0
10.165,-14784.0,-7232.0,-1408.0
10.1675,-14784.0,-7232.0,-1408.0
10.17,-14784.0,-7232.0,-1344.0
10.1725,-14784.0,-7232.0,-1344.0
10.175,-14784.0,-7232.0,-1344.0
10.1775,-14720.0,-7232.0,-1280.0
