time_stamp,acc_x,acc_y,acc_z
0.0,-15616.0,-3648.0,5568.0
0.0025,-15552.0,-3584.0,5568.0
0.005,-15488.0,-3520.0,5504.0
0.0075,-15488.0,-3520.0,5504.0
0.01,-15552.0,-3584.0,5632.0
0.0125,-15616.0,-3584.0,5632.0
0.015,-15488.0,-3584.0,5568.0
0.0175,-15488.0,-3584.0,5440.0
0.02,-15488.0,-3584.0,5568.0
0.0225,-15552.0,-3584.0,5696.0
0.025,-15488.0,-3520.0,5632.0
0.0275,-15488.0,-3520.0,5632.0
0.03,-15552.0,-3520.0,5632.0
0.0325,-15552.0,-3584.0,5568.0
0.035,-15488.0,-3584.0,5568.0
0.0375,-15488.0,-3584.0,5568.0
0.04,-15488.0,-3584.0,5568.0
0.0425,-15488.0,-3520.0,5568.0
0.045,-15488.0,-3584.0,5568.0
0.0475,-15488.0,-3584.0,5568.0
0.05,-15488.0,-3520.0,5504.0
0.0525,-15424.0,-3520.0,5568.0
0.055,-15488.0,-3584.0,5632.0
0.0575,-15488.0,-3584.0,5504.0
0.06,-15424.0,-3584.0,5568.0
0.0625,-15488.0,-3648.0,5568.0
0.065,-15424.0,-3584.0,5632.0
0.0675,-15488.0,-3520.0,5568.0
0.07,-15488.0,-3520.0,5568.0
0.0725,-15488.0,-3520.0,5568.0
0.075,-15488.0,-3520.0,5632.0
0.0775,-15424.0,-3520.0,5632.0
0.08,-15488.0,-3584.0,5632.0
0.0825,-15488.0,-3520.0,5632.0
0.085,-15424.0,-3520.0,5632.0
0.0875,-15360.0,-3520.0,5568.0
0.09,-15424.0,-3520.0,5568.0
0.0925,-15360.0,-3520.0,5504.0
0.095,-15360.0,-3520.0,5440.0
0.0975,-15360.0,-3520.0,5504.0
0.1,-15488.0,-3584.0,5568.0
0.1025,-15424.0,-3520.0,5504.0
0.105,-15424.0,-3520.0,5440.0
0.1075,-15424.0,-3520.0,5440.0
0.11,-15360.0,-3520.0,5440.0
0.1125,-15424.0,-3520.0,5440.0
0.115,-15360.0,-3520.0,5376.0
0.1175,-15424.0,-3584.0,5440.0
0.12,-15360.0,-3584.0,5440.0
0.1225,-15296.0,-3520.0,5440.0
0.125,-15360.0,-3520.0,5312.0
0.1275,-15360.0,-3520.0,5376.0
0.13,-15424.0,-3456.0,5376.0
0.1325,-15360.0,-3520.0,5440.0
0.135,-15360.0,-3520.0,5440.0
0.1375,-15424.0,-3520.0,5440.0
0.14,-15360.0,-3456.0,5440.0
0.1425,-15296.0,-3520.0,5376.0
0.145,-15424.0,-3584.0,5376.0
0.1475,-15424.0,-3584.0,5376.0
0.15,-15424.0,-3520.0,5440.0
0.1525,-15424.0,-3456.0,5440.0
0.155,-15424.0,-3520.0,5440.0
0.1575,-15424.0,-3520.0,5312.0
0.16,-15488.0,-3584.0,5376.0
0.1625,-15488.0,-3456.0,5312.0
0.165,-15424.0,-3456.0,5184.0
0.1675,-15360.0,-3456.0,5184.0
0.17,-15488.0,-3456.0,5120.0
0.1725,-15552.0,-3520.0,5184.0
0.175,-15552.0,-3520.0,5248.0
0.1775,-15488.0,-3456.0,5120.0
0.18,-15488.0,-3456.0,5056.0
0.1825,-15488.0,-3392.0,5056.0
0.185,-15424.0,-3392.0,5056.0
0.1875,-15488.0,-3456.0,5120.0
0.19,-15424.0,-3392.0,5056.0
0.1925,-15488.0,-3392.0,5248.0
0.195,-15552.0,-3456.0,5184.0
0.1975,-15488.0,-3392.0,5184.0
0.2,-15552.0,-3456.0,5248.0
0.2025,-15552.0,-3456.0,5184.0
0.205,-15488.0,-3456.0,5184.0
0.2075,-15488.0,-3392.0,5184.0
0.21,-15488.0,-3392.0,5184.0
0.2125,-15488.0,-3392.0,5120.0
0.215,-15552.0,-3456.0,5056.0
0.2175,-15488.0,-3456.0,5120.0
0.22,-15488.0,-3520.0,5120.0
0.2225,-15488.0,-3456.0,5184.0
0.225,-15424.0,-3456.0,5120.0
0.2275,-15424.0,-3392.0,5120.0
0.23,-15360.0,-3392.0,5120.0
0.2325,-15360.0,-3392.0,5056.0
0.235,-15360.0,-3392.0,5056.0
0.2375,-15296.0,-3392.0,4992.0
0.24,-15360.0,-3392.0,5056.0
0.2425,-15360.0,-3392.0,4992.0
0.245,-15360.0,-3456.0,5056.0
0.2475,-15296.0,-3392.0,4992.0
0.25,-15232.0,-3328.0,4800.0
0.2525,-15232.0,-3328.0,4928.0
0.255,-15296.0,-3328.0,4928.0
0.2575,-15296.0,-3328.0,4928.0
0.26,-15232.0,-3392.0,4928.0
0.2625,-15296.0,-3392.0,4992.0
0.265,-15168.0,-3456.0,4992.0
0.2675,-15232.0,-3328.0,4992.0
0.27,-15232.0,-3328.0,4992.0
0.2725,-15296.0,-3328.0,4992.0
0.275,-15296.0,-3328.0,4992.0
0.2775,-15232.0,-3392.0,4992.0
0.28,-15232.0,-3392.0,4992.0
0.2825,-15232.0,-3328.0,4928.0
0.285,-15296.0,-3328.0,4864.0
0.2875,-15296.0,-3392.0,4992.0
0.29,-15296.0,-3392.0,4864.0
0.2925,-15360.0,-3392.0,4864.0
0.295,-15360.0,-3328.0,4800.0
0.2975,-15360.0,-3328.0,4800.0
0.3,-15424.0,-3328.0,4800.0
0.3025,-15424.0,-3264.0,4800.0
0.305,-15424.0,-3264.0,4736.0
0.3075,-15424.0,-3328.0,4736.0
0.31,-15488.0,-3328.0,4800.0
0.3125,-15424.0,-3392.0,4864.0
0.315,-15488.0,-3456.0,4928.0
0.3175,-15552.0,-3392.0,4864.0
0.32,-15488.0,-3392.0,4928.0
0.3225,-15488.0,-3392.0,4928.0
0.325,-15488.0,-3328.0,4864.0
0.3275,-15424.0,-3328.0,4800.0
0.33,-15424.0,-3264.0,4800.0
0.3325,-15424.0,-3328.0,4864.0
0.335,-15488.0,-3328.0,4864.0
0.3375,-15488.0,-3264.0,4736.0
0.34,-15552.0,-3264.0,4672.0
0.3425,-15488.0,-3328.0,4736.0
0.345,-15616.0,-3328.0,4800.0
0.3475,-15616.0,-3328.0,4672.0
0.35,-15552.0,-3264.0,4672.0
0.3525,-15552.0,-3328.0,4608.0
0.355,-15552.0,-3328.0,4608.0
0.3575,-15616.0,-3264.0,4672.0
0.36,-15680.0,-3200.0,4800.0
0.3625,-15680.0,-3264.0,4800.0
0.365,-15744.0,-3264.0,4672.0
0.3675,-15744.0,-3264.0,4672.0
0.37,-15744.0,-3264.0,4736.0
0.3725,-15744.0,-3200.0,4736.0
0.375,-15808.0,-3264.0,4672.0
0.3775,-15872.0,-3328.0,4672.0
0.38,-15872.0,-3264.0,4672.0
0.3825,-15872.0,-3200.0,4736.0
0.385,-15808.0,-3200.0,4672.0
0.3875,-15808.0,-3200.0,4672.0
0.39,-15872.0,-3200.0,4736.0
0.3925,-15872.0,-3136.0,4736.0
0.395,-15872.0,-3072.0,4800.0
0.3975,-15872.0,-3072.0,4800.0
0.4,-16000.0,-3136.0,4928.0
0.4025,-15936.0,-3136.0,4928.0
0.405,-16000.0,-3136.0,4928.0
0.4075,-15936.0,-3008.0,4672.0
0.41,-15872.0,-3008.0,4736.0
0.4125,-15872.0,-2944.0,4800.0
0.415,-15936.0,-3008.0,4992.0
0.4175,-15872.0,-3008.0,4992.0
0.42,-15808.0,-3008.0,4928.0
0.4225,-15808.0,-2944.0,4864.0
0.425,-15872.0,-3008.0,4928.0
0.4275,-15872.0,-2944.0,4928.0
0.43,-15872.0,-2944.0,4928.0
0.4325,-15872.0,-3008.0,4864.0
0.435,-15872.0,-3008.0,4864.0
0.4375,-15872.0,-2944.0,4864.0
0.44,-15808.0,-3008.0,4864.0
0.4425,-15808.0,-3008.0,4800.0
0.445,-15744.0,-3008.0,4800.0
0.4475,-15744.0,-3008.0,4736.0
0.45,-15744.0,-3072.0,4672.0
0.4525,-15744.0,-3072.0,4672.0
0.455,-15744.0,-3072.0,4672.0
0.4575,-15808.0,-3136.0,4672.0
0.46,-15744.0,-3136.0,4672.0
0.4625,-15744.0,-3136.0,4736.0
0.465,-15744.0,-3136.0,4864.0
0.4675,-15744.0,-3200.0,4864.0
0.47,-15680.0,-3200.0,4864.0
0.4725,-15680.0,-3200.0,4928.0
0.475,-15680.0,-3200.0,4992.0
0.4775,-15680.0,-3200.0,5056.0
0.48,-15680.0,-3200.0,5056.0
0.4825,-15680.0,-3200.0,5120.0
0.485,-15616.0,-3200.0,5184.0
0.4875,-15552.0,-3200.0,5120.0
0.49,-15488.0,-3200.0,5056.0
0.4925,-15488.0,-3200.0,5248.0
0.495,-15488.0,-3200.0,5440.0
0.4975,-15424.0,-3136.0,5440.0
0.5,-15424.0,-3136.0,5376.0
0.5025,-15424.0,-3136.0,5376.0
0.505,-15552.0,-3200.0,5440.0
0.5075,-15488.0,-3200.0,5504.0
0.51,-15488.0,-3072.0,5504.0
0.5125,-15424.0,-3072.0,5440.0
0.515,-15488.0,-3136.0,5504.0
0.5175,-15424.0,-3200.0,5504.0
0.52,-15424.0,-3200.0,5504.0
0.5225,-15424.0,-3200.0,5440.0
0.525,-15488.0,-3200.0,5440.0
0.5275,-15488.0,-3136.0,5440.0
0.53,-15488.0,-3136.0,5440.0
0.5325,-15488.0,-3136.0,5376.0
0.535,-15488.0,-3072.0,5376.0
0.5375,-15488.0,-3072.0,5312.0
0.54,-15424.0,-3072.0,5248.0
0.5425,-15424.0,-3136.0,5184.0
0.545,-15488.0,-3200.0,5184.0
0.5475,-15488.0,-3200.0,5248.0
0.55,-15552.0,-3136.0,5184.0
0.5525,-15552.0,-3136.0,5248.0
0.555,-15552.0,-3072.0,5248.0
0.5575,-15552.0,-3072.0,5248.0
0.56,-15616.0,-3072.0,5312.0
0.5625,-15616.0,-3072.0,5248.0
0.565,-15552.0,-3008.0,5248.0
0.5675,-15616.0,-3008.0,5120.0
0.57,-15616.0,-2944.0,5120.0
0.5725,-15680.0,-2944.0,5248.0
0.575,-15680.0,-2944.0,5056.0
0.5775,-15552.0,-3008.0,4992.0
0.58,-15680.0,-2944.0,5056.0
0.5825,-15744.0,-3008.0,5184.0
0.585,-15808.0,-2944.0,5184.0
0.5875,-15808.0,-2944.0,5120.0
0.59,-15808.0,-2944.0,5056.0
0.5925,-15808.0,-2944.0,4992.0
0.595,-15808.0,-2944.0,5056.0
0.5975,-15808.0,-2944.0,4992.0
0.6,-15744.0,-3008.0,5056.0
0.6025,-15744.0,-3008.0,5056.0
0.605,-15744.0,-3008.0,4992.0
0.6075,-15744.0,-3072.0,4928.0
0.61,-15744.0,-3072.0,4992.0
0.6125,-15808.0,-3136.0,4864.0
0.615,-15744.0,-3136.0,4864.0
0.6175,-15808.0,-3136.0,4864.0
0.62,-15680.0,-3200.0,4864.0
0.6225,-15680.0,-3200.0,4800.0
0.625,-15616.0,-3200.0,4864.0
0.6275,-15616.0,-3200.0,4800.0
0.63,-15616.0,-3200.0,4800.0
0.6325,-15616.0,-3200.0,4800.0
0.635,-15616.0,-3200.0,4800.0
0.6375,-15552.0,-3200.0,4800.0
0.64,-15680.0,-3328.0,4800.0
0.6425,-15616.0,-3264.0,4928.0
0.645,-15552.0,-3328.0,4864.0
0.6475,-15488.0,-3200.0,4800.0
0.65,-15488.0,-3200.0,4864.0
0.6525,-15616.0,-3264.0,4928.0
0.655,-15616.0,-3200.0,4992.0
0.6575,-15552.0,-3136.0,4992.0
0.66,-15488.0,-3136.0,4800.0
0.6625,-15488.0,-3136.0,4864.0
0.665,-15488.0,-3136.0,4928.0
0.6675,-15552.0,-3136.0,4928.0
0.67,-15488.0,-3072.0,4928.0
0.6725,-15488.0,-3008.0,4928.0
0.675,-15488.0,-3072.0,4992.0
0.6775,-15424.0,-3072.0,4992.0
0.68,-15488.0,-3072.0,4992.0
0.6825,-15424.0,-3072.0,4992.0
0.685,-15424.0,-3072.0,4992.0
0.6875,-15424.0,-3008.0,4864.0
0.69,-15424.0,-3008.0,4928.0
0.6925,-15488.0,-3008.0,4992.0
0.695,-15424.0,-2944.0,4928.0
0.6975,-15424.0,-2944.0,4928.0
0.7,-15424.0,-2944.0,4992.0
0.7025,-15424.0,-2944.0,4928.0
0.705,-15424.0,-2944.0,4992.0
0.7075,-15424.0,-3008.0,4928.0
0.71,-15424.0,-3072.0,4992.0
0.7125,-15424.0,-3008.0,5056.0
0.715,-15424.0,-2944.0,5056.0
0.7175,-15424.0,-2944.0,5056.0
0.72,-15424.0,-2944.0,5056.0
0.7225,-15424.0,-2944.0,5120.0
0.725,-15424.0,-2944.0,5056.0
0.7275,-15360.0,-2880.0,5056.0
0.73,-15296.0,-2880.0,4928.0
0.7325,-15360.0,-2944.0,4928.0
0.735,-15424.0,-2944.0,4992.0
0.7375,-15488.0,-2944.0,4864.0
0.74,-15488.0,-2944.0,4864.0
0.7425,-15488.0,-2880.0,4800.0
0.745,-15488.0,-2944.0,4800.0
0.7475,-15488.0,-2944.0,4800.0
0.75,-15424.0,-2944.0,4864.0
0.7525,-15488.0,-2944.0,4800.0
0.755,-15488.0,-2944.0,4800.0
0.7575,-15552.0,-3008.0,4736.0
0.76,-15552.0,-2944.0,4800.0
0.7625,-15552.0,-3008.0,4736.0
0.765,-15552.0,-2944.0,4736.0
0.7675,-15552.0,-2944.0,4800.0
0.77,-15552.0,-3008.0,4800.0
0.7725,-15488.0,-2944.0,4800.0
0.775,-15488.0,-2880.0,4736.0
0.7775,-15488.0,-2944.0,4672.0
0.78,-15552.0,-2944.0,4736.0
0.7825,-15552.0,-2880.0,4672.0
0.785,-15488.0,-2944.0,4736.0
0.7875,-15552.0,-2944.0,4672.0
0.79,-15552.0,-2944.0,4672.0
0.7925,-15552.0,-3008.0,4544.0
0.795,-15552.0,-3008.0,4608.0
0.7975,-15552.0,-3008.0,4544.0
0.8,-15680.0,-3136.0,4544.0
0.8025,-15616.0,-3072.0,4672.0
0.805,-15552.0,-3008.0,4544.0
0.8075,-15488.0,-2944.0,4416.0
0.81,-15552.0,-2944.0,4352.0
0.8125,-15488.0,-2944.0,4480.0
0.815,-15616.0,-3008.0,4544.0
0.8175,-15552.0,-3008.0,4480.0
0.82,-15552.0,-3008.0,4416.0
0.8225,-15488.0,-3008.0,4288.0
0.825,-15552.0,-3072.0,4352.0
0.8275,-15552.0,-3136.0,4224.0
0.83,-15552.0,-3072.0,4288.0
0.8325,-15616.0,-3072.0,4288.0
0.835,-15616.0,-3072.0,4288.0
0.8375,-15616.0,-3072.0,4288.0
0.84,-15616.0,-3136.0,4224.0
0.8425,-15616.0,-3136.0,4224.0
0.845,-15616.0,-3072.0,4288.0
0.8475,-15616.0,-3136.0,4288.0
0.85,-15680.0,-3136.0,4224.0
0.8525,-15680.0,-3136.0,4224.0
0.855,-15680.0,-3136.0,4288.0
0.8575,-15680.0,-3136.0,4288.0
0.86,-15744.0,-3072.0,4288.0
0.8625,-15744.0,-3072.0,4288.0
0.865,-15744.0,-3072.0,4288.0
0.8675,-15744.0,-3072.0,4352.0
0.87,-15744.0,-3136.0,4352.0
0.8725,-15744.0,-3072.0,4288.0
0.875,-15744.0,-3008.0,4352.0
0.8775,-15744.0,-3136.0,4352.0
0.88,-15872.0,-3136.0,4544.0
0.8825,-15872.0,-3072.0,4480.0
0.885,-15872.0,-3136.0,4544.0
0.8875,-15744.0,-3136.0,4544.0
0.89,-15680.0,-3072.0,4416.0
0.8925,-15744.0,-3072.0,4352.0
0.895,-15744.0,-3072.0,4416.0
0.8975,-15808.0,-3136.0,4480.0
0.9,-15744.0,-3136.0,4416.0
0.9025,-15680.0,-3072.0,4288.0
0.905,-15808.0,-3072.0,4352.0
0.9075,-15744.0,-3008.0,4288.0
0.91,-15808.0,-3008.0,4288.0
0.9125,-15808.0,-3008.0,4288.0
0.915,-15808.0,-3072.0,4224.0
0.9175,-15808.0,-3008.0,4288.0
0.92,-15744.0,-3072.0,4288.0
0.9225,-15744.0,-3072.0,4288.0
0.925,-15808.0,-3008.0,4288.0
0.9275,-15744.0,-3072.0,4288.0
0.93,-15744.0,-3200.0,4288.0
0.9325,-15808.0,-3200.0,4288.0
0.935,-15808.0,-3136.0,4288.0
0.9375,-15808.0,-3136.0,4352.0
0.94,-15808.0,-3136.0,4288.0
0.9425,-15808.0,-3136.0,4352.0
0.945,-15808.0,-3072.0,4352.0
0.9475,-15744.0,-3072.0,4288.0
0.95,-15744.0,-3072.0,4288.0
0.9525,-15744.0,-3008.0,4352.0
0.955,-15744.0,-3008.0,4352.0
0.9575,-15808.0,-3008.0,4352.0
0.96,-15808.0,-3008.0,4352.0
0.9625,-15744.0,-2944.0,4288.0
0.965,-15808.0,-3008.0,4352.0
0.9675,-15872.0,-3072.0,4544.0
0.97,-15808.0,-3136.0,4480.0
0.9725,-15808.0,-3136.0,4480.0
0.975,-15744.0,-3072.0,4352.0
0.9775,-15744.0,-3008.0,4288.0
0.98,-15744.0,-3008.0,4352.0
0.9825,-15808.0,-3008.0,4480.0
0.985,-15744.0,-3072.0,4352.0
0.9875,-15744.0,-3008.0,4416.0
0.99,-15744.0,-3008.0,4416.0
0.9925,-15744.0,-3008.0,4416.0
0.995,-15744.0,-3008.0,4416.0
0.9975,-15744.0,-2944.0,4480.0
1.0,-15744.0,-2944.0,4416.0
1.0025,-15808.0,-3008.0,4480.0
1.005,-15808.0,-2944.0,4416.0
1.0075,-15872.0,-3008.0,4544.0
1.01,-15808.0,-2944.0,4480.0
1.0125,-15808.0,-2944.0,4544.0
1.015,-15808.0,-2944.0,4480.0
1.0175,-15872.0,-2944.0,4416.0
1.02,-15936.0,-2880.0,4544.0
1.0225,-15936.0,-2944.0,4544.0
1.025,-15872.0,-2880.0,4544.0
1.0275,-15872.0,-2944.0,4608.0
1.03,-15872.0,-2944.0,4608.0
1.0325,-15872.0,-2880.0,4608.0
1.035,-15936.0,-2880.0,4608.0
1.0375,-15872.0,-2944.0,4608.0
1.04,-16000.0,-2944.0,4736.0
1.0425,-15936.0,-2880.0,4800.0
1.045,-15872.0,-2880.0,4672.0
1.0475,-15808.0,-2944.0,4672.0
1.05,-15872.0,-2944.0,4736.0
1.0525,-16000.0,-2944.0,4864.0
1.055,-15936.0,-2944.0,4928.0
1.0575,-15936.0,-2944.0,4864.0
1.06,-15936.0,-2880.0,4800.0
1.0625,-15872.0,-2880.0,4736.0
1.065,-15872.0,-2880.0,4736.0
1.0675,-15872.0,-2880.0,4672.0
1.07,-15936.0,-2944.0,4736.0
1.0725,-15936.0,-2944.0,4736.0
1.075,-15936.0,-2944.0,4800.0
1.0775,-15936.0,-2944.0,4800.0
1.08,-15936.0,-2944.0,4864.0
1.0825,-16000.0,-2880.0,4864.0
1.085,-16000.0,-2944.0,4800.0
1.0875,-16000.0,-2944.0,4864.0
1.09,-16064.0,-2880.0,4800.0
1.0925,-16128.0,-2880.0,4864.0
1.095,-16064.0,-2880.0,4864.0
1.0975,-16000.0,-2880.0,4928.0
1.1,-16064.0,-2816.0,4992.0
1.1025,-16064.0,-2816.0,4992.0
1.105,-16064.0,-2816.0,4928.0
1.1075,-16064.0,-2816.0,4992.0
1.11,-16064.0,-2816.0,4992.0
1.1125,-16064.0,-2816.0,5056.0
1.115,-16064.0,-2816.0,5056.0
1.1175,-16064.0,-2816.0,5056.0
1.12,-16192.0,-2816.0,5120.0
1.1225,-16192.0,-2752.0,4992.0
1.125,-16192.0,-2752.0,4928.0
1.1275,-16128.0,-2752.0,5056.0
1.13,-16128.0,-2688.0,4992.0
1.1325,-16064.0,-2688.0,4864.0
1.135,-16064.0,-2688.0,4864.0
1.1375,-16128.0,-2688.0,4928.0
1.14,-16064.0,-2688.0,4992.0
1.1425,-16064.0,-2688.0,4928.0
1.145,-16128.0,-2688.0,4864.0
1.1475,-16128.0,-2752.0,4928.0
1.15,-16000.0,-2816.0,4928.0
1.1525,-16000.0,-2816.0,4864.0
1.155,-16064.0,-2752.0,4864.0
1.1575,-16000.0,-2816.0,4800.0
1.16,-16000.0,-2816.0,4800.0
1.1625,-16064.0,-2816.0,4800.0
1.165,-16000.0,-2816.0,4736.0
1.1675,-15936.0,-2816.0,4736.0
1.17,-16000.0,-2816.0,4608.0
1.1725,-15936.0,-2816.0,4672.0
1.175,-15936.0,-2752.0,4608.0
1.1775,-15872.0,-2752.0,4672.0
1.18,-15872.0,-2752.0,4608.0
1.1825,-15872.0,-2752.0,4608.0
1.185,-15872.0,-2816.0,4544.0
1.1875,-15808.0,-2752.0,4544.0
1.19,-15744.0,-2752.0,4480.0
1.1925,-15744.0,-2752.0,4544.0
1.195,-15680.0,-2816.0,4544.0
1.1975,-15744.0,-2816.0,4544.0
1.2,-15744.0,-2816.0,4608.0
1.2025,-15680.0,-2752.0,4480.0
1.205,-15680.0,-2688.0,4480.0
1.2075,-15616.0,-2688.0,4416.0
1.21,-15616.0,-2688.0,4416.0
1.2125,-15680.0,-2688.0,4480.0
1.215,-15616.0,-2624.0,4480.0
1.2175,-15488.0,-2624.0,4352.0
1.22,-15488.0,-2624.0,4288.0
1.2225,-15552.0,-2624.0,4224.0
1.225,-15616.0,-2688.0,4288.0
1.2275,-15552.0,-2688.0,4288.0
1.23,-15616.0,-2624.0,4224.0
1.2325,-15616.0,-2624.0,4288.0
1.235,-15616.0,-2624.0,4288.0
1.2375,-15680.0,-2624.0,4288.0
1.24,-15616.0,-2624.0,4224.0
1.2425,-15616.0,-2624.0,4224.0
1.245,-15616.0,-2688.0,4160.0
1.2475,-15616.0,-2688.0,4224.0
1.25,-15680.0,-2688.0,4224.0
1.2525,-15680.0,-2688.0,4160.0
1.255,-15680.0,-2688.0,4160.0
1.2575,-15680.0,-2624.0,4224.0
1.26,-15680.0,-2688.0,4224.0
1.2625,-15680.0,-2688.0,4224.0
1.265,-15680.0,-2624.0,4288.0
1.2675,-15680.0,-2560.0,4224.0
1.27,-15680.0,-2560.0,4160.0
1.2725,-15616.0,-2624.0,4224.0
1.275,-15616.0,-2624.0,4160.0
1.2775,-15616.0,-2560.0,4160.0
1.28,-15680.0,-2624.0,4352.0
1.2825,-15616.0,-2624.0,4224.0
1.285,-15552.0,-2560.0,4224.0
1.2875,-15552.0,-2624.0,4096.0
1.29,-15616.0,-2624.0,4160.0
1.2925,-15680.0,-2624.0,4288.0
1.295,-15680.0,-2688.0,4160.0
1.2975,-15744.0,-2688.0,4224.0
1.3,-15616.0,-2624.0,4224.0
1.3025,-15616.0,-2624.0,4160.0
1.305,-15552.0,-2624.0,4096.0
1.3075,-15616.0,-2624.0,4096.0
1.31,-15616.0,-2624.0,4160.0
1.3125,-15552.0,-2624.0,4224.0
1.315,-15552.0,-2688.0,4160.0
1.3175,-15552.0,-2688.0,4224.0
1.32,-15552.0,-2688.0,4224.0
1.3225,-15616.0,-2560.0,4288.0
1.325,-15488.0,-2624.0,4288.0
1.3275,-15488.0,-2624.0,4224.0
1.33,-15488.0,-2624.0,4224.0
1.3325,-15424.0,-2624.0,4288.0
1.335,-15488.0,-2688.0,4288.0
1.3375,-15488.0,-2624.0,4224.0
1.34,-15488.0,-2624.0,4224.0
1.3425,-15424.0,-2688.0,4160.0
1.345,-15488.0,-2688.0,4096.0
1.3475,-15424.0,-2624.0,4160.0
1.35,-15424.0,-2624.0,4160.0
1.3525,-15488.0,-2688.0,4160.0
1.355,-15488.0,-2688.0,4160.0
1.3575,-15488.0,-2624.0,4160.0
1.36,-15488.0,-2688.0,4288.0
1.3625,-15488.0,-2688.0,4224.0
1.365,-15360.0,-2688.0,4160.0
1.3675,-15360.0,-2688.0,4096.0
1.37,-15424.0,-2752.0,4096.0
1.3725,-15488.0,-2816.0,4224.0
1.375,-15552.0,-2752.0,4224.0
1.3775,-15616.0,-2816.0,4288.0
1.38,-15552.0,-2816.0,4224.0
1.3825,-15488.0,-2752.0,4096.0
1.385,-15552.0,-2816.0,4032.0
1.3875,-15552.0,-2816.0,4096.0
1.39,-15616.0,-2816.0,4160.0
1.3925,-15552.0,-2816.0,4096.0
1.395,-15552.0,-2816.0,4096.0
1.3975,-15616.0,-2880.0,4096.0
1.4,-15552.0,-2816.0,4096.0
1.4025,-15616.0,-2880.0,4032.0
1.405,-15616.0,-2816.0,4160.0
1.4075,-15552.0,-2880.0,4160.0
1.41,-15616.0,-2880.0,4160.0
1.4125,-15680.0,-2880.0,4096.0
1.415,-15680.0,-2880.0,4160.0
1.4175,-15744.0,-2880.0,4224.0
1.42,-15680.0,-2880.0,4224.0
1.4225,-15680.0,-2944.0,4224.0
1.425,-15680.0,-2880.0,4160.0
1.4275,-15744.0,-2880.0,4160.0
1.43,-15680.0,-2880.0,4096.0
1.4325,-15680.0,-2944.0,4096.0
1.435,-15744.0,-2944.0,4160.0
1.4375,-15744.0,-3008.0,4160.0
1.44,-15744.0,-3008.0,4288.0
1.4425,-15744.0,-3008.0,4224.0
1.445,-15744.0,-3008.0,4224.0
1.4475,-15744.0,-3008.0,4224.0
1.45,-15744.0,-3008.0,4224.0
1.4525,-15808.0,-3008.0,4224.0
1.455,-15744.0,-3008.0,4160.0
1.4575,-15744.0,-2944.0,4160.0
1.46,-15744.0,-2944.0,4096.0
1.4625,-15680.0,-3008.0,4096.0
1.465,-15744.0,-3008.0,4224.0
1.4675,-15808.0,-3008.0,4224.0
1.47,-15808.0,-3072.0,4224.0
1.4725,-15808.0,-3072.0,4224.0
1.475,-15808.0,-3072.0,4160.0
1.4775,-15808.0,-3008.0,4160.0
1.48,-15872.0,-3008.0,4160.0
1.4825,-15808.0,-3008.0,4224.0
1.485,-15744.0,-3072.0,4160.0
1.4875,-15808.0,-3072.0,4224.0
1.49,-15872.0,-3072.0,4224.0
1.4925,-15872.0,-3136.0,4288.0
1.495,-15872.0,-3072.0,4288.0
1.4975,-15872.0,-3136.0,4288.0
1.5,-15936.0,-3136.0,4288.0
1.5025,-15872.0,-3136.0,4288.0
1.505,-15936.0,-3136.0,4288.0
1.5075,-15936.0,-3136.0,4352.0
1.51,-15872.0,-3136.0,4288.0
1.5125,-15936.0,-3008.0,4288.0
1.515,-15872.0,-3008.0,4288.0
1.5175,-15872.0,-3072.0,4352.0
1.52,-16000.0,-3136.0,4480.0
1.5225,-15936.0,-3136.0,4416.0
1.525,-15872.0,-3072.0,4352.0
1.5275,-15872.0,-3072.0,4352.0
1.53,-15872.0,-3136.0,4352.0
1.5325,-15936.0,-3136.0,4480.0
1.535,-15936.0,-3136.0,4416.0
1.5375,-15936.0,-3136.0,4416.0
1.54,-15936.0,-3136.0,4480.0
1.5425,-15936.0,-3136.0,4416.0
1.545,-15872.0,-3136.0,4416.0
1.5475,-15936.0,-3200.0,4544.0
1.55,-15936.0,-3136.0,4416.0
1.5525,-15872.0,-3136.0,4416.0
1.555,-15872.0,-3136.0,4416.0
1.5575,-15872.0,-3136.0,4416.0
1.56,-15872.0,-3136.0,4352.0
1.5625,-15872.0,-3136.0,4352.0
1.565,-15872.0,-3136.0,4416.0
1.5675,-15872.0,-3072.0,4416.0
1.57,-15872.0,-3072.0,4416.0
1.5725,-15872.0,-3072.0,4416.0
1.575,-15808.0,-3072.0,4416.0
1.5775,-15808.0,-3008.0,4480.0
1.58,-15808.0,-3008.0,4480.0
1.5825,-15808.0,-3008.0,4416.0
1.585,-15744.0,-3008.0,4480.0
1.5875,-15744.0,-3008.0,4416.0
1.59,-15744.0,-3008.0,4480.0
1.5925,-15744.0,-3008.0,4544.0
1.595,-15744.0,-3008.0,4544.0
1.5975,-15744.0,-3008.0,4544.0
1.6,-15808.0,-3072.0,4672.0
1.6025,-15808.0,-3072.0,4608.0
1.605,-15808.0,-3072.0,4608.0
1.6075,-15808.0,-3072.0,4608.0
1.61,-15808.0,-3136.0,4608.0
1.6125,-15872.0,-3136.0,4736.0
1.615,-15808.0,-3072.0,4736.0
1.6175,-15744.0,-3072.0,4672.0
1.62,-15680.0,-3008.0,4672.0
1.6225,-15744.0,-3072.0,4672.0
1.625,-15808.0,-3072.0,4672.0
1.6275,-15808.0,-3072.0,4736.0
1.63,-15808.0,-3136.0,4736.0
1.6325,-15744.0,-3072.0,4672.0
1.635,-15744.0,-3136.0,4672.0
1.6375,-15744.0,-3136.0,4608.0
1.64,-15744.0,-3136.0,4608.0
1.6425,-15744.0,-3072.0,4608.0
1.645,-15744.0,-3072.0,4608.0
1.6475,-15808.0,-3200.0,4608.0
1.65,-15808.0,-3200.0,4672.0
1.6525,-15744.0,-3136.0,4608.0
1.655,-15744.0,-3008.0,4608.0
1.6575,-15680.0,-3008.0,4608.0
1.66,-15616.0,-3008.0,4672.0
1.6625,-15616.0,-3072.0,4672.0
1.665,-15616.0,-3072.0,4736.0
1.6675,-15680.0,-3072.0,4672.0
1.67,-15680.0,-3136.0,4608.0
1.6725,-15680.0,-3072.0,4608.0
1.675,-15680.0,-3072.0,4608.0
1.6775,-15680.0,-3072.0,4608.0
1.68,-15680.0,-3008.0,4672.0
1.6825,-15680.0,-3008.0,4544.0
1.685,-15616.0,-3008.0,4608.0
1.6875,-15616.0,-3008.0,4544.0
1.69,-15680.0,-3008.0,4480.0
1.6925,-15680.0,-3008.0,4608.0
1.695,-15552.0,-2944.0,4544.0
1.6975,-15552.0,-2944.0,4544.0
1.7,-15552.0,-2944.0,4544.0
1.7025,-15552.0,-2944.0,4480.0
1.705,-15616.0,-2944.0,4544.0
1.7075,-15616.0,-2944.0,4544.0
1.71,-15616.0,-2944.0,4544.0
1.7125,-15616.0,-2944.0,4544.0
1.715,-15616.0,-3008.0,4544.0
1.7175,-15616.0,-3008.0,4544.0
1.72,-15680.0,-3072.0,4416.0
1.7225,-15616.0,-3008.0,4544.0
1.725,-15680.0,-3008.0,4480.0
1.7275,-15680.0,-3008.0,4480.0
1.73,-15680.0,-3008.0,4480.0
1.7325,-15680.0,-3008.0,4416.0
1.735,-15680.0,-3008.0,4480.0
1.7375,-15680.0,-3008.0,4544.0
1.74,-15680.0,-3072.0,4480.0
1.7425,-15680.0,-3008.0,4416.0
1.745,-15680.0,-3008.0,4416.0
1.7475,-15744.0,-3008.0,4416.0
1.75,-15680.0,-3008.0,4416.0
1.7525,-15680.0,-3072.0,4416.0
1.755,-15680.0,-3072.0,4416.0
1.7575,-15680.0,-3008.0,4416.0
1.76,-15808.0,-3136.0,4480.0
1.7625,-15808.0,-3136.0,4352.0
1.765,-15680.0,-3072.0,4288.0
1.7675,-15680.0,-3072.0,4352.0
1.77,-15744.0,-3072.0,4352.0
1.7725,-15744.0,-3072.0,4288.0
1.775,-15744.0,-3072.0,4288.0
1.7775,-15744.0,-3072.0,4352.0
1.78,-15744.0,-3072.0,4288.0
1.7825,-15680.0,-3008.0,4224.0
1.785,-15680.0,-3072.0,4224.0
1.7875,-15680.0,-3072.0,4160.0
1.79,-15744.0,-3008.0,4224.0
1.7925,-15744.0,-3072.0,4224.0
1.795,-15744.0,-3008.0,4224.0
1.7975,-15744.0,-3008.0,4160.0
1.8,-15744.0,-3008.0,4224.0
1.8025,-15680.0,-3008.0,4160.0
1.805,-15680.0,-3072.0,4224.0
1.8075,-15744.0,-3072.0,4288.0
1.81,-15744.0,-3072.0,4224.0
1.8125,-15744.0,-3008.0,4160.0
1.815,-15744.0,-3136.0,4160.0
1.8175,-15680.0,-3136.0,4160.0
1.82,-15744.0,-3136.0,4160.0
1.8225,-15744.0,-3200.0,4160.0
1.825,-15808.0,-3136.0,4096.0
1.8275,-15808.0,-3072.0,4096.0
1.83,-15808.0,-3136.0,4096.0
1.8325,-15808.0,-3136.0,4096.0
1.835,-15808.0,-3136.0,4096.0
1.8375,-15936.0,-3136.0,4032.0
1.84,-16128.0,-3072.0,4160.0
1.8425,-16064.0,-3072.0,4096.0
1.845,-16000.0,-3072.0,3968.0
1.8475,-16064.0,-3072.0,3904.0
1.85,-16064.0,-3136.0,3968.0
1.8525,-16128.0,-3200.0,4096.0
1.855,-16064.0,-3200.0,4032.0
1.8575,-16064.0,-3136.0,4032.0
1.86,-15936.0,-3136.0,4032.0
1.8625,-16000.0,-3136.0,4096.0
1.865,-16000.0,-3136.0,4160.0
1.8675,-16064.0,-3200.0,4160.0
1.87,-15936.0,-3136.0,4160.0
1.8725,-15936.0,-3136.0,4160.0
1.875,-15936.0,-3072.0,4096.0
1.8775,-15872.0,-3072.0,4096.0
1.88,-15872.0,-3136.0,4096.0
1.8825,-15936.0,-3136.0,4096.0
1.885,-15872.0,-3072.0,4160.0
1.8875,-15936.0,-3072.0,4160.0
1.89,-15872.0,-3072.0,4160.0
1.8925,-15808.0,-3072.0,4160.0
1.895,-15808.0,-3136.0,4160.0
1.8975,-15808.0,-3136.0,4096.0
1.9,-15808.0,-3136.0,4096.0
1.9025,-15680.0,-3072.0,4096.0
1.905,-15744.0,-3008.0,4096.0
1.9075,-15744.0,-3008.0,4096.0
1.91,-15680.0,-2944.0,4032.0
1.9125,-15680.0,-3008.0,4096.0
1.915,-15680.0,-3008.0,4096.0
1.9175,-15680.0,-2944.0,4160.0
1.92,-15744.0,-3008.0,4224.0
1.9225,-15616.0,-2944.0,4224.0
1.925,-15616.0,-2944.0,4160.0
1.9275,-15552.0,-2880.0,4096.0
1.93,-15552.0,-2944.0,4160.0
1.9325,-15552.0,-2944.0,4288.0
1.935,-15552.0,-2944.0,4288.0
1.9375,-15552.0,-2880.0,4160.0
1.94,-15552.0,-2944.0,4288.0
1.9425,-15552.0,-2944.0,4288.0
1.945,-15488.0,-2880.0,4224.0
1.9475,-15488.0,-2880.0,4224.0
1.95,-15552.0,-2880.0,4352.0
1.9525,-15552.0,-2880.0,4288.0
1.955,-15552.0,-2816.0,4288.0
1.9575,-15616.0,-2816.0,4288.0
1.96,-15616.0,-2816.0,4352.0
1.9625,-15616.0,-2880.0,4352.0
1.965,-15616.0,-2880.0,4352.0
1.9675,-15680.0,-2816.0,4352.0
1.97,-15680.0,-2816.0,4352.0
1.9725,-15744.0,-2816.0,4416.0
1.975,-15680.0,-2880.0,4416.0
1.9775,-15744.0,-2816.0,4352.0
1.98,-15744.0,-2816.0,4352.0
1.9825,-15744.0,-2816.0,4416.0
1.985,-15808.0,-2944.0,4416.0
1.9875,-15808.0,-2816.0,4416.0
1.99,-15808.0,-2880.0,4416.0
1.9925,-15808.0,-2880.0,4416.0
1.995,-15808.0,-2880.0,4416.0
1.9975,-15808.0,-2880.0,4544.0
2.0,-15808.0,-2944.0,4544.0
2.0025,-15808.0,-2880.0,4544.0
2.005,-15744.0,-2880.0,4544.0
2.0075,-15744.0,-2816.0,4416.0
2.01,-15808.0,-2816.0,4480.0
2.0125,-15808.0,-2816.0,4544.0
2.015,-15872.0,-2880.0,4544.0
2.0175,-15808.0,-2816.0,4544.0
2.02,-15744.0,-2816.0,4416.0
2.0225,-15808.0,-2880.0,4416.0
2.025,-15872.0,-2944.0,4480.0
2.0275,-15872.0,-2880.0,4416.0
2.03,-15872.0,-2944.0,4416.0
2.0325,-15872.0,-2944.0,4416.0
2.035,-15872.0,-2944.0,4416.0
2.0375,-15872.0,-2944.0,4416.0
2.04,-15872.0,-3008.0,4416.0
2.0425,-15872.0,-2944.0,4416.0
2.045,-15872.0,-2944.0,4352.0
2.0475,-15872.0,-3008.0,4352.0
2.05,-15936.0,-2944.0,4288.0
2.0525,-15936.0,-2880.0,4288.0
2.055,-15936.0,-2944.0,4352.0
2.0575,-15936.0,-2944.0,4352.0
2.06,-15936.0,-3008.0,4416.0
2.0625,-15936.0,-3008.0,4416.0
2.065,-15936.0,-3008.0,4416.0
2.0675,-15872.0,-3008.0,4416.0
2.07,-15936.0,-3008.0,4416.0
2.0725,-15872.0,-3072.0,4416.0
2.075,-15936.0,-3072.0,4416.0
2.0775,-15872.0,-3072.0,4352.0
2.08,-15936.0,-3136.0,4416.0
2.0825,-15872.0,-3072.0,4416.0
2.085,-15872.0,-3008.0,4288.0
2.0875,-15808.0,-3072.0,4288.0
2.09,-15808.0,-3072.0,4288.0
2.0925,-15808.0,-3072.0,4224.0
2.095,-15872.0,-3072.0,4352.0
2.0975,-15872.0,-3136.0,4416.0
2.1,-15872.0,-3136.0,4352.0
2.1025,-15808.0,-3072.0,4160.0
2.105,-15872.0,-3072.0,4160.0
2.1075,-15808.0,-3136.0,4160.0
2.11,-15808.0,-3072.0,4288.0
2.1125,-15808.0,-3072.0,4160.0
2.115,-15808.0,-3072.0,4224.0
2.1175,-15744.0,-3072.0,4224.0
2.12,-15744.0,-3136.0,4224.0
2.1225,-15744.0,-3136.0,4288.0
2.125,-15744.0,-3136.0,4224.0
2.1275,-15744.0,-3136.0,4224.0
2.13,-15744.0,-3072.0,4224.0
2.1325,-15744.0,-3072.0,4224.0
2.135,-15744.0,-3072.0,4288.0
2.1375,-15680.0,-3072.0,4224.0
2.14,-15680.0,-3072.0,4288.0
2.1425,-15616.0,-3136.0,4224.0
2.145,-15616.0,-3136.0,4224.0
2.1475,-15680.0,-3072.0,4224.0
2.15,-15680.0,-3072.0,4224.0
2.1525,-15680.0,-3136.0,4288.0
2.155,-15744.0,-3136.0,4288.0
2.1575,-15744.0,-3136.0,4224.0
2.16,-15808.0,-3200.0,4288.0
2.1625,-15744.0,-3200.0,4224.0
2.165,-15680.0,-3200.0,4224.0
2.1675,-15744.0,-3200.0,4160.0
2.17,-15808.0,-3200.0,4224.0
2.1725,-15872.0,-3264.0,4224.0
2.175,-15808.0,-3200.0,4224.0
2.1775,-15744.0,-3200.0,4160.0
2.18,-15744.0,-3200.0,4224.0
2.1825,-15744.0,-3200.0,4160.0
2.185,-15808.0,-3200.0,4096.0
2.1875,-15808.0,-3264.0,4160.0
2.19,-15744.0,-3328.0,4224.0
2.1925,-15808.0,-3328.0,4160.0
2.195,-15872.0,-3264.0,4160.0
2.1975,-15808.0,-3264.0,4160.0
2.2,-15744.0,-3264.0,4160.0
2.2025,-15744.0,-3264.0,4160.0
2.205,-15808.0,-3264.0,4224.0
2.2075,-15808.0,-3264.0,4224.0
2.21,-15744.0,-3328.0,4160.0
2.2125,-15808.0,-3328.0,4160.0
2.215,-15808.0,-3328.0,4224.0
2.2175,-15808.0,-3264.0,4160.0
2.22,-15808.0,-3328.0,4160.0
2.2225,-15808.0,-3328.0,4096.0
2.225,-15808.0,-3328.0,4160.0
2.2275,-15808.0,-3264.0,4160.0
2.23,-15808.0,-3264.0,4160.0
2.2325,-15808.0,-3264.0,4160.0
2.235,-15808.0,-3264.0,4160.0
2.2375,-15744.0,-3264.0,4224.0
2.24,-15808.0,-3328.0,4224.0
2.2425,-15744.0,-3200.0,4224.0
2.245,-15744.0,-3136.0,4160.0
2.2475,-15808.0,-3136.0,4096.0
2.25,-15808.0,-3200.0,4160.0
2.2525,-15808.0,-3200.0,4288.0
2.255,-15808.0,-3200.0,4224.0
2.2575,-15744.0,-3200.0,4160.0
2.26,-15744.0,-3200.0,4096.0
2.2625,-15744.0,-3200.0,4224.0
2.265,-15744.0,-3200.0,4224.0
2.2675,-15744.0,-3136.0,4224.0
2.27,-15744.0,-3200.0,4224.0
2.2725,-15808.0,-3200.0,4224.0
2.275,-15808.0,-3136.0,4288.0
2.2775,-15808.0,-3136.0,4288.0
2.28,-15808.0,-3136.0,4288.0
2.2825,-15808.0,-3136.0,4352.0
2.285,-15808.0,-3136.0,4288.0
2.2875,-15744.0,-3136.0,4288.0
2.29,-15744.0,-3136.0,4352.0
2.2925,-15808.0,-3072.0,4352.0
2.295,-15744.0,-3136.0,4288.0
2.2975,-15744.0,-3072.0,4288.0
2.3,-15744.0,-3072.0,4288.0
2.3025,-15744.0,-3072.0,4352.0
2.305,-15744.0,-3072.0,4288.0
2.3075,-15744.0,-3136.0,4352.0
2.31,-15744.0,-3072.0,4352.0
2.3125,-15680.0,-3072.0,4288.0
2.315,-15744.0,-3136.0,4352.0
2.3175,-15744.0,-3072.0,4352.0
2.32,-15744.0,-3072.0,4352.0
2.3225,-15808.0,-3072.0,4416.0
2.325,-15744.0,-3008.0,4288.0
2.3275,-15808.0,-3008.0,4288.0
2.33,-15744.0,-3008.0,4352.0
2.3325,-15744.0,-3008.0,4288.0
2.335,-15744.0,-3072.0,4352.0
2.3375,-15744.0,-3072.0,4416.0
2.34,-15808.0,-3072.0,4416.0
2.3425,-15744.0,-3008.0,4288.0
2.345,-15680.0,-3008.0,4288.0
2.3475,-15744.0,-3008.0,4352.0
2.35,-15744.0,-3008.0,4352.0
2.3525,-15744.0,-3008.0,4416.0
2.355,-15744.0,-3136.0,4352.0
2.3575,-15744.0,-3008.0,4416.0
2.36,-15744.0,-3072.0,4352.0
2.3625,-15808.0,-3072.0,4352.0
2.365,-15808.0,-3136.0,4288.0
2.3675,-15808.0,-3136.0,4352.0
2.37,-15808.0,-3136.0,4352.0
2.3725,-15872.0,-3136.0,4416.0
2.375,-15872.0,-3136.0,4416.0
2.3775,-16000.0,-3136.0,4416.0
2.38,-15936.0,-3136.0,4288.0
2.3825,-15936.0,-3072.0,4288.0
2.385,-15936.0,-3136.0,4288.0
2.3875,-16000.0,-3136.0,4288.0
2.39,-16000.0,-3136.0,4288.0
2.3925,-16000.0,-3136.0,4288.0
2.395,-16064.0,-3072.0,4288.0
2.3975,-16064.0,-3136.0,4288.0
2.4,-15936.0,-3136.0,4160.0
2.4025,-16000.0,-3136.0,4352.0
2.405,-16000.0,-3136.0,4224.0
2.4075,-15936.0,-3072.0,4224.0
2.41,-15936.0,-3072.0,4224.0
2.4125,-15936.0,-3072.0,4224.0
2.415,-16000.0,-3136.0,4352.0
2.4175,-15936.0,-3072.0,4352.0
2.42,-15808.0,-3072.0,4224.0
2.4225,-15808.0,-3072.0,4224.0
2.425,-15872.0,-3136.0,4224.0
2.4275,-15744.0,-3008.0,4096.0
2.43,-15808.0,-3008.0,4224.0
2.4325,-15808.0,-3072.0,4224.0
2.435,-15808.0,-3072.0,4224.0
2.4375,-15808.0,-3072.0,4288.0
2.44,-15744.0,-3136.0,4160.0
2.4425,-15744.0,-3136.0,4224.0
2.445,-15744.0,-3072.0,4160.0
2.4475,-15744.0,-3136.0,4160.0
2.45,-15744.0,-3136.0,4160.0
2.4525,-15808.0,-3008.0,4160.0
2.455,-15744.0,-3008.0,4096.0
2.4575,-15744.0,-3072.0,4160.0
2.46,-15680.0,-3072.0,4160.0
2.4625,-15680.0,-3072.0,4160.0
2.465,-15680.0,-3072.0,4160.0
2.4675,-15680.0,-3072.0,4096.0
2.47,-15680.0,-3072.0,4160.0
2.4725,-15744.0,-3072.0,4096.0
2.475,-15680.0,-3008.0,4096.0
2.4775,-15680.0,-3072.0,4096.0
2.48,-15616.0,-3072.0,4032.0
2.4825,-15616.0,-3072.0,4160.0
2.485,-15616.0,-3072.0,4096.0
2.4875,-15680.0,-3008.0,3904.0
2.49,-15680.0,-3008.0,3968.0
2.4925,-15744.0,-3072.0,4096.0
2.495,-15808.0,-3072.0,4096.0
2.4975,-15680.0,-3136.0,4096.0
2.5,-15744.0,-3072.0,3968.0
2.5025,-15808.0,-3136.0,3968.0
2.505,-15808.0,-3136.0,4096.0
2.5075,-15808.0,-3136.0,4032.0
2.51,-15808.0,-3136.0,4096.0
2.5125,-15872.0,-3136.0,4032.0
2.515,-15808.0,-3072.0,3968.0
2.5175,-15936.0,-3136.0,4032.0
2.52,-15872.0,-3200.0,3968.0
2.5225,-15872.0,-3200.0,4032.0
2.525,-15936.0,-3200.0,4032.0
2.5275,-15872.0,-3264.0,4032.0
2.53,-15872.0,-3264.0,3968.0
2.5325,-15808.0,-3200.0,4032.0
2.535,-15872.0,-3136.0,4032.0
2.5375,-15872.0,-3136.0,4096.0
2.54,-15872.0,-3136.0,4096.0
2.5425,-15872.0,-3136.0,4096.0
2.545,-15872.0,-3136.0,4032.0
2.5475,-15872.0,-3136.0,4032.0
2.55,-15872.0,-3136.0,4160.0
2.5525,-15872.0,-3200.0,4096.0
2.555,-15808.0,-3136.0,4096.0
2.5575,-15872.0,-3200.0,4096.0
2.56,-15936.0,-3200.0,4224.0
2.5625,-15872.0,-3200.0,4160.0
2.565,-15808.0,-3200.0,4032.0
2.5675,-15808.0,-3264.0,4096.0
2.57,-15808.0,-3264.0,4160.0
2.5725,-15872.0,-3328.0,4224.0
2.575,-15872.0,-3264.0,4224.0
2.5775,-15808.0,-3264.0,4096.0
2.58,-15808.0,-3200.0,4160.0
2.5825,-15872.0,-3136.0,4160.0
2.585,-15872.0,-3200.0,4224.0
2.5875,-15872.0,-3200.0,4160.0
2.59,-15872.0,-3264.0,4224.0
2.5925,-15872.0,-3264.0,4224.0
2.595,-15808.0,-3200.0,4288.0
2.5975,-15872.0,-3200.0,4224.0
2.6,-15872.0,-3136.0,4224.0
2.6025,-15808.0,-3136.0,4288.0
2.605,-15808.0,-3136.0,4224.0
2.6075,-15744.0,-3072.0,4352.0
2.61,-15744.0,-3072.0,4352.0
2.6125,-15744.0,-3136.0,4288.0
2.615,-15744.0,-3136.0,4224.0
2.6175,-15744.0,-3136.0,4224.0
2.62,-15744.0,-3072.0,4288.0
2.6225,-15808.0,-3136.0,4288.0
2.625,-15744.0,-3136.0,4288.0
2.6275,-15744.0,-3136.0,4288.0
2.63,-15808.0,-3072.0,4288.0
2.6325,-15808.0,-3136.0,4352.0
2.635,-15808.0,-3136.0,4352.0
2.6375,-15808.0,-3200.0,4352.0
2.64,-15872.0,-3136.0,4288.0
2.6425,-15808.0,-3136.0,4288.0
2.645,-15744.0,-3136.0,4288.0
2.6475,-15808.0,-3072.0,4288.0
2.65,-15744.0,-3072.0,4224.0
2.6525,-15808.0,-3136.0,4288.0
2.655,-15744.0,-3136.0,4224.0
2.6575,-15680.0,-3136.0,4160.0
2.66,-15744.0,-3136.0,4224.0
2.6625,-15744.0,-3072.0,4160.0
2.665,-15680.0,-3008.0,4160.0
2.6675,-15744.0,-3072.0,4160.0
2.67,-15744.0,-3008.0,4160.0
2.6725,-15808.0,-3072.0,4096.0
2.675,-15744.0,-3008.0,4096.0
2.6775,-15744.0,-3072.0,4160.0
2.68,-15744.0,-3072.0,4160.0
2.6825,-15808.0,-3008.0,4096.0
2.685,-15680.0,-3072.0,4224.0
2.6875,-15744.0,-3072.0,4160.0
2.69,-15744.0,-3072.0,4160.0
2.6925,-15744.0,-3008.0,4096.0
2.695,-15744.0,-3072.0,4160.0
2.6975,-15744.0,-3008.0,4096.0
2.7,-15744.0,-3008.0,4160.0
2.7025,-15744.0,-3008.0,4224.0
2.705,-15680.0,-3008.0,4224.0
2.7075,-15680.0,-2944.0,4160.0
2.71,-15680.0,-3008.0,4096.0
2.7125,-15680.0,-3072.0,4032.0
2.715,-15680.0,-3008.0,4096.0
2.7175,-15744.0,-3008.0,4096.0
2.72,-15808.0,-3072.0,4160.0
2.7225,-15872.0,-3072.0,4160.0
2.725,-15808.0,-3072.0,4224.0
2.7275,-15808.0,-3072.0,4032.0
2.73,-15872.0,-3072.0,4032.0
2.7325,-15936.0,-3072.0,4160.0
2.735,-15872.0,-3072.0,4160.0
2.7375,-15808.0,-3136.0,4032.0
2.74,-15744.0,-3072.0,4032.0
2.7425,-15808.0,-3136.0,4096.0
2.745,-15872.0,-3136.0,4032.0
2.7475,-15872.0,-3200.0,4160.0
2.75,-15872.0,-3136.0,4096.0
2.7525,-15808.0,-3136.0,4160.0
2.755,-15808.0,-3072.0,4096.0
2.7575,-15872.0,-3136.0,4096.0
2.76,-15872.0,-3072.0,4096.0
2.7625,-15872.0,-3136.0,4096.0
2.765,-15808.0,-3072.0,4096.0
2.7675,-15808.0,-3136.0,4096.0
2.77,-15808.0,-3072.0,4096.0
2.7725,-15808.0,-3136.0,4096.0
2.775,-15872.0,-3136.0,4096.0
2.7775,-15936.0,-3136.0,4096.0
2.78,-15936.0,-3136.0,4032.0
2.7825,-15872.0,-3136.0,4096.0
2.785,-15872.0,-3136.0,4096.0
2.7875,-15872.0,-3136.0,4160.0
2.79,-15808.0,-3136.0,4160.0
2.7925,-15872.0,-3136.0,4096.0
2.795,-15872.0,-3136.0,4160.0
2.7975,-15872.0,-3200.0,4160.0
2.8,-16000.0,-3200.0,4160.0
2.8025,-15872.0,-3200.0,4096.0
2.805,-15808.0,-3136.0,4032.0
2.8075,-15808.0,-3136.0,4032.0
2.81,-15808.0,-3136.0,4032.0
2.8125,-15872.0,-3136.0,4096.0
2.815,-15872.0,-3136.0,4160.0
2.8175,-15872.0,-3136.0,4224.0
2.82,-15744.0,-3072.0,4096.0
2.8225,-15808.0,-3072.0,4096.0
2.825,-15808.0,-3072.0,4160.0
2.8275,-15808.0,-3072.0,4160.0
2.83,-15744.0,-3136.0,4096.0
2.8325,-15744.0,-3136.0,4160.0
2.835,-15808.0,-3136.0,4160.0
2.8375,-15808.0,-3200.0,4160.0
2.84,-15744.0,-3136.0,4224.0
2.8425,-15808.0,-3136.0,4288.0
2.845,-15808.0,-3200.0,4224.0
2.8475,-15808.0,-3136.0,4224.0
2.85,-15808.0,-3136.0,4224.0
2.8525,-15744.0,-3136.0,4224.0
2.855,-15744.0,-3200.0,4160.0
2.8575,-15744.0,-3136.0,4224.0
2.86,-15808.0,-3136.0,4160.0
2.8625,-15808.0,-3072.0,4224.0
2.865,-15744.0,-3136.0,4160.0
2.8675,-15744.0,-3136.0,4224.0
2.87,-15872.0,-3008.0,4224.0
2.8725,-15744.0,-3072.0,4224.0
2.875,-15744.0,-3072.0,4224.0
2.8775,-15808.0,-3136.0,4224.0
2.88,-15808.0,-3072.0,4160.0
2.8825,-15808.0,-3136.0,4160.0
2.885,-15872.0,-3136.0,4224.0
2.8875,-15808.0,-3200.0,4224.0
2.89,-15808.0,-3136.0,4160.0
2.8925,-15808.0,-3072.0,4160.0
2.895,-15808.0,-3136.0,4160.0
2.8975,-15808.0,-3136.0,4224.0
2.9,-15808.0,-3072.0,4160.0
2.9025,-15744.0,-3136.0,4096.0
2.905,-15808.0,-3072.0,4032.0
2.9075,-15808.0,-3072.0,4032.0
2.91,-15808.0,-3136.0,4096.0
2.9125,-15872.0,-3072.0,4160.0
2.915,-15744.0,-3136.0,4160.0
2.9175,-15808.0,-3136.0,4160.0
2.92,-15808.0,-3136.0,4096.0
2.9225,-15744.0,-3200.0,4096.0
2.925,-15808.0,-3136.0,4096.0
2.9275,-15744.0,-3136.0,4160.0
2.93,-15808.0,-3136.0,4160.0
2.9325,-15808.0,-3072.0,4160.0
2.935,-15808.0,-3072.0,4160.0
2.9375,-15936.0,-3136.0,4096.0
2.94,-15936.0,-3072.0,4096.0
2.9425,-15808.0,-3072.0,4096.0
2.945,-15872.0,-3136.0,4096.0
2.9475,-15872.0,-3136.0,4096.0
2.95,-16000.0,-3072.0,4032.0
2.9525,-15936.0,-3008.0,4096.0
2.955,-15936.0,-3072.0,4160.0
2.9575,-15936.0,-3072.0,4160.0
2.96,-15936.0,-3072.0,4288.0
2.9625,-16000.0,-3136.0,4224.0
2.965,-15872.0,-3008.0,4160.0
2.9675,-15936.0,-3008.0,4224.0
2.97,-15936.0,-3008.0,4224.0
2.9725,-15936.0,-3072.0,4288.0
2.975,-15872.0,-3072.0,4416.0
2.9775,-15872.0,-3136.0,4480.0
2.98,-15872.0,-3072.0,4288.0
2.9825,-15872.0,-3008.0,4352.0
2.985,-15872.0,-3008.0,4416.0
2.9875,-15872.0,-3072.0,4480.0
2.99,-15872.0,-3072.0,4480.0
2.9925,-15872.0,-3072.0,4480.0
2.995,-15808.0,-3008.0,4480.0
2.9975,-15808.0,-3072.0,4480.0
3.0,-15808.0,-3008.0,4416.0
3.0025,-15808.0,-3072.0,4416.0
3.005,-15808.0,-3072.0,4480.0
3.0075,-15872.0,-3072.0,4544.0
3.01,-15872.0,-3072.0,4480.0
3.0125,-15872.0,-3008.0,4544.0
3.015,-15872.0,-3008.0,4544.0
3.0175,-15872.0,-3008.0,4544.0
3.02,-15872.0,-3008.0,4544.0
3.0225,-15872.0,-3008.0,4544.0
3.025,-15872.0,-2944.0,4608.0
3.0275,-15872.0,-2944.0,4608.0
3.03,-15872.0,-2880.0,4672.0
3.0325,-15872.0,-2944.0,4736.0
3.035,-15872.0,-2944.0,4736.0
3.0375,-15872.0,-2944.0,4736.0
3.04,-15936.0,-2944.0,4864.0
3.0425,-15936.0,-2944.0,4800.0
3.045,-15872.0,-2944.0,4800.0
3.0475,-15872.0,-2880.0,4608.0
3.05,-15936.0,-2944.0,4736.0
3.0525,-16064.0,-2944.0,4864.0
3.055,-16000.0,-3008.0,4736.0
3.0575,-15936.0,-3008.0,4672.0
3.06,-16000.0,-2944.0,4544.0
3.0625,-16000.0,-3008.0,4544.0
3.065,-16000.0,-3072.0,4544.0
3.0675,-16000.0,-3072.0,4480.0
3.07,-16000.0,-3072.0,4480.0
3.0725,-16064.0,-3136.0,4416.0
3.075,-16064.0,-3136.0,4416.0
3.0775,-16064.0,-3072.0,4352.0
3.08,-16064.0,-3072.0,4416.0
3.0825,-16064.0,-3008.0,4352.0
3.085,-16128.0,-3072.0,4288.0
3.0875,-16064.0,-3008.0,4352.0
3.09,-16000.0,-3008.0,4480.0
3.0925,-16000.0,-3008.0,4416.0
3.095,-16000.0,-3008.0,4352.0
3.0975,-16064.0,-3008.0,4416.0
3.1,-16064.0,-3008.0,4480.0
3.1025,-16064.0,-3008.0,4480.0
3.105,-16128.0,-3072.0,4544.0
3.1075,-16128.0,-3072.0,4544.0
3.11,-16064.0,-3072.0,4544.0
3.1125,-16000.0,-3136.0,4544.0
3.115,-16000.0,-3136.0,4544.0
3.1175,-16000.0,-3200.0,4608.0
3.12,-16064.0,-3264.0,4672.0
3.1225,-16064.0,-3328.0,4608.0
3.125,-16000.0,-3264.0,4480.0
3.1275,-16064.0,-3264.0,4480.0
3.13,-16192.0,-3328.0,4480.0
3.1325,-16192.0,-3392.0,4608.0
3.135,-16192.0,-3264.0,4544.0
3.1375,-16128.0,-3264.0,4352.0
3.14,-16128.0,-3264.0,4480.0
3.1425,-16128.0,-3264.0,4416.0
3.145,-16128.0,-3264.0,4480.0
3.1475,-16128.0,-3264.0,4544.0
3.15,-16192.0,-3264.0,4608.0
3.1525,-16064.0,-3200.0,4672.0
3.155,-16064.0,-3264.0,4736.0
3.1575,-16064.0,-3200.0,4800.0
3.16,-16064.0,-3264.0,4800.0
3.1625,-16064.0,-3264.0,4736.0
3.165,-16064.0,-3264.0,4800.0
3.1675,-16064.0,-3328.0,4800.0
3.17,-16000.0,-3328.0,4800.0
3.1725,-16000.0,-3328.0,4800.0
3.175,-15936.0,-3264.0,4800.0
3.1775,-15936.0,-3264.0,4928.0
3.18,-15936.0,-3200.0,4928.0
3.1825,-15872.0,-3264.0,4928.0
3.185,-15936.0,-3264.0,4992.0
3.1875,-15872.0,-3264.0,4864.0
3.19,-15808.0,-3200.0,4928.0
3.1925,-15744.0,-3200.0,4992.0
3.195,-15744.0,-3200.0,4992.0
3.1975,-15680.0,-3200.0,4992.0
3.2,-15744.0,-3200.0,5056.0
3.2025,-15680.0,-3136.0,5056.0
3.205,-15680.0,-3136.0,5056.0
3.2075,-15616.0,-3136.0,4864.0
3.21,-15680.0,-3072.0,4928.0
3.2125,-15616.0,-3072.0,4864.0
3.215,-15616.0,-3072.0,4992.0
3.2175,-15616.0,-3072.0,5056.0
3.22,-15488.0,-3072.0,5056.0
3.2225,-15424.0,-3008.0,4928.0
3.225,-15488.0,-3008.0,4928.0
3.2275,-15424.0,-3008.0,4928.0
3.23,-15360.0,-3008.0,4992.0
3.2325,-15296.0,-2944.0,4992.0
3.235,-15296.0,-3008.0,4928.0
3.2375,-15360.0,-2944.0,4992.0
3.24,-15296.0,-2944.0,4928.0
3.2425,-15296.0,-2944.0,4992.0
3.245,-15296.0,-3008.0,4928.0
3.2475,-15296.0,-2944.0,4992.0
3.25,-15232.0,-2944.0,4992.0
3.2525,-15232.0,-2880.0,4928.0
3.255,-15232.0,-2880.0,4928.0
3.2575,-15168.0,-2880.0,4992.0
3.26,-15168.0,-2880.0,4992.0
3.2625,-15232.0,-2880.0,4928.0
3.265,-15168.0,-2880.0,4992.0
3.2675,-15168.0,-2816.0,4992.0
3.27,-15168.0,-2816.0,4992.0
3.2725,-15168.0,-2816.0,4928.0
3.275,-15232.0,-2880.0,4928.0
3.2775,-15168.0,-2880.0,4928.0
3.28,-15232.0,-2880.0,4928.0
3.2825,-15232.0,-2880.0,4864.0
3.285,-15168.0,-2816.0,4736.0
3.2875,-15168.0,-2816.0,4736.0
3.29,-15168.0,-2752.0,4672.0
3.2925,-15232.0,-2816.0,4736.0
3.295,-15296.0,-2816.0,4864.0
3.2975,-15232.0,-2816.0,4864.0
3.3,-15232.0,-2816.0,4800.0
3.3025,-15168.0,-2752.0,4736.0
3.305,-15232.0,-2752.0,4864.0
3.3075,-15296.0,-2816.0,4800.0
3.31,-15296.0,-2816.0,4864.0
3.3125,-15296.0,-2816.0,4800.0
3.315,-15232.0,-2880.0,4800.0
3.3175,-15296.0,-2880.0,4800.0
3.32,-15232.0,-2880.0,4800.0
3.3225,-15232.0,-2816.0,4800.0
3.325,-15296.0,-2816.0,4800.0
3.3275,-15296.0,-2816.0,4736.0
3.33,-15296.0,-2816.0,4800.0
3.3325,-15296.0,-2816.0,4800.0
3.335,-15296.0,-2816.0,4800.0
3.3375,-15296.0,-2816.0,4736.0
3.34,-15296.0,-2816.0,4736.0
3.3425,-15232.0,-2816.0,4672.0
3.345,-15168.0,-2816.0,4736.0
3.3475,-15168.0,-2816.0,4736.0
3.35,-15104.0,-2816.0,4800.0
3.3525,-15104.0,-2816.0,4800.0
3.355,-15104.0,-2816.0,4800.0
3.3575,-15104.0,-2816.0,4800.0
3.36,-14976.0,-2816.0,4672.0
3.3625,-15040.0,-2816.0,4736.0
3.365,-14976.0,-2880.0,4736.0
3.3675,-14912.0,-2816.0,4800.0
3.37,-14912.0,-2816.0,4864.0
3.3725,-14848.0,-2816.0,4736.0
3.375,-14848.0,-2816.0,4736.0
3.3775,-14848.0,-2816.0,4800.0
3.38,-14784.0,-2816.0,4736.0
3.3825,-14720.0,-2752.0,4608.0
3.385,-14720.0,-2752.0,4608.0
3.3875,-14720.0,-2752.0,4672.0
3.39,-14720.0,-2752.0,4672.0
3.3925,-14720.0,-2688.0,4672.0
3.395,-14656.0,-2624.0,4608.0
3.3975,-14592.0,-2624.0,4672.0
3.4,-14656.0,-2688.0,4608.0
3.4025,-14592.0,-2688.0,4608.0
3.405,-14528.0,-2624.0,4672.0
3.4075,-14528.0,-2560.0,4544.0
3.41,-14592.0,-2560.0,4480.0
3.4125,-14528.0,-2496.0,4544.0
3.415,-14464.0,-2560.0,4544.0
3.4175,-14528.0,-2688.0,4608.0
3.42,-14528.0,-2688.0,4608.0
3.4225,-14528.0,-2560.0,4544.0
3.425,-14464.0,-2432.0,4480.0
3.4275,-14528.0,-2368.0,4480.0
3.43,-14528.0,-2304.0,4480.0
3.4325,-14528.0,-2240.0,4416.0
3.435,-14464.0,-2240.0,4416.0
3.4375,-14464.0,-2304.0,4544.0
3.44,-14592.0,-2624.0,4672.0
3.4425,-14592.0,-2688.0,4608.0
3.445,-14528.0,-2752.0,4736.0
3.4475,-14528.0,-2752.0,4800.0
3.45,-14592.0,-2816.0,4928.0
3.4525,-14656.0,-2944.0,5056.0
3.455,-14656.0,-2880.0,5056.0
3.4575,-14656.0,-2816.0,5056.0
3.46,-14528.0,-2816.0,4992.0
3.4625,-14592.0,-2752.0,4992.0
3.465,-14656.0,-2816.0,5184.0
3.4675,-14592.0,-2816.0,5184.0
3.47,-14592.0,-2944.0,5312.0
3.4725,-14592.0,-2944.0,5248.0
3.475,-14592.0,-2944.0,5312.0
3.4775,-14656.0,-2880.0,5376.0
3.48,-14720.0,-3008.0,5376.0
3.4825,-14784.0,-3008.0,5376.0
3.485,-14720.0,-3008.0,5248.0
3.4875,-14784.0,-3072.0,5248.0
3.49,-14784.0,-3072.0,5248.0
3.4925,-14848.0,-3008.0,5184.0
3.495,-14912.0,-3008.0,5248.0
3.4975,-14848.0,-3008.0,5184.0
3.5,-14848.0,-3008.0,5120.0
3.5025,-14848.0,-2944.0,5120.0
3.505,-14848.0,-2944.0,5056.0
3.5075,-14848.0,-2944.0,4992.0
3.51,-14848.0,-2944.0,4992.0
3.5125,-14848.0,-3008.0,4992.0
3.515,-14848.0,-3008.0,5056.0
3.5175,-14912.0,-3072.0,5120.0
3.52,-14912.0,-3072.0,5248.0
3.5225,-14912.0,-3072.0,5184.0
3.525,-14912.0,-3008.0,5248.0
3.5275,-14848.0,-3008.0,5120.0
3.53,-14912.0,-3072.0,5184.0
3.5325,-14976.0,-3136.0,5248.0
3.535,-14976.0,-3072.0,5376.0
3.5375,-14912.0,-3072.0,5312.0
3.54,-14848.0,-3008.0,5312.0
3.5425,-14784.0,-3008.0,5312.0
3.545,-14848.0,-2944.0,5440.0
3.5475,-14784.0,-2880.0,5440.0
3.55,-14848.0,-2880.0,5568.0
3.5525,-14976.0,-2880.0,5632.0
3.555,-14912.0,-2880.0,5760.0
3.5575,-14976.0,-2880.0,5760.0
3.56,-15040.0,-2816.0,5824.0
3.5625,-15104.0,-2944.0,5824.0
3.565,-15104.0,-3008.0,5824.0
3.5675,-15168.0,-3008.0,5760.0
3.57,-15232.0,-3008.0,5760.0
3.5725,-15232.0,-3008.0,5760.0
3.575,-15168.0,-3072.0,5696.0
3.5775,-15232.0,-3072.0,5568.0
3.58,-15296.0,-3008.0,5568.0
3.5825,-15296.0,-3008.0,5504.0
3.585,-15296.0,-3008.0,5440.0
3.5875,-15296.0,-3008.0,5376.0
3.59,-15296.0,-3008.0,5440.0
3.5925,-15296.0,-3008.0,5376.0
3.595,-15296.0,-2944.0,5312.0
3.5975,-15360.0,-2944.0,5312.0
3.6,-15296.0,-3008.0,5376.0
3.6025,-15296.0,-2944.0,5504.0
3.605,-15168.0,-2944.0,5504.0
3.6075,-15168.0,-2944.0,5440.0
3.61,-15104.0,-2944.0,5440.0
3.6125,-15040.0,-2944.0,5504.0
3.615,-15104.0,-2880.0,5504.0
3.6175,-14912.0,-2880.0,5504.0
3.62,-14848.0,-2880.0,5504.0
3.6225,-14784.0,-2816.0,5376.0
3.625,-14784.0,-2880.0,5440.0
3.6275,-14720.0,-2816.0,5440.0
3.63,-14592.0,-2816.0,5440.0
3.6325,-14528.0,-2816.0,5440.0
3.635,-14528.0,-2816.0,5504.0
3.6375,-14464.0,-2752.0,5376.0
3.64,-14400.0,-2752.0,5376.0
3.6425,-14336.0,-2752.0,5376.0
3.645,-14400.0,-2752.0,5312.0
3.6475,-14272.0,-2816.0,5312.0
3.65,-14208.0,-2816.0,5376.0
3.6525,-14208.0,-2752.0,5376.0
3.655,-14080.0,-2816.0,5312.0
3.6575,-14016.0,-2816.0,5440.0
3.66,-14016.0,-2688.0,5504.0
3.6625,-13952.0,-2624.0,5440.0
3.665,-13888.0,-2688.0,5504.0
3.6675,-13888.0,-2752.0,5440.0
3.67,-13824.0,-2816.0,5440.0
3.6725,-13824.0,-2752.0,5440.0
3.675,-13696.0,-2752.0,5504.0
3.6775,-13632.0,-2752.0,5504.0
3.68,-13760.0,-2752.0,5568.0
3.6825,-13696.0,-2688.0,5504.0
3.685,-13568.0,-2752.0,5440.0
3.6875,-13568.0,-2688.0,5376.0
3.69,-13568.0,-2752.0,5440.0
3.6925,-13568.0,-2688.0,5440.0
3.695,-13504.0,-2688.0,5504.0
3.6975,-13440.0,-2688.0,5504.0
3.7,-13376.0,-2560.0,5440.0
3.7025,-13376.0,-2688.0,5440.0
3.705,-13440.0,-2688.0,5568.0
3.7075,-13504.0,-2624.0,5440.0
3.71,-13376.0,-2624.0,5440.0
3.7125,-13376.0,-2688.0,5504.0
3.715,-13376.0,-2752.0,5440.0
3.7175,-13440.0,-2816.0,5568.0
3.72,-13440.0,-2752.0,5568.0
3.7225,-13312.0,-2752.0,5504.0
3.725,-13376.0,-2688.0,5568.0
3.7275,-13312.0,-2688.0,5568.0
3.73,-13248.0,-2816.0,5568.0
3.7325,-13312.0,-2880.0,5504.0
3.735,-13312.0,-2880.0,5440.0
3.7375,-13376.0,-3008.0,5440.0
3.74,-13440.0,-2944.0,5504.0
3.7425,-13440.0,-2944.0,5568.0
3.745,-13376.0,-3008.0,5568.0
3.7475,-13312.0,-3072.0,5504.0
3.75,-13376.0,-3072.0,5440.0
3.7525,-13376.0,-3136.0,5440.0
3.755,-13376.0,-3200.0,5440.0
3.7575,-13376.0,-3136.0,5312.0
3.76,-13440.0,-3072.0,5312.0
3.7625,-13568.0,-3136.0,5376.0
3.765,-13568.0,-3264.0,5504.0
3.7675,-13632.0,-3264.0,5440.0
3.77,-13632.0,-3264.0,5312.0
3.7725,-13696.0,-3328.0,5312.0
3.775,-13888.0,-3328.0,5440.0
3.7775,-13888.0,-3328.0,5504.0
3.78,-13888.0,-3264.0,5376.0
3.7825,-13888.0,-3264.0,5312.0
3.785,-13952.0,-3264.0,5312.0
3.7875,-14016.0,-3264.0,5312.0
3.79,-14080.0,-3264.0,5376.0
3.7925,-14144.0,-3328.0,5376.0
3.795,-14144.0,-3328.0,5312.0
3.7975,-14144.0,-3392.0,5312.0
3.8,-14208.0,-3392.0,5312.0
3.8025,-14208.0,-3456.0,5312.0
3.805,-14272.0,-3392.0,5376.0
3.8075,-14272.0,-3456.0,5312.0
3.81,-14336.0,-3456.0,5312.0
3.8125,-14464.0,-3456.0,5312.0
3.815,-14464.0,-3328.0,5312.0
3.8175,-14592.0,-3264.0,5312.0
3.82,-14592.0,-3328.0,5376.0
3.8225,-14656.0,-3392.0,5440.0
3.825,-14656.0,-3392.0,5504.0
3.8275,-14656.0,-3456.0,5504.0
3.83,-14720.0,-3456.0,5504.0
3.8325,-14720.0,-3456.0,5504.0
3.835,-14720.0,-3456.0,5504.0
3.8375,-14656.0,-3456.0,5504.0
3.84,-14656.0,-3456.0,5568.0
3.8425,-14592.0,-3520.0,5632.0
3.845,-14720.0,-3584.0,5632.0
3.8475,-14720.0,-3520.0,5632.0
3.85,-14720.0,-3456.0,5568.0
3.8525,-14656.0,-3456.0,5632.0
3.855,-14656.0,-3520.0,5760.0
3.8575,-14656.0,-3584.0,5760.0
3.86,-14720.0,-3584.0,5632.0
3.8625,-14784.0,-3520.0,5760.0
3.865,-14720.0,-3456.0,5760.0
3.8675,-14656.0,-3392.0,5760.0
3.87,-14720.0,-3392.0,5888.0
3.8725,-14656.0,-3392.0,5824.0
3.875,-14656.0,-3392.0,5888.0
3.8775,-14656.0,-3392.0,5824.0
3.88,-14656.0,-3456.0,5888.0
3.8825,-14720.0,-3392.0,5888.0
3.885,-14720.0,-3392.0,5952.0
3.8875,-14720.0,-3392.0,6080.0
3.89,-14720.0,-3392.0,6080.0
3.8925,-14720.0,-3392.0,6144.0
3.895,-14656.0,-3392.0,6144.0
3.8975,-14656.0,-3328.0,6144.0
3.9,-14656.0,-3264.0,6272.0
3.9025,-14528.0,-3136.0,6208.0
3.905,-14464.0,-3136.0,6272.0
3.9075,-14336.0,-3072.0,6272.0
3.91,-14336.0,-3072.0,6272.0
3.9125,-14400.0,-3136.0,6528.0
3.915,-14336.0,-2944.0,6272.0
3.9175,-14336.0,-2944.0,6400.0
3.92,-14208.0,-2880.0,6336.0
3.9225,-14208.0,-2880.0,6336.0
3.925,-14080.0,-2880.0,6208.0
3.9275,-14080.0,-2816.0,6208.0
3.93,-14080.0,-2752.0,6272.0
3.9325,-14144.0,-2688.0,6272.0
3.935,-14016.0,-2624.0,6272.0
3.9375,-14016.0,-2624.0,6272.0
3.94,-13952.0,-2560.0,6144.0
3.9425,-13952.0,-2496.0,6208.0
3.945,-14016.0,-2560.0,6336.0
3.9475,-14080.0,-2560.0,6272.0
3.95,-14080.0,-2560.0,6400.0
3.9525,-14016.0,-2432.0,6464.0
3.955,-14080.0,-2432.0,6528.0
3.9575,-14080.0,-2496.0,6528.0
3.96,-14016.0,-2496.0,6592.0
3.9625,-13952.0,-2496.0,6656.0
3.965,-13888.0,-2496.0,6720.0
3.9675,-13888.0,-2368.0,6720.0
3.97,-13952.0,-2432.0,6848.0
3.9725,-13888.0,-2368.0,6912.0
3.975,-13888.0,-2368.0,7040.0
3.9775,-13888.0,-2368.0,7104.0
3.98,-13952.0,-2304.0,7168.0
3.9825,-13952.0,-2304.0,7168.0
3.985,-13952.0,-2304.0,7232.0
3.9875,-13952.0,-2304.0,7232.0
3.99,-14016.0,-2240.0,7232.0
3.9925,-14080.0,-2240.0,7296.0
3.995,-14080.0,-2176.0,7232.0
3.9975,-14080.0,-2112.0,7232.0
4.0,-14144.0,-2112.0,7424.0
4.0025,-14144.0,-2048.0,7424.0
4.005,-14080.0,-1984.0,7296.0
4.0075,-14016.0,-1920.0,7360.0
4.01,-14016.0,-1984.0,7296.0
4.0125,-14080.0,-2048.0,7488.0
4.015,-14208.0,-2048.0,7616.0
4.0175,-14208.0,-2112.0,7616.0
4.02,-14016.0,-2112.0,7616.0
4.0225,-14016.0,-2048.0,7424.0
4.025,-14080.0,-2112.0,7424.0
4.0275,-14016.0,-2112.0,7360.0
4.03,-14080.0,-2048.0,7488.0
4.0325,-14144.0,-1984.0,7488.0
4.035,-14080.0,-1920.0,7488.0
4.0375,-14080.0,-1920.0,7488.0
4.04,-14016.0,-1920.0,7424.0
4.0425,-14016.0,-1920.0,7360.0
4.045,-14016.0,-1920.0,7424.0
4.0475,-14016.0,-1920.0,7424.0
4.05,-14016.0,-1856.0,7488.0
4.0525,-13952.0,-1856.0,7488.0
4.055,-14016.0,-1856.0,7552.0
4.0575,-14016.0,-1856.0,7680.0
4.06,-14016.0,-1920.0,7744.0
4.0625,-13952.0,-1920.0,7808.0
4.065,-14016.0,-1856.0,7808.0
4.0675,-14016.0,-1856.0,7936.0
4.07,-14016.0,-1856.0,7872.0
4.0725,-13888.0,-1920.0,8064.0
4.075,-13952.0,-1920.0,8192.0
4.0775,-13952.0,-1984.0,8256.0
4.08,-14016.0,-1984.0,8512.0
4.0825,-14016.0,-2048.0,8640.0
4.085,-14080.0,-2048.0,8640.0
4.0875,-14080.0,-2048.0,8576.0
4.09,-14208.0,-2112.0,8576.0
4.0925,-14336.0,-2176.0,8768.0
4.095,-14464.0,-2112.0,8768.0
4.0975,-14528.0,-2112.0,8640.0
4.1,-14528.0,-2112.0,8640.0
4.1025,-14528.0,-2176.0,8640.0
4.105,-14656.0,-2176.0,8576.0
4.1075,-14656.0,-2240.0,8640.0
4.11,-14656.0,-2304.0,8640.0
4.1125,-14592.0,-2304.0,8640.0
4.115,-14720.0,-2240.0,8512.0
4.1175,-14848.0,-2240.0,8448.0
4.12,-14848.0,-2240.0,8448.0
4.1225,-14848.0,-2240.0,8448.0
4.125,-14848.0,-2240.0,8448.0
4.1275,-14848.0,-2304.0,8384.0
4.13,-14848.0,-2304.0,8320.0
4.1325,-14784.0,-2240.0,8320.0
4.135,-14848.0,-2176.0,8384.0
4.1375,-14912.0,-2112.0,8384.0
4.14,-14912.0,-1984.0,8448.0
4.1425,-14848.0,-1984.0,8384.0
4.145,-14848.0,-1920.0,8320.0
4.1475,-14848.0,-1920.0,8384.0
4.15,-14784.0,-1920.0,8448.0
4.1525,-14784.0,-1920.0,8384.0
4.155,-14784.0,-1856.0,8384.0
4.1575,-14784.0,-1856.0,8448.0
4.16,-14720.0,-1984.0,8768.0
4.1625,-14656.0,-1984.0,8640.0
4.165,-14528.0,-1920.0,8512.0
4.1675,-14528.0,-1920.0,8512.0
4.17,-14528.0,-1984.0,8640.0
4.1725,-14528.0,-1984.0,8640.0
4.175,-14400.0,-1984.0,8576.0
4.1775,-14400.0,-1920.0,8512.0
4.18,-14464.0,-1984.0,8576.0
4.1825,-14464.0,-1920.0,8576.0
4.185,-14400.0,-1920.0,8512.0
4.1875,-14272.0,-1920.0,8512.0
4.19,-14272.0,-1920.0,8448.0
4.1925,-14208.0,-1920.0,8384.0
4.195,-14208.0,-1856.0,8384.0
4.1975,-14144.0,-1920.0,8448.0
4.2,-14080.0,-1856.0,8384.0
4.2025,-14016.0,-1856.0,8320.0
4.205,-14080.0,-1856.0,8256.0
4.2075,-14080.0,-1856.0,8320.0
4.21,-14016.0,-1856.0,8256.0
4.2125,-14016.0,-1856.0,8256.0
4.215,-14144.0,-1856.0,8064.0
4.2175,-14080.0,-1856.0,8064.0
4.22,-14080.0,-1856.0,8064.0
4.2225,-14080.0,-1920.0,8128.0
4.225,-14144.0,-1856.0,8192.0
4.2275,-14144.0,-1856.0,8128.0
4.23,-14208.0,-1984.0,8128.0
4.2325,-14208.0,-1920.0,8128.0
4.235,-14208.0,-1984.0,8192.0
4.2375,-14272.0,-2048.0,8128.0
4.24,-14400.0,-2176.0,8256.0
4.2425,-14336.0,-2048.0,8256.0
4.245,-14272.0,-2048.0,8128.0
4.2475,-14272.0,-2048.0,8192.0
4.25,-14272.0,-2112.0,8192.0
4.2525,-14272.0,-2048.0,8192.0
4.255,-14272.0,-2112.0,8320.0
4.2575,-14272.0,-2112.0,8448.0
4.26,-14144.0,-2112.0,8448.0
4.2625,-14080.0,-2048.0,8384.0
4.265,-14016.0,-2048.0,8448.0
4.2675,-13952.0,-2048.0,8512.0
4.27,-14016.0,-2048.0,8576.0
4.2725,-14016.0,-2112.0,8576.0
4.275,-14016.0,-1984.0,8576.0
4.2775,-13888.0,-2048.0,8576.0
4.28,-13952.0,-2112.0,8576.0
4.2825,-13888.0,-2048.0,8576.0
4.285,-13888.0,-2048.0,8512.0
4.2875,-13888.0,-2112.0,8512.0
4.29,-13824.0,-2048.0,8384.0
4.2925,-13760.0,-1984.0,8384.0
4.295,-13760.0,-1984.0,8448.0
4.2975,-13760.0,-1920.0,8448.0
4.3,-13760.0,-1920.0,8512.0
4.3025,-13760.0,-1792.0,8576.0
4.305,-13696.0,-1792.0,8640.0
4.3075,-13760.0,-1728.0,8704.0
4.31,-13760.0,-1728.0,8704.0
4.3125,-13760.0,-1600.0,8832.0
4.315,-13760.0,-1664.0,8896.0
4.3175,-13824.0,-1728.0,8896.0
4.32,-13888.0,-1728.0,9088.0
4.3225,-13952.0,-1792.0,9152.0
4.325,-13952.0,-1792.0,9216.0
4.3275,-13952.0,-1856.0,9216.0
4.33,-13952.0,-1856.0,9216.0
4.3325,-14016.0,-1920.0,9344.0
4.335,-14080.0,-1920.0,9408.0
4.3375,-14144.0,-1920.0,9472.0
4.34,-14208.0,-2048.0,9600.0
4.3425,-14208.0,-1984.0,9600.0
4.345,-14208.0,-1920.0,9472.0
4.3475,-14272.0,-1984.0,9664.0
4.35,-14272.0,-1984.0,9664.0
4.3525,-14272.0,-1984.0,9664.0
4.355,-14336.0,-1984.0,9600.0
4.3575,-14336.0,-1984.0,9600.0
4.36,-14336.0,-2048.0,9600.0
4.3625,-14336.0,-2048.0,9600.0
4.365,-14336.0,-1984.0,9664.0
4.3675,-14336.0,-1920.0,9792.0
4.37,-14336.0,-1920.0,9856.0
4.3725,-14272.0,-1920.0,9984.0
4.375,-14272.0,-1856.0,10048.0
4.3775,-14272.0,-1792.0,10176.0
4.38,-14336.0,-1792.0,10368.0
4.3825,-14272.0,-1728.0,10496.0
4.385,-14272.0,-1728.0,10560.0
4.3875,-14272.0,-1664.0,10624.0
4.39,-14144.0,-1728.0,10880.0
4.3925,-14144.0,-1728.0,10880.0
4.395,-14144.0,-1792.0,10944.0
4.3975,-14144.0,-1792.0,10944.0
4.4,-14208.0,-1920.0,10944.0
4.4025,-14208.0,-1920.0,10944.0
4.405,-14208.0,-1856.0,10816.0
4.4075,-14208.0,-1920.0,10688.0
4.41,-14208.0,-1856.0,10560.0
4.4125,-14208.0,-1856.0,10688.0
4.415,-14208.0,-1856.0,10560.0
4.4175,-14208.0,-1856.0,10560.0
4.42,-14080.0,-1856.0,10432.0
4.4225,-13952.0,-1792.0,10176.0
4.425,-13952.0,-1792.0,10112.0
4.4275,-13952.0,-1792.0,10176.0
4.43,-13952.0,-1792.0,10176.0
4.4325,-13952.0,-1856.0,10176.0
4.435,-13952.0,-1856.0,10240.0
4.4375,-13952.0,-1792.0,10304.0
4.44,-13888.0,-1792.0,10368.0
4.4425,-13952.0,-1792.0,10432.0
4.445,-13952.0,-1792.0,10432.0
4.4475,-13888.0,-1856.0,10432.0
4.45,-13888.0,-1856.0,10496.0
4.4525,-13952.0,-1856.0,10624.0
4.455,-14016.0,-1920.0,10624.0
4.4575,-14016.0,-1920.0,10624.0
4.46,-13952.0,-1984.0,10688.0
4.4625,-13952.0,-2048.0,10752.0
4.465,-13952.0,-1984.0,10880.0
4.4675,-13824.0,-1984.0,10944.0
4.47,-13824.0,-2048.0,11072.0
4.4725,-13760.0,-1984.0,11072.0
4.475,-13760.0,-1984.0,11136.0
4.4775,-13760.0,-1984.0,11200.0
4.48,-13824.0,-2112.0,11264.0
4.4825,-13760.0,-2048.0,11200.0
4.485,-13632.0,-2048.0,11136.0
4.4875,-13632.0,-2048.0,11072.0
4.49,-13696.0,-2048.0,11136.0
4.4925,-13760.0,-2112.0,11200.0
4.495,-13696.0,-2112.0,11136.0
4.4975,-13632.0,-2176.0,11200.0
4.5,-13504.0,-2112.0,11072.0
4.5025,-13568.0,-2176.0,11072.0
4.505,-13632.0,-2176.0,11200.0
4.5075,-13568.0,-2112.0,11072.0
4.51,-13568.0,-2112.0,11072.0
4.5125,-13568.0,-2048.0,11136.0
4.515,-13568.0,-1984.0,11072.0
4.5175,-13440.0,-1984.0,11072.0
4.52,-13440.0,-1920.0,11008.0
4.5225,-13440.0,-1984.0,11008.0
4.525,-13376.0,-1920.0,11008.0
4.5275,-13376.0,-1920.0,11008.0
4.53,-13376.0,-1856.0,11072.0
4.5325,-13376.0,-1920.0,11072.0
4.535,-13312.0,-1920.0,11008.0
4.5375,-13248.0,-1856.0,11072.0
4.54,-13248.0,-1792.0,11136.0
4.5425,-13248.0,-1728.0,11136.0
4.545,-13184.0,-1664.0,11200.0
4.5475,-13120.0,-1664.0,11136.0
4.55,-13056.0,-1600.0,11200.0
4.5525,-13056.0,-1600.0,11264.0
4.555,-12928.0,-1536.0,11264.0
4.5575,-12992.0,-1536.0,11328.0
4.56,-12928.0,-1536.0,11584.0
4.5625,-12864.0,-1472.0,11520.0
4.565,-12800.0,-1408.0,11456.0
4.5675,-12736.0,-1408.0,11328.0
4.57,-12736.0,-1344.0,11392.0
4.5725,-12736.0,-1472.0,11456.0
4.575,-12736.0,-1536.0,11520.0
4.5775,-12672.0,-1536.0,11392.0
4.58,-12736.0,-1664.0,11456.0
4.5825,-12736.0,-1728.0,11392.0
4.585,-12736.0,-1664.0,11392.0
4.5875,-12800.0,-1664.0,11392.0
4.59,-12800.0,-1728.0,11392.0
4.5925,-12928.0,-1792.0,11392.0
4.595,-12992.0,-1792.0,11392.0
4.5975,-12992.0,-1856.0,11520.0
4.6,-12992.0,-1856.0,11456.0
4.6025,-12992.0,-1856.0,11520.0
4.605,-12992.0,-1856.0,11456.0
4.6075,-12992.0,-1792.0,11456.0
4.61,-12992.0,-1728.0,11584.0
4.6125,-13056.0,-1664.0,11712.0
4.615,-12992.0,-1664.0,11712.0
4.6175,-12992.0,-1664.0,11776.0
4.62,-13056.0,-1664.0,11840.0
4.6225,-13056.0,-1664.0,11904.0
4.625,-12992.0,-1664.0,11904.0
4.6275,-13056.0,-1728.0,11840.0
4.63,-13056.0,-1728.0,11840.0
4.6325,-13056.0,-1856.0,11904.0
4.635,-13120.0,-1920.0,11840.0
4.6375,-13056.0,-1984.0,11840.0
4.64,-13184.0,-2048.0,11776.0
4.6425,-13184.0,-2048.0,11712.0
4.645,-13120.0,-2048.0,11584.0
4.6475,-13184.0,-2048.0,11520.0
4.65,-13184.0,-2112.0,11456.0
4.6525,-13312.0,-2240.0,11584.0
4.655,-13312.0,-2240.0,11456.0
4.6575,-13248.0,-2304.0,11328.0
4.66,-13184.0,-2304.0,11392.0
4.6625,-13312.0,-2304.0,11456.0
4.665,-13312.0,-2368.0,11392.0
4.6675,-13376.0,-2368.0,11456.0
4.67,-13312.0,-2240.0,11392.0
4.6725,-13312.0,-2304.0,11392.0
4.675,-13312.0,-2240.0,11328.0
4.6775,-13312.0,-2240.0,11392.0
4.68,-13312.0,-2240.0,11392.0
4.6825,-13248.0,-2240.0,11392.0
4.685,-13312.0,-2240.0,11456.0
4.6875,-13312.0,-2240.0,11392.0
4.69,-13312.0,-2176.0,11328.0
4.6925,-13248.0,-2176.0,11456.0
4.695,-13312.0,-2176.0,11456.0
4.6975,-13312.0,-2112.0,11520.0
4.7,-13376.0,-2112.0,11520.0
4.7025,-13376.0,-2112.0,11584.0
4.705,-13312.0,-2048.0,11648.0
4.7075,-13248.0,-1984.0,11584.0
4.71,-13184.0,-2048.0,11776.0
4.7125,-13120.0,-2048.0,11712.0
4.715,-13184.0,-2112.0,11840.0
4.7175,-13184.0,-2112.0,11840.0
4.72,-13184.0,-2176.0,11904.0
4.7225,-13056.0,-2176.0,11904.0
4.725,-12992.0,-2112.0,11776.0
4.7275,-12928.0,-2176.0,11776.0
4.73,-12992.0,-2176.0,11712.0
4.7325,-12928.0,-2176.0,11648.0
4.735,-12928.0,-2112.0,11456.0
4.7375,-12928.0,-2112.0,11264.0
4.74,-12928.0,-2112.0,11264.0
4.7425,-12992.0,-2112.0,11392.0
4.745,-12992.0,-2176.0,11200.0
4.7475,-12992.0,-2112.0,11072.0
4.75,-12992.0,-2048.0,11008.0
4.7525,-12928.0,-2112.0,11072.0
4.755,-12928.0,-2048.0,11008.0
4.7575,-12928.0,-2048.0,11008.0
4.76,-12928.0,-1984.0,10944.0
4.7625,-12928.0,-1920.0,10944.0
4.765,-12992.0,-1856.0,10944.0
4.7675,-12928.0,-1920.0,11008.0
4.77,-13056.0,-1920.0,10944.0
4.7725,-13056.0,-1856.0,11072.0
4.775,-13056.0,-1856.0,11072.0
4.7775,-13056.0,-1856.0,11136.0
4.78,-13056.0,-1792.0,11264.0
4.7825,-13120.0,-1728.0,11264.0
4.785,-13120.0,-1664.0,11328.0
4.7875,-13056.0,-1728.0,11392.0
4.79,-13056.0,-1792.0,11520.0
4.7925,-13056.0,-1728.0,11520.0
4.795,-13120.0,-1728.0,11648.0
4.7975,-13120.0,-1792.0,11648.0
4.8,-13248.0,-1920.0,11712.0
4.8025,-13184.0,-1920.0,11712.0
4.805,-13184.0,-1984.0,11648.0
4.8075,-13184.0,-1984.0,11648.0
4.81,-13312.0,-1984.0,11648.0
4.8125,-13312.0,-2112.0,11712.0
4.815,-13248.0,-2176.0,11584.0
4.8175,-13312.0,-2240.0,11520.0
4.82,-13248.0,-2176.0,11456.0
4.8225,-13312.0,-2240.0,11456.0
4.825,-13376.0,-2240.0,11520.0
4.8275,-13376.0,-2176.0,11456.0
4.83,-13376.0,-2176.0,11520.0
4.8325,-13312.0,-2176.0,11520.0
4.835,-13312.0,-2048.0,11392.0
4.8375,-13312.0,-2048.0,11520.0
4.84,-13312.0,-1984.0,11456.0
4.8425,-13248.0,-1920.0,11456.0
4.845,-13248.0,-1856.0,11584.0
4.8475,-13120.0,-1856.0,11712.0
4.85,-13184.0,-1856.0,11648.0
4.8525,-13120.0,-1792.0,11712.0
4.855,-13056.0,-1792.0,11648.0
4.8575,-13120.0,-1856.0,11648.0
4.86,-13184.0,-1856.0,11648.0
4.8625,-13120.0,-1856.0,11648.0
4.865,-13184.0,-1792.0,11584.0
4.8675,-13184.0,-1856.0,11520.0
4.87,-13120.0,-1856.0,11584.0
4.8725,-13120.0,-1856.0,11520.0
4.875,-13120.0,-1920.0,11520.0
4.8775,-13184.0,-1920.0,11520.0
4.88,-13248.0,-1920.0,11520.0
4.8825,-13184.0,-1920.0,11520.0
4.885,-13120.0,-1792.0,11392.0
4.8875,-13120.0,-1856.0,11456.0
4.89,-13184.0,-1792.0,11456.0
4.8925,-13184.0,-1856.0,11456.0
4.895,-13184.0,-1856.0,11456.0
4.8975,-13120.0,-1792.0,11456.0
4.9,-13120.0,-1792.0,11456.0
4.9025,-13120.0,-1792.0,11520.0
4.905,-13120.0,-1856.0,11712.0
4.9075,-13184.0,-1856.0,11712.0
4.91,-13184.0,-1728.0,11648.0
4.9125,-13184.0,-1856.0,11712.0
4.915,-13120.0,-1856.0,11776.0
4.9175,-13120.0,-1792.0,11776.0
4.92,-13056.0,-1792.0,11840.0
4.9225,-13120.0,-1792.0,11776.0
4.925,-13120.0,-1728.0,11776.0
4.9275,-13120.0,-1664.0,11840.0
4.93,-13120.0,-1664.0,11840.0
4.9325,-13056.0,-1664.0,11904.0
4.935,-13056.0,-1600.0,11968.0
4.9375,-13056.0,-1600.0,11968.0
4.94,-13056.0,-1536.0,12032.0
4.9425,-12992.0,-1600.0,12032.0
4.945,-12992.0,-1536.0,12032.0
4.9475,-12992.0,-1472.0,12032.0
4.95,-12992.0,-1408.0,12032.0
4.9525,-12992.0,-1408.0,12032.0
4.955,-12992.0,-1280.0,12032.0
4.9575,-12992.0,-1280.0,12096.0
4.96,-12992.0,-1280.0,12096.0
4.9625,-12992.0,-1216.0,12096.0
4.965,-12928.0,-1216.0,11968.0
4.9675,-12864.0,-1216.0,11904.0
4.97,-12928.0,-1280.0,12032.0
4.9725,-13056.0,-1344.0,12032.0
4.975,-13056.0,-1280.0,12032.0
4.9775,-12992.0,-1280.0,11904.0
4.98,-12992.0,-1280.0,11840.0
4.9825,-12992.0,-1280.0,11904.0
4.985,-13056.0,-1344.0,11904.0
4.9875,-13056.0,-1216.0,11904.0
4.99,-12992.0,-1280.0,11840.0
4.9925,-12992.0,-1216.0,11904.0
4.995,-12928.0,-1216.0,11904.0
4.9975,-12928.0,-1152.0,11904.0
5.0,-12928.0,-1216.0,11904.0
5.0025,-12928.0,-1280.0,11840.0
5.005,-12864.0,-1216.0,11904.0
5.0075,-12992.0,-1280.0,11904.0
5.01,-12928.0,-1280.0,11968.0
5.0125,-12928.0,-1216.0,11904.0
5.015,-12992.0,-1344.0,11968.0
5.0175,-13056.0,-1280.0,12032.0
5.02,-13120.0,-1344.0,12096.0
5.0225,-13120.0,-1344.0,12160.0
5.025,-13184.0,-1344.0,12224.0
5.0275,-13184.0,-1408.0,12288.0
5.03,-13248.0,-1408.0,12288.0
5.0325,-13312.0,-1408.0,12288.0
5.035,-13312.0,-1408.0,12288.0
5.0375,-13312.0,-1472.0,12288.0
5.04,-13504.0,-1408.0,12352.0
5.0425,-13504.0,-1408.0,12352.0
5.045,-13440.0,-1408.0,12288.0
5.0475,-13568.0,-1408.0,12416.0
5.05,-13632.0,-1536.0,12480.0
5.0525,-13760.0,-1536.0,12480.0
5.055,-13696.0,-1536.0,12352.0
5.0575,-13760.0,-1536.0,12224.0
5.06,-13888.0,-1600.0,12224.0
5.0625,-13952.0,-1600.0,12096.0
5.065,-14016.0,-1664.0,12160.0
5.0675,-14016.0,-1600.0,12096.0
5.07,-14080.0,-1536.0,12160.0
5.0725,-14016.0,-1472.0,12160.0
5.075,-14144.0,-1472.0,12224.0
5.0775,-14144.0,-1536.0,12224.0
5.08,-14208.0,-1600.0,12160.0
5.0825,-14208.0,-1600.0,12160.0
5.085,-14272.0,-1536.0,12160.0
5.0875,-14272.0,-1600.0,12224.0
5.09,-14272.0,-1728.0,12096.0
5.0925,-14336.0,-1728.0,12160.0
5.095,-14336.0,-1728.0,12096.0
5.0975,-14400.0,-1792.0,12096.0
5.1,-14336.0,-1792.0,12160.0
5.1025,-14336.0,-1856.0,12160.0
5.105,-14336.0,-1856.0,12160.0
5.1075,-14272.0,-1856.0,12224.0
5.11,-14336.0,-1856.0,12224.0
5.1125,-14400.0,-1920.0,12288.0
5.115,-14464.0,-1920.0,12224.0
5.1175,-14464.0,-1856.0,12160.0
5.12,-14528.0,-1920.0,12288.0
5.1225,-14464.0,-1856.0,12288.0
5.125,-14464.0,-1856.0,12224.0
5.1275,-14400.0,-1920.0,12224.0
5.13,-14400.0,-1984.0,12160.0
5.1325,-14400.0,-1984.0,12160.0
5.135,-14464.0,-1920.0,12224.0
5.1375,-14528.0,-2048.0,12416.0
5.14,-14528.0,-2048.0,12352.0
5.1425,-14592.0,-1984.0,12288.0
5.145,-14656.0,-1920.0,12224.0
5.1475,-14592.0,-1920.0,12224.0
5.15,-14656.0,-1920.0,12224.0
5.1525,-14656.0,-1856.0,12224.0
5.155,-14720.0,-1920.0,12160.0
5.1575,-14720.0,-1920.0,12160.0
5.16,-14720.0,-2048.0,12096.0
5.1625,-14720.0,-1984.0,12160.0
5.165,-14720.0,-1920.0,12096.0
5.1675,-14784.0,-1984.0,12032.0
5.17,-14784.0,-1920.0,11968.0
5.1725,-14784.0,-1920.0,11968.0
5.175,-14848.0,-1920.0,11904.0
5.1775,-14784.0,-1984.0,11840.0
5.18,-14720.0,-1984.0,11904.0
5.1825,-14720.0,-2048.0,11840.0
5.185,-14720.0,-2048.0,11840.0
5.1875,-14784.0,-2048.0,11776.0
5.19,-14784.0,-2048.0,11776.0
5.1925,-14784.0,-2048.0,11648.0
5.195,-14784.0,-1984.0,11520.0
5.1975,-14784.0,-2048.0,11584.0
5.2,-14784.0,-2112.0,11520.0
5.2025,-14720.0,-2112.0,11456.0
5.205,-14656.0,-2112.0,11328.0
5.2075,-14592.0,-1984.0,11328.0
5.21,-14592.0,-2048.0,11392.0
5.2125,-14720.0,-2112.0,11456.0
5.215,-14656.0,-2112.0,11520.0
5.2175,-14592.0,-2176.0,11520.0
5.22,-14528.0,-2112.0,11392.0
5.2225,-14592.0,-2112.0,11456.0
5.225,-14528.0,-2112.0,11456.0
5.2275,-14464.0,-2048.0,11392.0
5.23,-14464.0,-2048.0,11520.0
5.2325,-14400.0,-1984.0,11456.0
5.235,-14464.0,-2048.0,11520.0
5.2375,-14400.0,-2048.0,11456.0
5.24,-14400.0,-1984.0,11456.0
5.2425,-14400.0,-2048.0,11520.0
5.245,-14400.0,-2048.0,11456.0
5.2475,-14400.0,-2112.0,11392.0
5.25,-14400.0,-2112.0,11328.0
5.2525,-14464.0,-2048.0,11328.0
5.255,-14464.0,-2048.0,11200.0
5.2575,-14400.0,-1984.0,11072.0
5.26,-14400.0,-2048.0,11008.0
5.2625,-14400.0,-2112.0,11008.0
5.265,-14400.0,-2112.0,10944.0
5.2675,-14464.0,-2112.0,10880.0
5.27,-14464.0,-2112.0,10816.0
5.2725,-14400.0,-2112.0,10688.0
5.275,-14400.0,-2176.0,10688.0
5.2775,-14400.0,-2112.0,10688.0
5.28,-14400.0,-2240.0,10560.0
5.2825,-14336.0,-2176.0,10560.0
5.285,-14400.0,-2240.0,10432.0
5.2875,-14400.0,-2240.0,10432.0
5.29,-14464.0,-2368.0,10560.0
5.2925,-14464.0,-2368.0,10368.0
5.295,-14336.0,-2368.0,10304.0
5.2975,-14400.0,-2368.0,10304.0
5.3,-14336.0,-2240.0,10240.0
5.3025,-14272.0,-2240.0,10368.0
5.305,-14272.0,-2176.0,10432.0
5.3075,-14272.0,-2240.0,10496.0
5.31,-14144.0,-2112.0,10432.0
5.3125,-14144.0,-2112.0,10560.0
5.315,-14144.0,-2176.0,10624.0
5.3175,-14080.0,-2112.0,10688.0
5.32,-14144.0,-2112.0,10688.0
5.3225,-14144.0,-2112.0,10688.0
5.325,-14144.0,-2240.0,10560.0
5.3275,-14080.0,-2240.0,10560.0
5.33,-14080.0,-2240.0,10496.0
5.3325,-14144.0,-2176.0,10432.0
5.335,-14144.0,-2176.0,10368.0
5.3375,-14080.0,-2176.0,10368.0
5.34,-14144.0,-2176.0,10368.0
5.3425,-14080.0,-2176.0,10304.0
5.345,-14144.0,-2112.0,10304.0
5.3475,-14144.0,-2112.0,10240.0
5.35,-14080.0,-1920.0,10176.0
5.3525,-14080.0,-1856.0,10176.0
5.355,-14080.0,-1856.0,10176.0
5.3575,-14016.0,-1856.0,10240.0
5.36,-14144.0,-1792.0,10432.0
5.3625,-14080.0,-1728.0,10304.0
5.365,-13952.0,-1728.0,10304.0
5.3675,-14016.0,-1728.0,10368.0
5.37,-14080.0,-1792.0,10432.0
5.3725,-14080.0,-1792.0,10496.0
5.375,-14080.0,-1920.0,10560.0
5.3775,-14016.0,-1984.0,10496.0
5.38,-13952.0,-1920.0,10368.0
5.3825,-13952.0,-1984.0,10368.0
5.385,-14016.0,-2112.0,10368.0
5.3875,-14016.0,-2176.0,10368.0
5.39,-14016.0,-2240.0,10304.0
5.3925,-14080.0,-2240.0,10240.0
5.395,-14080.0,-2240.0,10176.0
5.3975,-14080.0,-2176.0,10112.0
5.4,-14080.0,-2176.0,10176.0
5.4025,-14080.0,-2240.0,10176.0
5.405,-14080.0,-2304.0,10240.0
5.4075,-14080.0,-2240.0,10240.0
5.41,-14016.0,-2176.0,10304.0
5.4125,-14016.0,-2176.0,10432.0
5.415,-14016.0,-2048.0,10496.0
5.4175,-14016.0,-2048.0,10560.0
5.42,-14016.0,-2176.0,10624.0
5.4225,-14016.0,-2112.0,10688.0
5.425,-14016.0,-2176.0,10688.0
5.4275,-14080.0,-2176.0,10752.0
5.43,-14080.0,-2240.0,10816.0
5.4325,-14016.0,-2304.0,10752.0
5.435,-14016.0,-2368.0,10752.0
5.4375,-14016.0,-2368.0,10688.0
5.44,-14016.0,-2432.0,10752.0
5.4425,-13952.0,-2368.0,10688.0
5.445,-13824.0,-2368.0,10560.0
5.4475,-13760.0,-2304.0,10560.0
5.45,-13760.0,-2240.0,10560.0
5.4525,-13760.0,-2368.0,10560.0
5.455,-13760.0,-2304.0,10496.0
5.4575,-13760.0,-2240.0,10368.0
5.46,-13696.0,-2304.0,10368.0
5.4625,-13696.0,-2368.0,10304.0
5.465,-13824.0,-2368.0,10304.0
5.4675,-13824.0,-2368.0,10176.0
5.47,-13824.0,-2368.0,10112.0
5.4725,-13888.0,-2432.0,10112.0
5.475,-13824.0,-2368.0,10048.0
5.4775,-13824.0,-2304.0,10048.0
5.48,-13824.0,-2304.0,9984.0
5.4825,-13760.0,-2368.0,9920.0
5.485,-13760.0,-2304.0,9792.0
5.4875,-13760.0,-2240.0,9792.0
5.49,-13760.0,-2304.0,9792.0
5.4925,-13760.0,-2304.0,9792.0
5.495,-13696.0,-2240.0,9792.0
5.4975,-13632.0,-2176.0,9728.0
5.5,-13696.0,-2112.0,9728.0
5.5025,-13632.0,-2112.0,9792.0
5.505,-13568.0,-2176.0,9856.0
5.5075,-13568.0,-2112.0,9856.0
5.51,-13504.0,-2176.0,9792.0
5.5125,-13568.0,-2048.0,9856.0
5.515,-13440.0,-2112.0,9792.0
5.5175,-13376.0,-2176.0,9728.0
5.52,-13568.0,-2304.0,9792.0
5.5225,-13632.0,-2368.0,9856.0
5.525,-13632.0,-2368.0,9600.0
5.5275,-13504.0,-2432.0,9472.0
5.53,-13440.0,-2496.0,9472.0
5.5325,-13504.0,-2496.0,9408.0
5.535,-13568.0,-2496.0,9536.0
5.5375,-13504.0,-2432.0,9408.0
5.54,-13376.0,-2432.0,9344.0
5.5425,-13312.0,-2368.0,9408.0
5.545,-13312.0,-2432.0,9408.0
5.5475,-13312.0,-2304.0,9408.0
5.55,-13312.0,-2368.0,9408.0
5.5525,-13312.0,-2368.0,9408.0
5.555,-13312.0,-2368.0,9344.0
5.5575,-13248.0,-2368.0,9216.0
5.56,-13248.0,-2368.0,9152.0
5.5625,-13248.0,-2432.0,9152.0
5.565,-13184.0,-2368.0,9088.0
5.5675,-13184.0,-2432.0,9024.0
5.57,-13248.0,-2432.0,8960.0
5.5725,-13120.0,-2496.0,8960.0
5.575,-13056.0,-2432.0,8960.0
5.5775,-13120.0,-2432.0,8896.0
5.58,-13056.0,-2432.0,8896.0
5.5825,-13056.0,-2496.0,8896.0
5.585,-12992.0,-2496.0,8832.0
5.5875,-12992.0,-2432.0,8768.0
5.59,-12992.0,-2432.0,8704.0
5.5925,-12928.0,-2496.0,8704.0
5.595,-12928.0,-2496.0,8640.0
5.5975,-12928.0,-2496.0,8704.0
5.6,-12928.0,-2624.0,8896.0
5.6025,-12928.0,-2624.0,8768.0
5.605,-12800.0,-2560.0,8768.0
5.6075,-12800.0,-2560.0,8768.0
5.61,-12864.0,-2624.0,8768.0
5.6125,-12864.0,-2688.0,8768.0
5.615,-12864.0,-2688.0,8896.0
5.6175,-12864.0,-2688.0,9024.0
5.62,-12864.0,-2688.0,8896.0
5.6225,-12864.0,-2752.0,8896.0
5.625,-12864.0,-2752.0,8896.0
5.6275,-12864.0,-2752.0,8960.0
5.63,-12928.0,-2816.0,9024.0
5.6325,-12992.0,-2752.0,9024.0
5.635,-12992.0,-2816.0,9024.0
5.6375,-13056.0,-2816.0,9088.0
5.64,-13056.0,-2880.0,9088.0
5.6425,-13056.0,-2880.0,9088.0
5.645,-13184.0,-2880.0,9024.0
5.6475,-13184.0,-2880.0,9024.0
5.65,-13184.0,-3008.0,9024.0
5.6525,-13248.0,-3008.0,8960.0
5.655,-13312.0,-3072.0,8960.0
5.6575,-13312.0,-3136.0,8896.0
5.66,-13312.0,-3072.0,8832.0
5.6625,-13312.0,-3072.0,8896.0
5.665,-13376.0,-3072.0,8896.0
5.6675,-13376.0,-3072.0,8960.0
5.67,-13376.0,-3072.0,8896.0
5.6725,-13312.0,-3200.0,8960.0
5.675,-13312.0,-3136.0,8896.0
5.6775,-13312.0,-3200.0,8960.0
5.68,-13376.0,-3200.0,9024.0
5.6825,-13376.0,-3200.0,8960.0
5.685,-13376.0,-3136.0,8704.0
5.6875,-13312.0,-3136.0,8768.0
5.69,-13376.0,-3136.0,8704.0
5.6925,-13376.0,-3008.0,8768.0
5.695,-13376.0,-3072.0,8832.0
5.6975,-13312.0,-3072.0,8832.0
5.7,-13248.0,-3008.0,8832.0
5.7025,-13248.0,-3008.0,8832.0
5.705,-13312.0,-3008.0,8896.0
5.7075,-13312.0,-3072.0,8896.0
5.71,-13312.0,-3072.0,8896.0
5.7125,-13376.0,-3072.0,8896.0
5.715,-13376.0,-3072.0,8896.0
5.7175,-13376.0,-3072.0,8832.0
5.72,-13440.0,-3136.0,8832.0
5.7225,-13440.0,-3136.0,8896.0
5.725,-13504.0,-3200.0,8896.0
5.7275,-13504.0,-3200.0,8768.0
5.73,-13504.0,-3200.0,8832.0
5.7325,-13504.0,-3136.0,8832.0
5.735,-13504.0,-3136.0,8832.0
5.7375,-13440.0,-3072.0,8832.0
5.74,-13440.0,-3008.0,8832.0
5.7425,-13376.0,-3072.0,8768.0
5.745,-13440.0,-3200.0,8704.0
5.7475,-13440.0,-3200.0,8640.0
5.75,-13440.0,-3264.0,8576.0
5.7525,-13504.0,-3328.0,8512.0
5.755,-13440.0,-3328.0,8512.0
5.7575,-13440.0,-3328.0,8512.0
5.76,-13440.0,-3392.0,8384.0
5.7625,-13440.0,-3456.0,8384.0
5.765,-13504.0,-3520.0,8448.0
5.7675,-13440.0,-3520.0,8384.0
5.77,-13312.0,-3584.0,8256.0
5.7725,-13376.0,-3584.0,8256.0
5.775,-13376.0,-3648.0,8192.0
5.7775,-13376.0,-3712.0,8320.0
5.78,-13184.0,-3584.0,8256.0
5.7825,-13056.0,-3584.0,8128.0
5.785,-13120.0,-3520.0,8064.0
5.7875,-13120.0,-3584.0,8064.0
5.79,-13120.0,-3584.0,8064.0
5.7925,-12992.0,-3584.0,8000.0
5.795,-12992.0,-3520.0,8000.0
5.7975,-12928.0,-3456.0,7936.0
5.8,-12864.0,-3456.0,7936.0
5.8025,-12800.0,-3456.0,7936.0
5.805,-12736.0,-3456.0,7936.0
5.8075,-12672.0,-3392.0,7936.0
5.81,-12672.0,-3328.0,7872.0
5.8125,-12608.0,-3328.0,7808.0
5.815,-12672.0,-3264.0,7872.0
5.8175,-12608.0,-3264.0,7872.0
5.82,-12544.0,-3200.0,7808.0
5.8225,-12544.0,-3200.0,7808.0
5.825,-12480.0,-3264.0,7744.0
5.8275,-12416.0,-3200.0,7680.0
5.83,-12480.0,-3200.0,7680.0
5.8325,-12480.0,-3136.0,7680.0
5.835,-12416.0,-3200.0,7616.0
5.8375,-12352.0,-3136.0,7616.0
5.84,-12288.0,-3200.0,7680.0
5.8425,-12288.0,-3136.0,7680.0
5.845,-12160.0,-3136.0,7488.0
5.8475,-12160.0,-3136.0,7552.0
5.85,-12224.0,-3200.0,7488.0
5.8525,-12224.0,-3200.0,7616.0
5.855,-12160.0,-3136.0,7552.0
5.8575,-12096.0,-3136.0,7360.0
5.86,-12096.0,-3136.0,7424.0
5.8625,-12096.0,-3200.0,7552.0
5.865,-12160.0,-3200.0,7488.0
5.8675,-12096.0,-3136.0,7360.0
5.87,-12096.0,-3200.0,7296.0
5.8725,-12096.0,-3200.0,7232.0
5.875,-12096.0,-3264.0,7296.0
5.8775,-12032.0,-3200.0,7296.0
5.88,-12032.0,-3136.0,7360.0
5.8825,-12032.0,-3136.0,7296.0
5.885,-12032.0,-3136.0,7360.0
5.8875,-12032.0,-3136.0,7360.0
5.89,-12032.0,-3072.0,7424.0
5.8925,-12032.0,-3072.0,7488.0
5.895,-12032.0,-3136.0,7488.0
5.8975,-12032.0,-3136.0,7488.0
5.9,-11968.0,-3008.0,7424.0
5.9025,-11968.0,-3072.0,7424.0
5.905,-11968.0,-3072.0,7360.0
5.9075,-12032.0,-3072.0,7424.0
5.91,-12032.0,-3072.0,7552.0
5.9125,-12032.0,-3072.0,7552.0
5.915,-12032.0,-3072.0,7488.0
5.9175,-11968.0,-3008.0,7488.0
5.92,-11968.0,-3072.0,7552.0
5.9225,-11840.0,-3072.0,7616.0
5.925,-11776.0,-3008.0,7488.0
5.9275,-11712.0,-3072.0,7488.0
5.93,-11712.0,-3072.0,7552.0
5.9325,-11712.0,-3072.0,7616.0
5.935,-11584.0,-3008.0,7552.0
5.9375,-11520.0,-2944.0,7424.0
5.94,-11456.0,-2944.0,7424.0
5.9425,-11456.0,-2944.0,7424.0
5.945,-11456.0,-2944.0,7424.0
5.9475,-11328.0,-2944.0,7424.0
5.95,-11264.0,-2944.0,7424.0
5.9525,-11200.0,-2944.0,7424.0
5.955,-11200.0,-2944.0,7488.0
5.9575,-11072.0,-3008.0,7488.0
5.96,-11072.0,-3008.0,7424.0
5.9625,-11072.0,-3008.0,7424.0
5.965,-11008.0,-2944.0,7360.0
5.9675,-11008.0,-2944.0,7360.0
5.97,-10880.0,-2816.0,7232.0
5.9725,-10880.0,-2880.0,7232.0
5.975,-10880.0,-2816.0,7232.0
5.9775,-10880.0,-2816.0,7232.0
5.98,-10880.0,-2816.0,7232.0
5.9825,-10752.0,-2816.0,7232.0
5.985,-10752.0,-2816.0,7168.0
5.9875,-10752.0,-2880.0,7168.0
5.99,-10688.0,-2816.0,7168.0
5.9925,-10688.0,-2752.0,7168.0
5.995,-10752.0,-2816.0,7232.0
5.9975,-10816.0,-2880.0,7232.0
6.0,-10816.0,-3008.0,7232.0
6.0025,-10880.0,-3008.0,7296.0
6.005,-11008.0,-3072.0,7424.0
6.0075,-11072.0,-3072.0,7424.0
6.01,-11136.0,-3072.0,7296.0
6.0125,-11264.0,-3136.0,7296.0
6.015,-11328.0,-3200.0,7360.0
6.0175,-11392.0,-3200.0,7424.0
6.02,-11520.0,-3136.0,7424.0
6.0225,-11392.0,-3136.0,7360.0
6.025,-11520.0,-3136.0,7360.0
6.0275,-11584.0,-3136.0,7360.0
6.03,-11648.0,-3200.0,7424.0
6.0325,-11712.0,-3072.0,7424.0
6.035,-11776.0,-3200.0,7424.0
6.0375,-11840.0,-3200.0,7488.0
6.04,-11904.0,-3200.0,7488.0
6.0425,-11968.0,-3200.0,7424.0
6.045,-12032.0,-3264.0,7424.0
6.0475,-12160.0,-3264.0,7424.0
6.05,-12224.0,-3264.0,7488.0
6.0525,-12288.0,-3264.0,7424.0
6.055,-12352.0,-3392.0,7488.0
6.0575,-12480.0,-3392.0,7552.0
6.06,-12544.0,-3328.0,7552.0
6.0625,-12608.0,-3456.0,7552.0
6.065,-12608.0,-3456.0,7616.0
6.0675,-12672.0,-3520.0,7680.0
6.07,-12800.0,-3584.0,7680.0
6.0725,-12864.0,-3584.0,7680.0
6.075,-12864.0,-3584.0,7680.0
6.0775,-12928.0,-3648.0,7680.0
6.08,-13120.0,-3712.0,7744.0
6.0825,-13184.0,-3776.0,7680.0
6.085,-13120.0,-3712.0,7552.0
6.0875,-13248.0,-3712.0,7616.0
6.09,-13376.0,-3712.0,7680.0
6.0925,-13376.0,-3712.0,7680.0
6.095,-13440.0,-3840.0,7680.0
6.0975,-13440.0,-3840.0,7808.0
6.1,-13440.0,-3840.0,7808.0
6.1025,-13504.0,-3840.0,7744.0
6.105,-13568.0,-3904.0,7808.0
6.1075,-13504.0,-3840.0,7744.0
6.11,-13568.0,-3840.0,7808.0
6.1125,-13568.0,-3840.0,7936.0
6.115,-13632.0,-3904.0,7936.0
6.1175,-13632.0,-3840.0,8000.0
6.12,-13632.0,-3840.0,8000.0
6.1225,-13632.0,-3904.0,8064.0
6.125,-13632.0,-3968.0,8064.0
6.1275,-13632.0,-3840.0,8064.0
6.13,-13568.0,-3904.0,8064.0
6.1325,-13568.0,-3904.0,8064.0
6.135,-13568.0,-3904.0,8128.0
6.1375,-13504.0,-3904.0,8192.0
6.14,-13504.0,-3904.0,8128.0
6.1425,-13504.0,-3904.0,8064.0
6.145,-13504.0,-3840.0,8064.0
6.1475,-13440.0,-3840.0,8128.0
6.15,-13376.0,-3840.0,8192.0
6.1525,-13376.0,-3776.0,8192.0
6.155,-13376.0,-3776.0,8128.0
6.1575,-13376.0,-3776.0,8128.0
6.16,-13312.0,-3840.0,8192.0
6.1625,-13312.0,-3840.0,8192.0
6.165,-13184.0,-3776.0,8192.0
6.1675,-13184.0,-3776.0,8192.0
6.17,-13312.0,-3776.0,8192.0
6.1725,-13312.0,-3840.0,8256.0
6.175,-13184.0,-3840.0,8192.0
6.1775,-13120.0,-3840.0,8192.0
6.18,-13184.0,-3840.0,8256.0
6.1825,-13184.0,-3840.0,8256.0
6.185,-13248.0,-3840.0,8384.0
6.1875,-13184.0,-3840.0,8384.0
6.19,-13120.0,-3840.0,8384.0
6.1925,-13120.0,-3840.0,8320.0
6.195,-13184.0,-3776.0,8384.0
6.1975,-13184.0,-3776.0,8448.0
6.2,-13184.0,-3776.0,8448.0
6.2025,-13120.0,-3712.0,8448.0
6.205,-13184.0,-3776.0,8448.0
6.2075,-13184.0,-3776.0,8448.0
6.21,-13248.0,-3776.0,8448.0
6.2125,-13248.0,-3776.0,8384.0
6.215,-13312.0,-3712.0,8384.0
6.2175,-13312.0,-3776.0,8320.0
6.22,-13376.0,-3776.0,8384.0
6.2225,-13376.0,-3776.0,8448.0
6.225,-13440.0,-3712.0,8448.0
6.2275,-13440.0,-3776.0,8448.0
6.23,-13568.0,-3776.0,8384.0
6.2325,-13568.0,-3904.0,8384.0
6.235,-13632.0,-3968.0,8384.0
6.2375,-13696.0,-4032.0,8384.0
6.24,-13760.0,-4032.0,8320.0
6.2425,-13888.0,-4096.0,8320.0
6.245,-13952.0,-4160.0,8384.0
6.2475,-13952.0,-4160.0,8384.0
6.25,-13952.0,-4224.0,8320.0
6.2525,-14016.0,-4160.0,8256.0
6.255,-14016.0,-4160.0,8384.0
6.2575,-14144.0,-4160.0,8384.0
6.26,-14080.0,-4160.0,8384.0
6.2625,-14080.0,-4096.0,8320.0
6.265,-14208.0,-4096.0,8384.0
6.2675,-14144.0,-4096.0,8256.0
6.27,-14144.0,-4160.0,8256.0
6.2725,-14144.0,-4160.0,8320.0
6.275,-14080.0,-4224.0,8320.0
6.2775,-14144.0,-4224.0,8384.0
6.28,-14144.0,-4096.0,8320.0
6.2825,-14144.0,-4160.0,8320.0
6.285,-14144.0,-4160.0,8384.0
6.2875,-14144.0,-4160.0,8320.0
6.29,-14144.0,-4096.0,8320.0
6.2925,-14144.0,-4096.0,8320.0
6.295,-14080.0,-4096.0,8384.0
6.2975,-14016.0,-4160.0,8320.0
6.3,-14080.0,-4096.0,8320.0
6.3025,-14016.0,-4096.0,8384.0
6.305,-14016.0,-4096.0,8384.0
6.3075,-14016.0,-4096.0,8448.0
6.31,-13952.0,-4096.0,8448.0
6.3125,-13824.0,-4096.0,8384.0
6.315,-13824.0,-4032.0,8448.0
6.3175,-13824.0,-4032.0,8448.0
6.32,-13760.0,-4096.0,8576.0
6.3225,-13696.0,-4096.0,8448.0
6.325,-13760.0,-4160.0,8448.0
6.3275,-13824.0,-4224.0,8512.0
6.33,-13760.0,-4160.0,8512.0
6.3325,-13824.0,-4160.0,8640.0
6.335,-13888.0,-4224.0,8704.0
6.3375,-13824.0,-4224.0,8640.0
6.34,-13760.0,-4224.0,8512.0
6.3425,-13760.0,-4288.0,8640.0
6.345,-13760.0,-4160.0,8640.0
6.3475,-13824.0,-4160.0,8640.0
6.35,-13824.0,-4096.0,8640.0
6.3525,-13824.0,-4160.0,8704.0
6.355,-13696.0,-4096.0,8704.0
6.3575,-13696.0,-4160.0,8640.0
6.36,-13760.0,-4160.0,8576.0
6.3625,-13760.0,-4096.0,8576.0
6.365,-13760.0,-4096.0,8576.0
6.3675,-13760.0,-4160.0,8512.0
6.37,-13760.0,-4096.0,8512.0
6.3725,-13760.0,-4096.0,8512.0
6.375,-13760.0,-4096.0,8512.0
6.3775,-13760.0,-4160.0,8512.0
6.38,-13760.0,-4160.0,8512.0
6.3825,-13760.0,-4160.0,8512.0
6.385,-13824.0,-4160.0,8576.0
6.3875,-13824.0,-4160.0,8576.0
6.39,-13824.0,-4160.0,8512.0
6.3925,-13760.0,-4224.0,8512.0
6.395,-13824.0,-4224.0,8576.0
6.3975,-13888.0,-4224.0,8448.0
6.4,-13888.0,-4160.0,8576.0
6.4025,-13952.0,-4160.0,8704.0
6.405,-13888.0,-4160.0,8576.0
6.4075,-13888.0,-4160.0,8448.0
6.41,-13952.0,-4160.0,8512.0
6.4125,-14016.0,-4160.0,8640.0
6.415,-14016.0,-4160.0,8576.0
6.4175,-13952.0,-4096.0,8512.0
6.42,-14016.0,-4096.0,8448.0
6.4225,-13888.0,-4096.0,8384.0
6.425,-13952.0,-4096.0,8448.0
6.4275,-13888.0,-4096.0,8384.0
6.43,-13888.0,-4096.0,8384.0
6.4325,-13952.0,-4096.0,8448.0
6.435,-13952.0,-4096.0,8512.0
6.4375,-13888.0,-4096.0,8448.0
6.44,-13888.0,-4032.0,8384.0
6.4425,-13824.0,-4032.0,8448.0
6.445,-13824.0,-4032.0,8384.0
6.4475,-13824.0,-4032.0,8320.0
6.45,-13824.0,-4032.0,8384.0
6.4525,-13760.0,-4032.0,8384.0
6.455,-13760.0,-4096.0,8384.0
6.4575,-13696.0,-3968.0,8384.0
6.46,-13696.0,-3968.0,8448.0
6.4625,-13696.0,-3968.0,8448.0
6.465,-13696.0,-3968.0,8448.0
6.4675,-13696.0,-4032.0,8384.0
6.47,-13632.0,-4032.0,8384.0
6.4725,-13632.0,-4032.0,8384.0
6.475,-13632.0,-4032.0,8384.0
6.4775,-13696.0,-4032.0,8320.0
6.48,-13568.0,-3968.0,8256.0
6.4825,-13568.0,-3968.0,8384.0
6.485,-13632.0,-3968.0,8448.0
6.4875,-13568.0,-3904.0,8384.0
6.49,-13504.0,-3904.0,8320.0
6.4925,-13568.0,-3904.0,8384.0
6.495,-13504.0,-3904.0,8256.0
6.4975,-13504.0,-3904.0,8256.0
6.5,-13568.0,-3968.0,8320.0
6.5025,-13632.0,-3968.0,8384.0
6.505,-13568.0,-3968.0,8320.0
6.5075,-13632.0,-3968.0,8256.0
6.51,-13632.0,-3968.0,8320.0
6.5125,-13632.0,-4032.0,8384.0
6.515,-13568.0,-4032.0,8320.0
6.5175,-13568.0,-4032.0,8320.0
6.52,-13568.0,-4032.0,8320.0
6.5225,-13568.0,-4032.0,8256.0
6.525,-13568.0,-3968.0,8256.0
6.5275,-13568.0,-3968.0,8320.0
6.53,-13568.0,-3968.0,8256.0
6.5325,-13568.0,-4032.0,8256.0
6.535,-13568.0,-4032.0,8256.0
6.5375,-13568.0,-4096.0,8256.0
6.54,-13568.0,-4032.0,8256.0
6.5425,-13568.0,-4096.0,8192.0
6.545,-13632.0,-4096.0,8192.0
6.5475,-13632.0,-4096.0,8128.0
6.55,-13568.0,-4096.0,8256.0
6.5525,-13632.0,-4096.0,8192.0
6.555,-13632.0,-4160.0,8192.0
6.5575,-13632.0,-4160.0,8192.0
6.56,-13696.0,-4224.0,8256.0
6.5625,-13696.0,-4224.0,8192.0
6.565,-13632.0,-4160.0,8192.0
6.5675,-13696.0,-4160.0,8128.0
6.57,-13696.0,-4160.0,8000.0
6.5725,-13760.0,-4224.0,8128.0
6.575,-13760.0,-4224.0,8128.0
6.5775,-13696.0,-4096.0,8000.0
6.58,-13696.0,-4160.0,8064.0
6.5825,-13760.0,-4288.0,8192.0
6.585,-13696.0,-4224.0,8128.0
6.5875,-13696.0,-4288.0,8128.0
6.59,-13696.0,-4352.0,8128.0
6.5925,-13696.0,-4352.0,8192.0
6.595,-13760.0,-4352.0,8192.0
6.5975,-13760.0,-4352.0,8192.0
6.6,-13632.0,-4352.0,8128.0
6.6025,-13696.0,-4416.0,8128.0
6.605,-13696.0,-4416.0,8064.0
6.6075,-13696.0,-4416.0,8064.0
6.61,-13696.0,-4416.0,8064.0
6.6125,-13760.0,-4352.0,8064.0
6.615,-13760.0,-4352.0,8192.0
6.6175,-13760.0,-4288.0,8128.0
6.62,-13760.0,-4288.0,8064.0
6.6225,-13824.0,-4288.0,8064.0
6.625,-13760.0,-4352.0,8064.0
6.6275,-13760.0,-4288.0,8064.0
6.63,-13760.0,-4288.0,8128.0
6.6325,-13824.0,-4224.0,8128.0
6.635,-13824.0,-4288.0,8128.0
6.6375,-13824.0,-4288.0,8064.0
6.64,-13824.0,-4288.0,8192.0
6.6425,-13824.0,-4288.0,8192.0
6.645,-13824.0,-4288.0,8320.0
6.6475,-13824.0,-4288.0,8320.0
6.65,-13824.0,-4288.0,8256.0
6.6525,-13760.0,-4224.0,8256.0
6.655,-13760.0,-4352.0,8256.0
6.6575,-13824.0,-4352.0,8384.0
6.66,-13760.0,-4352.0,8320.0
6.6625,-13632.0,-4352.0,8192.0
6.665,-13632.0,-4352.0,8256.0
6.6675,-13696.0,-4288.0,8256.0
6.67,-13632.0,-4224.0,8256.0
6.6725,-13632.0,-4288.0,8256.0
6.675,-13632.0,-4224.0,8256.0
6.6775,-13632.0,-4288.0,8320.0
6.68,-13632.0,-4288.0,8384.0
6.6825,-13632.0,-4224.0,8320.0
6.685,-13632.0,-4288.0,8384.0
6.6875,-13632.0,-4352.0,8384.0
6.69,-13568.0,-4288.0,8384.0
6.6925,-13568.0,-4288.0,8384.0
6.695,-13568.0,-4288.0,8448.0
6.6975,-13504.0,-4288.0,8448.0
6.7,-13504.0,-4352.0,8448.0
6.7025,-13568.0,-4352.0,8512.0
6.705,-13504.0,-4352.0,8384.0
6.7075,-13568.0,-4352.0,8384.0
6.71,-13568.0,-4352.0,8512.0
6.7125,-13568.0,-4416.0,8448.0
6.715,-13568.0,-4416.0,8384.0
6.7175,-13568.0,-4352.0,8384.0
6.72,-13632.0,-4416.0,8448.0
6.7225,-13632.0,-4416.0,8448.0
6.725,-13504.0,-4352.0,8448.0
6.7275,-13504.0,-4288.0,8448.0
6.73,-13568.0,-4352.0,8384.0
6.7325,-13568.0,-4352.0,8512.0
6.735,-13568.0,-4352.0,8448.0
6.7375,-13504.0,-4352.0,8448.0
6.74,-13504.0,-4352.0,8384.0
6.7425,-13568.0,-4352.0,8512.0
6.745,-13568.0,-4352.0,8576.0
6.7475,-13568.0,-4352.0,8512.0
6.75,-13568.0,-4352.0,8512.0
6.7525,-13632.0,-4352.0,8576.0
6.755,-13504.0,-4288.0,8576.0
6.7575,-13568.0,-4288.0,8640.0
6.76,-13504.0,-4288.0,8640.0
6.7625,-13504.0,-4288.0,8576.0
6.765,-13504.0,-4224.0,8640.0
6.7675,-13504.0,-4224.0,8704.0
6.77,-13504.0,-4288.0,8576.0
6.7725,-13504.0,-4288.0,8576.0
6.775,-13568.0,-4288.0,8512.0
6.7775,-13504.0,-4288.0,8512.0
6.78,-13504.0,-4288.0,8448.0
6.7825,-13568.0,-4288.0,8512.0
6.785,-13632.0,-4288.0,8384.0
6.7875,-13568.0,-4288.0,8448.0
6.79,-13568.0,-4288.0,8384.0
6.7925,-13504.0,-4352.0,8448.0
6.795,-13568.0,-4288.0,8384.0
6.7975,-13632.0,-4352.0,8384.0
6.8,-13632.0,-4352.0,8576.0
6.8025,-13632.0,-4288.0,8512.0
6.805,-13504.0,-4288.0,8384.0
6.8075,-13504.0,-4288.0,8448.0
6.81,-13504.0,-4288.0,8512.0
6.8125,-13504.0,-4224.0,8512.0
6.815,-13504.0,-4160.0,8512.0
6.8175,-13504.0,-4224.0,8448.0
6.82,-13504.0,-4224.0,8448.0
6.8225,-13568.0,-4224.0,8576.0
6.825,-13504.0,-4224.0,8448.0
6.8275,-13568.0,-4224.0,8512.0
6.83,-13568.0,-4224.0,8448.0
6.8325,-13632.0,-4224.0,8448.0
6.835,-13632.0,-4288.0,8448.0
6.8375,-13568.0,-4288.0,8384.0
6.84,-13568.0,-4288.0,8320.0
6.8425,-13568.0,-4288.0,8320.0
6.845,-13568.0,-4224.0,8320.0
6.8475,-13504.0,-4288.0,8320.0
6.85,-13440.0,-4224.0,8384.0
6.8525,-13440.0,-4160.0,8320.0
6.855,-13440.0,-4160.0,8320.0
6.8575,-13440.0,-4224.0,8320.0
6.86,-13440.0,-4224.0,8320.0
6.8625,-13440.0,-4224.0,8384.0
6.865,-13440.0,-4224.0,8320.0
6.8675,-13376.0,-4224.0,8320.0
6.87,-13376.0,-4224.0,8320.0
6.8725,-13376.0,-4224.0,8256.0
6.875,-13312.0,-4160.0,8256.0
6.8775,-13312.0,-4160.0,8320.0
6.88,-13248.0,-4160.0,8448.0
6.8825,-13248.0,-4160.0,8320.0
6.885,-13248.0,-4160.0,8384.0
6.8875,-13184.0,-4160.0,8320.0
6.89,-13120.0,-4096.0,8256.0
6.8925,-13120.0,-4032.0,8128.0
6.895,-13120.0,-4032.0,8256.0
6.8975,-13184.0,-4032.0,8320.0
6.9,-13184.0,-3968.0,8320.0
6.9025,-13184.0,-3904.0,8128.0
6.905,-13184.0,-4032.0,8128.0
6.9075,-13248.0,-3968.0,8256.0
6.91,-13184.0,-3968.0,8192.0
6.9125,-13184.0,-3968.0,8128.0
6.915,-13248.0,-4032.0,8128.0
6.9175,-13248.0,-3968.0,8256.0
6.92,-13248.0,-3968.0,8192.0
6.9225,-13376.0,-3904.0,8192.0
6.925,-13376.0,-3968.0,8256.0
6.9275,-13312.0,-3968.0,8192.0
6.93,-13312.0,-3968.0,8128.0
6.9325,-13248.0,-3968.0,8128.0
6.935,-13248.0,-4032.0,8128.0
6.9375,-13312.0,-3968.0,8064.0
6.94,-13312.0,-3968.0,8064.0
6.9425,-13312.0,-3968.0,8128.0
6.945,-13376.0,-3968.0,8128.0
6.9475,-13376.0,-3968.0,8064.0
6.95,-13376.0,-4096.0,8000.0
6.9525,-13376.0,-4096.0,8000.0
6.955,-13312.0,-4032.0,8064.0
6.9575,-13376.0,-4032.0,8064.0
6.96,-13376.0,-4032.0,8064.0
6.9625,-13376.0,-3968.0,8064.0
6.965,-13248.0,-3904.0,7936.0
6.9675,-13248.0,-3904.0,7872.0
6.97,-13184.0,-3840.0,7872.0
6.9725,-13312.0,-3840.0,7936.0
6.975,-13248.0,-3776.0,7936.0
6.9775,-13184.0,-3776.0,7872.0
6.98,-13056.0,-3712.0,7808.0
6.9825,-13120.0,-3776.0,7744.0
6.985,-13120.0,-3776.0,7744.0
6.9875,-13056.0,-3776.0,7808.0
6.99,-13120.0,-3776.0,7808.0
6.9925,-12992.0,-3712.0,7808.0
6.995,-12992.0,-3776.0,7808.0
6.9975,-12928.0,-3776.0,7744.0
7.0,-12928.0,-3712.0,7744.0
7.0025,-12864.0,-3712.0,7808.0
7.005,-12800.0,-3648.0,7808.0
7.0075,-12800.0,-3648.0,7744.0
7.01,-12736.0,-3648.0,7744.0
7.0125,-12672.0,-3648.0,7744.0
7.015,-12672.0,-3648.0,7744.0
7.0175,-12672.0,-3584.0,7680.0
7.02,-12544.0,-3584.0,7616.0
7.0225,-12544.0,-3584.0,7680.0
7.025,-12544.0,-3584.0,7680.0
7.0275,-12544.0,-3584.0,7552.0
7.03,-12544.0,-3520.0,7552.0
7.0325,-12544.0,-3584.0,7552.0
7.035,-12544.0,-3584.0,7552.0
7.0375,-12544.0,-3584.0,7552.0
7.04,-12544.0,-3584.0,7616.0
7.0425,-12544.0,-3584.0,7552.0
7.045,-12480.0,-3584.0,7488.0
7.0475,-12480.0,-3648.0,7552.0
7.05,-12544.0,-3648.0,7680.0
7.0525,-12544.0,-3648.0,7680.0
7.055,-12480.0,-3648.0,7488.0
7.0575,-12480.0,-3648.0,7424.0
7.06,-12544.0,-3648.0,7488.0
7.0625,-12544.0,-3712.0,7552.0
7.065,-12608.0,-3648.0,7424.0
7.0675,-12608.0,-3648.0,7360.0
7.07,-12608.0,-3584.0,7360.0
7.0725,-12544.0,-3584.0,7424.0
7.075,-12608.0,-3520.0,7360.0
7.0775,-12608.0,-3520.0,7360.0
7.08,-12608.0,-3648.0,7360.0
7.0825,-12608.0,-3584.0,7360.0
7.085,-12608.0,-3584.0,7296.0
7.0875,-12672.0,-3584.0,7296.0
7.09,-12672.0,-3584.0,7296.0
7.0925,-12672.0,-3520.0,7232.0
7.095,-12736.0,-3520.0,7296.0
7.0975,-12672.0,-3584.0,7296.0
7.1,-12672.0,-3584.0,7296.0
7.1025,-12736.0,-3584.0,7232.0
7.105,-12736.0,-3584.0,7232.0
7.1075,-12800.0,-3648.0,7232.0
7.11,-12864.0,-3712.0,7232.0
7.1125,-12928.0,-3648.0,7296.0
7.115,-12992.0,-3648.0,7232.0
7.1175,-13056.0,-3648.0,7232.0
7.12,-13184.0,-3776.0,7296.0
7.1225,-13184.0,-3712.0,7232.0
7.125,-13248.0,-3712.0,7232.0
7.1275,-13248.0,-3712.0,7168.0
7.13,-13248.0,-3712.0,7040.0
7.1325,-13312.0,-3648.0,6912.0
7.135,-13376.0,-3712.0,7040.0
7.1375,-13440.0,-3712.0,7168.0
7.14,-13440.0,-3712.0,7104.0
7.1425,-13440.0,-3648.0,7168.0
7.145,-13504.0,-3648.0,7168.0
7.1475,-13568.0,-3648.0,7168.0
7.15,-13632.0,-3648.0,7168.0
7.1525,-13696.0,-3648.0,7168.0
7.155,-13760.0,-3648.0,7168.0
7.1575,-13824.0,-3584.0,7168.0
7.16,-13824.0,-3584.0,7168.0
7.1625,-13888.0,-3648.0,7168.0
7.165,-13952.0,-3712.0,7104.0
7.1675,-14016.0,-3712.0,7040.0
7.17,-14080.0,-3648.0,7104.0
7.1725,-14080.0,-3584.0,7040.0
7.175,-14144.0,-3584.0,7040.0
7.1775,-14144.0,-3520.0,7104.0
7.18,-14208.0,-3520.0,7040.0
7.1825,-14144.0,-3456.0,7040.0
7.185,-14144.0,-3392.0,7104.0
7.1875,-14080.0,-3392.0,7168.0
7.19,-14016.0,-3328.0,7104.0
7.1925,-13952.0,-3328.0,7104.0
7.195,-13952.0,-3328.0,7040.0
7.1975,-13952.0,-3328.0,7104.0
7.2,-13952.0,-3328.0,7168.0
7.2025,-13888.0,-3328.0,7168.0
7.205,-13760.0,-3264.0,7104.0
7.2075,-13696.0,-3200.0,7104.0
7.21,-13696.0,-3200.0,7168.0
7.2125,-13632.0,-3136.0,7232.0
7.215,-13504.0,-3072.0,7232.0
7.2175,-13440.0,-3008.0,7296.0
7.22,-13376.0,-2880.0,7232.0
7.2225,-13248.0,-2880.0,7168.0
7.225,-13120.0,-2816.0,7104.0
7.2275,-12928.0,-2752.0,7168.0
7.23,-12864.0,-2688.0,7232.0
7.2325,-12800.0,-2560.0,7296.0
7.235,-12800.0,-2496.0,7296.0
7.2375,-12672.0,-2496.0,7296.0
7.24,-12672.0,-2496.0,7232.0
7.2425,-12608.0,-2496.0,7232.0
7.245,-12544.0,-2432.0,7168.0
7.2475,-12608.0,-2432.0,7296.0
7.25,-12608.0,-2496.0,7296.0
7.2525,-12544.0,-2496.0,7296.0
7.255,-12544.0,-2432.0,7296.0
7.2575,-12480.0,-2368.0,7296.0
7.26,-12544.0,-2304.0,7424.0
7.2625,-12544.0,-2304.0,7360.0
7.265,-12480.0,-2304.0,7360.0
7.2675,-12544.0,-2304.0,7360.0
7.27,-12544.0,-2304.0,7360.0
7.2725,-12544.0,-2304.0,7424.0
7.275,-12544.0,-2368.0,7488.0
7.2775,-12480.0,-2304.0,7424.0
7.28,-12544.0,-2304.0,7616.0
7.2825,-12480.0,-2304.0,7488.0
7.285,-12416.0,-2304.0,7488.0
7.2875,-12480.0,-2304.0,7552.0
7.29,-12416.0,-2304.0,7424.0
7.2925,-12352.0,-2240.0,7424.0
7.295,-12352.0,-2304.0,7424.0
7.2975,-12288.0,-2368.0,7552.0
7.3,-12288.0,-2432.0,7552.0
7.3025,-12288.0,-2432.0,7488.0
7.305,-12288.0,-2432.0,7488.0
7.3075,-12352.0,-2432.0,7424.0
7.31,-12288.0,-2432.0,7552.0
7.3125,-12288.0,-2432.0,7616.0
7.315,-12224.0,-2432.0,7680.0
7.3175,-12224.0,-2496.0,7744.0
7.32,-12224.0,-2560.0,7680.0
7.3225,-12224.0,-2624.0,7680.0
7.325,-12224.0,-2560.0,7680.0
7.3275,-12224.0,-2624.0,7616.0
7.33,-12288.0,-2624.0,7680.0
7.3325,-12288.0,-2688.0,7680.0
7.335,-12352.0,-2688.0,7616.0
7.3375,-12416.0,-2752.0,7552.0
7.34,-12544.0,-2752.0,7552.0
7.3425,-12608.0,-2752.0,7552.0
7.345,-12672.0,-2880.0,7552.0
7.3475,-12672.0,-2816.0,7424.0
7.35,-12736.0,-2816.0,7424.0
7.3525,-12736.0,-2816.0,7424.0
7.355,-12864.0,-2880.0,7552.0
7.3575,-12928.0,-2944.0,7552.0
7.36,-12992.0,-3008.0,7744.0
7.3625,-13056.0,-2944.0,7680.0
7.365,-13056.0,-2944.0,7680.0
7.3675,-13120.0,-2944.0,7744.0
7.37,-13184.0,-2880.0,7744.0
7.3725,-13184.0,-2880.0,7680.0
7.375,-13312.0,-2880.0,7808.0
7.3775,-13376.0,-3008.0,7872.0
7.38,-13376.0,-2944.0,7808.0
7.3825,-13376.0,-2944.0,7808.0
7.385,-13440.0,-3008.0,7744.0
7.3875,-13440.0,-3008.0,7808.0
7.39,-13504.0,-3008.0,7808.0
7.3925,-13632.0,-3008.0,7808.0
7.395,-13696.0,-3136.0,7808.0
7.3975,-13760.0,-3136.0,7808.0
7.4,-13760.0,-3200.0,7872.0
7.4025,-13824.0,-3264.0,7808.0
7.405,-13888.0,-3200.0,7744.0
7.4075,-13952.0,-3200.0,7872.0
7.41,-13952.0,-3264.0,7872.0
7.4125,-14016.0,-3200.0,7872.0
7.415,-14016.0,-3136.0,7936.0
7.4175,-14080.0,-3200.0,7872.0
7.42,-14144.0,-3136.0,7936.0
7.4225,-14208.0,-3200.0,7936.0
7.425,-14208.0,-3200.0,7936.0
7.4275,-14208.0,-3136.0,7872.0
7.43,-14208.0,-3136.0,7872.0
7.4325,-14272.0,-3200.0,8000.0
7.435,-14272.0,-3264.0,8000.0
7.4375,-14336.0,-3264.0,8000.0
7.44,-14400.0,-3392.0,8000.0
7.4425,-14336.0,-3328.0,7936.0
7.445,-14272.0,-3264.0,7936.0
7.4475,-14272.0,-3264.0,7936.0
7.45,-14336.0,-3264.0,8064.0
7.4525,-14464.0,-3328.0,8128.0
7.455,-14464.0,-3328.0,8128.0
7.4575,-14400.0,-3392.0,8064.0
7.46,-14400.0,-3328.0,8000.0
7.4625,-14464.0,-3328.0,8000.0
7.465,-14464.0,-3328.0,8064.0
7.4675,-14464.0,-3264.0,7936.0
7.47,-14528.0,-3264.0,8000.0
7.4725,-14528.0,-3328.0,8000.0
7.475,-14464.0,-3392.0,8000.0
7.4775,-14528.0,-3392.0,8000.0
7.48,-14592.0,-3328.0,8000.0
7.4825,-14592.0,-3328.0,8064.0
7.485,-14592.0,-3328.0,8128.0
7.4875,-14592.0,-3392.0,8128.0
7.49,-14592.0,-3392.0,8128.0
7.4925,-14592.0,-3456.0,8128.0
7.495,-14656.0,-3456.0,8256.0
7.4975,-14656.0,-3392.0,8320.0
7.5,-14656.0,-3456.0,8320.0
7.5025,-14592.0,-3456.0,8448.0
7.505,-14592.0,-3392.0,8384.0
7.5075,-14592.0,-3456.0,8384.0
7.51,-14592.0,-3456.0,8384.0
7.5125,-14592.0,-3520.0,8384.0
7.515,-14592.0,-3520.0,8384.0
7.5175,-14592.0,-3456.0,8384.0
7.52,-14656.0,-3456.0,8320.0
7.5225,-14592.0,-3456.0,8320.0
7.525,-14592.0,-3456.0,8320.0
7.5275,-14464.0,-3456.0,8128.0
7.53,-14528.0,-3520.0,8128.0
7.5325,-14592.0,-3648.0,8128.0
7.535,-14592.0,-3648.0,8128.0
7.5375,-14656.0,-3648.0,8128.0
7.54,-14528.0,-3584.0,8064.0
7.5425,-14592.0,-3584.0,8064.0
7.545,-14592.0,-3520.0,8128.0
7.5475,-14592.0,-3520.0,8064.0
7.55,-14592.0,-3520.0,8064.0
7.5525,-14592.0,-3520.0,8000.0
7.555,-14592.0,-3520.0,8000.0
7.5575,-14528.0,-3520.0,8064.0
7.56,-14592.0,-3520.0,8064.0
7.5625,-14528.0,-3520.0,8064.0
7.565,-14528.0,-3520.0,8000.0
7.5675,-14528.0,-3584.0,8064.0
7.57,-14464.0,-3520.0,7936.0
7.5725,-14464.0,-3456.0,8000.0
7.575,-14464.0,-3520.0,8000.0
7.5775,-14400.0,-3520.0,7936.0
7.58,-14400.0,-3456.0,8000.0
7.5825,-14400.0,-3456.0,8000.0
7.585,-14400.0,-3456.0,8000.0
7.5875,-14400.0,-3456.0,8064.0
7.59,-14400.0,-3456.0,8064.0
7.5925,-14400.0,-3392.0,8064.0
7.595,-14400.0,-3392.0,8128.0
7.5975,-14272.0,-3392.0,8128.0
7.6,-14272.0,-3392.0,8064.0
7.6025,-14272.0,-3392.0,8000.0
7.605,-14400.0,-3392.0,8064.0
7.6075,-14400.0,-3392.0,8064.0
7.61,-14272.0,-3328.0,7936.0
7.6125,-14208.0,-3328.0,8000.0
7.615,-14272.0,-3328.0,8000.0
7.6175,-14336.0,-3328.0,8000.0
7.62,-14208.0,-3328.0,8000.0
7.6225,-14208.0,-3264.0,7936.0
7.625,-14144.0,-3200.0,7936.0
7.6275,-14144.0,-3200.0,7872.0
7.63,-14080.0,-3200.0,7872.0
7.6325,-14144.0,-3200.0,7808.0
7.635,-14144.0,-3264.0,7808.0
7.6375,-14144.0,-3328.0,7808.0
7.64,-14144.0,-3328.0,7808.0
7.6425,-14144.0,-3264.0,7808.0
7.645,-14080.0,-3264.0,7744.0
7.6475,-14144.0,-3264.0,7808.0
7.65,-14080.0,-3264.0,7808.0
7.6525,-14016.0,-3264.0,7744.0
7.655,-13952.0,-3200.0,7744.0
7.6575,-13952.0,-3200.0,7808.0
7.66,-13888.0,-3136.0,7744.0
7.6625,-14016.0,-3136.0,7872.0
7.665,-13952.0,-3136.0,7872.0
7.6675,-13888.0,-3200.0,7744.0
7.67,-13888.0,-3136.0,7744.0
7.6725,-13952.0,-3136.0,7872.0
7.675,-14016.0,-3200.0,7936.0
7.6775,-13952.0,-3200.0,8000.0
7.68,-13888.0,-3264.0,7936.0
7.6825,-13952.0,-3200.0,8000.0
7.685,-13952.0,-3264.0,8192.0
7.6875,-13888.0,-3200.0,8128.0
7.69,-13888.0,-3200.0,8128.0
7.6925,-13888.0,-3200.0,8064.0
7.695,-13824.0,-3200.0,8128.0
7.6975,-13824.0,-3264.0,8192.0
7.7,-13824.0,-3328.0,8128.0
7.7025,-13760.0,-3328.0,8128.0
7.705,-13696.0,-3328.0,8064.0
7.7075,-13632.0,-3328.0,8064.0
7.71,-13632.0,-3264.0,8128.0
7.7125,-13696.0,-3264.0,8192.0
7.715,-13696.0,-3136.0,8128.0
7.7175,-13696.0,-3072.0,8128.0
7.72,-13696.0,-3072.0,8128.0
7.7225,-13696.0,-3008.0,8128.0
7.725,-13696.0,-2944.0,8192.0
7.7275,-13760.0,-2944.0,8320.0
7.73,-13760.0,-2816.0,8320.0
7.7325,-13760.0,-2880.0,8320.0
7.735,-13824.0,-2880.0,8448.0
7.7375,-13824.0,-2944.0,8576.0
7.74,-13888.0,-2944.0,8640.0
7.7425,-13952.0,-3008.0,8768.0
7.745,-14016.0,-3008.0,8832.0
7.7475,-14016.0,-3008.0,8832.0
7.75,-14144.0,-3072.0,8896.0
7.7525,-14208.0,-3072.0,9088.0
7.755,-14272.0,-3136.0,9280.0
7.7575,-14272.0,-3072.0,9280.0
7.76,-14272.0,-3136.0,9280.0
7.7625,-14400.0,-3200.0,9408.0
7.765,-14528.0,-3392.0,9664.0
7.7675,-14528.0,-3328.0,9472.0
7.77,-14592.0,-3328.0,9536.0
7.7725,-14656.0,-3328.0,9536.0
7.775,-14656.0,-3392.0,9536.0
7.7775,-14720.0,-3328.0,9536.0
7.78,-14720.0,-3392.0,9600.0
7.7825,-14720.0,-3392.0,9536.0
7.785,-14784.0,-3392.0,9536.0
7.7875,-14720.0,-3392.0,9408.0
7.79,-14720.0,-3392.0,9344.0
7.7925,-14656.0,-3456.0,9280.0
7.795,-14720.0,-3392.0,9280.0
7.7975,-14720.0,-3328.0,9216.0
7.8,-14720.0,-3328.0,9280.0
7.8025,-14720.0,-3392.0,9280.0
7.805,-14720.0,-3392.0,9280.0
7.8075,-14720.0,-3392.0,9344.0
7.81,-14656.0,-3328.0,9344.0
7.8125,-14720.0,-3392.0,9472.0
7.815,-14720.0,-3328.0,9408.0
7.8175,-14720.0,-3328.0,9408.0
7.82,-14720.0,-3328.0,9536.0
7.8225,-14784.0,-3392.0,9728.0
7.825,-14848.0,-3520.0,9856.0
7.8275,-14848.0,-3584.0,9856.0
7.83,-14848.0,-3584.0,9856.0
7.8325,-14912.0,-3584.0,9920.0
7.835,-14912.0,-3584.0,10048.0
7.8375,-14848.0,-3520.0,10112.0
7.84,-14848.0,-3456.0,10240.0
7.8425,-14848.0,-3392.0,10496.0
7.845,-14848.0,-3456.0,10496.0
7.8475,-14720.0,-3328.0,10560.0
7.85,-14592.0,-3200.0,10432.0
7.8525,-14592.0,-3200.0,10560.0
7.855,-14592.0,-3136.0,10560.0
7.8575,-14528.0,-3072.0,10496.0
7.86,-14464.0,-3072.0,10560.0
7.8625,-14400.0,-3072.0,10432.0
7.865,-14336.0,-3008.0,10304.0
7.8675,-14272.0,-2944.0,10240.0
7.87,-14272.0,-2880.0,10176.0
7.8725,-14144.0,-2880.0,10176.0
7.875,-14080.0,-2752.0,10112.0
7.8775,-14080.0,-2752.0,10176.0
7.88,-13952.0,-2752.0,10176.0
7.8825,-13888.0,-2752.0,10240.0
7.885,-13824.0,-2752.0,10176.0
7.8875,-13824.0,-2752.0,10176.0
7.89,-13760.0,-2752.0,10240.0
7.8925,-13696.0,-2752.0,10304.0
7.895,-13760.0,-2816.0,10304.0
7.8975,-13696.0,-2752.0,10368.0
7.9,-13632.0,-2752.0,10432.0
7.9025,-13632.0,-2816.0,10560.0
7.905,-13632.0,-2816.0,10496.0
7.9075,-13568.0,-2752.0,10496.0
7.91,-13504.0,-2816.0,10432.0
7.9125,-13568.0,-2816.0,10496.0
7.915,-13632.0,-2880.0,10496.0
7.9175,-13504.0,-2880.0,10496.0
7.92,-13376.0,-2880.0,10368.0
7.9225,-13376.0,-2880.0,10304.0
7.925,-13376.0,-2944.0,10304.0
7.9275,-13376.0,-2944.0,10240.0
7.93,-13376.0,-2880.0,10240.0
7.9325,-13248.0,-2816.0,10176.0
7.935,-13184.0,-2752.0,10176.0
7.9375,-13184.0,-2688.0,10176.0
7.94,-13120.0,-2688.0,10176.0
7.9425,-13056.0,-2688.0,10112.0
7.945,-12992.0,-2688.0,10176.0
7.9475,-12992.0,-2688.0,10112.0
7.95,-12928.0,-2624.0,10112.0
7.9525,-12864.0,-2560.0,10112.0
7.955,-12800.0,-2560.0,10176.0
7.9575,-12800.0,-2560.0,10112.0
7.96,-12800.0,-2560.0,10176.0
7.9625,-12736.0,-2560.0,10112.0
7.965,-12736.0,-2560.0,10112.0
7.9675,-12736.0,-2560.0,10176.0
7.97,-12736.0,-2496.0,10112.0
7.9725,-12736.0,-2496.0,10112.0
7.975,-12736.0,-2496.0,10112.0
7.9775,-12672.0,-2432.0,10240.0
7.98,-12672.0,-2432.0,10176.0
7.9825,-12608.0,-2432.0,10176.0
7.985,-12544.0,-2368.0,10112.0
7.9875,-12480.0,-2304.0,9920.0
7.99,-12480.0,-2304.0,10048.0
7.9925,-12608.0,-2496.0,10112.0
7.995,-12608.0,-2432.0,10048.0
7.9975,-12544.0,-2432.0,9984.0
8.0,-12544.0,-2368.0,9920.0
8.0025,-12544.0,-2368.0,10048.0
8.005,-12544.0,-2496.0,10112.0
8.0075,-12480.0,-2496.0,9920.0
8.01,-12480.0,-2560.0,9984.0
8.0125,-12480.0,-2496.0,9920.0
8.015,-12480.0,-2496.0,9792.0
8.0175,-12416.0,-2496.0,9728.0
8.02,-12416.0,-2432.0,9728.0
8.0225,-12416.0,-2368.0,9728.0
8.025,-12352.0,-2368.0,9792.0
8.0275,-12352.0,-2304.0,9792.0
8.03,-12288.0,-2304.0,9728.0
8.0325,-12288.0,-2240.0,9792.0
8.035,-12224.0,-2240.0,9792.0
8.0375,-12224.0,-2240.0,9856.0
8.04,-12224.0,-2304.0,9920.0
8.0425,-12288.0,-2368.0,9920.0
8.045,-12224.0,-2368.0,9984.0
8.0475,-12224.0,-2432.0,9984.0
8.05,-12224.0,-2432.0,9984.0
8.0525,-12288.0,-2368.0,10048.0
8.055,-12224.0,-2304.0,10048.0
8.0575,-12224.0,-2304.0,10048.0
8.06,-12288.0,-2304.0,10048.0
8.0625,-12288.0,-2432.0,10240.0
8.065,-12288.0,-2432.0,10176.0
8.0675,-12288.0,-2496.0,10240.0
8.07,-12224.0,-2560.0,10304.0
8.0725,-12160.0,-2560.0,10112.0
8.075,-12160.0,-2560.0,10048.0
8.0775,-12288.0,-2624.0,10112.0
8.08,-12224.0,-2688.0,10112.0
8.0825,-12224.0,-2752.0,9984.0
8.085,-12224.0,-2816.0,9856.0
8.0875,-12224.0,-2816.0,9984.0
8.09,-12224.0,-2816.0,9920.0
8.0925,-12288.0,-2880.0,9984.0
8.095,-12224.0,-2880.0,10048.0
8.0975,-12288.0,-2880.0,10048.0
8.1,-12224.0,-2880.0,10048.0
8.1025,-12160.0,-2880.0,10048.0
8.105,-12224.0,-2880.0,10048.0
8.1075,-12160.0,-2944.0,10048.0
8.11,-12160.0,-3008.0,10048.0
8.1125,-12096.0,-3072.0,10048.0
8.115,-12096.0,-3072.0,10112.0
8.1175,-11968.0,-3072.0,10112.0
8.12,-11840.0,-3136.0,10240.0
8.1225,-11840.0,-3200.0,10304.0
8.125,-11776.0,-3200.0,10368.0
8.1275,-11776.0,-3136.0,10432.0
8.13,-11648.0,-3136.0,10496.0
8.1325,-11584.0,-3136.0,10624.0
8.135,-11520.0,-3200.0,10752.0
8.1375,-11456.0,-3200.0,10880.0
8.14,-11392.0,-3136.0,10944.0
8.1425,-11200.0,-3008.0,11392.0
8.145,-11072.0,-2944.0,11456.0
8.1475,-11072.0,-2944.0,11456.0
8.15,-11136.0,-2944.0,11520.0
8.1525,-11264.0,-2944.0,11712.0
8.155,-11328.0,-2944.0,11712.0
8.1575,-11264.0,-2944.0,11648.0
8.16,-11328.0,-2944.0,11776.0
8.1625,-11392.0,-3008.0,11776.0
8.165,-11584.0,-3008.0,11776.0
8.1675,-11584.0,-3072.0,11840.0
8.17,-11712.0,-3072.0,11840.0
8.1725,-11776.0,-3072.0,11904.0
8.175,-11904.0,-3136.0,11968.0
8.1775,-11968.0,-3200.0,11904.0
8.18,-12032.0,-3264.0,11904.0
8.1825,-11968.0,-3264.0,11904.0
8.185,-12032.0,-3264.0,11840.0
8.1875,-12032.0,-3392.0,11840.0
8.19,-12160.0,-3328.0,11840.0
8.1925,-12160.0,-3264.0,11904.0
8.195,-12288.0,-3264.0,11968.0
8.1975,-12416.0,-3264.0,11968.0
8.2,-12544.0,-3328.0,12096.0
8.2025,-12736.0,-3392.0,12160.0
8.205,-12864.0,-3392.0,12352.0
8.2075,-12928.0,-3456.0,12352.0
8.21,-12992.0,-3456.0,12352.0
8.2125,-13184.0,-3520.0,12416.0
8.215,-13248.0,-3456.0,12480.0
8.2175,-13376.0,-3392.0,12416.0
8.22,-13440.0,-3328.0,12544.0
8.2225,-13632.0,-3200.0,12544.0
8.225,-13696.0,-3072.0,12416.0
8.2275,-13696.0,-3072.0,12480.0
8.23,-13888.0,-3072.0,12480.0
8.2325,-13952.0,-3008.0,12416.0
8.235,-13888.0,-3008.0,12416.0
8.2375,-14016.0,-2880.0,12224.0
8.24,-14016.0,-2944.0,12224.0
8.2425,-14080.0,-3008.0,12224.0
8.245,-14208.0,-3008.0,12096.0
8.2475,-14272.0,-2944.0,12032.0
8.25,-14336.0,-2880.0,11968.0
8.2525,-14400.0,-2816.0,11840.0
8.255,-14464.0,-2752.0,11840.0
8.2575,-14528.0,-2752.0,11776.0
8.26,-14592.0,-2688.0,11776.0
8.2625,-14720.0,-2624.0,11712.0
8.265,-14784.0,-2560.0,11776.0
8.2675,-14912.0,-2496.0,11776.0
8.27,-14976.0,-2432.0,11776.0
8.2725,-15168.0,-2432.0,11712.0
8.275,-15232.0,-2432.0,11712.0
8.2775,-15296.0,-2368.0,11712.0
8.28,-15296.0,-2304.0,11712.0
8.2825,-15360.0,-2368.0,11712.0
8.285,-15360.0,-2240.0,11712.0
8.2875,-15360.0,-2176.0,11712.0
8.29,-15360.0,-2112.0,11712.0
8.2925,-15360.0,-2048.0,11648.0
8.295,-15360.0,-1984.0,11712.0
8.2975,-15296.0,-1920.0,11712.0
8.3,-15296.0,-1856.0,11648.0
8.3025,-15296.0,-1728.0,11712.0
8.305,-15232.0,-1664.0,11648.0
8.3075,-15168.0,-1536.0,11456.0
8.31,-15232.0,-1536.0,11456.0
8.3125,-15232.0,-1536.0,11392.0
8.315,-15232.0,-1536.0,11456.0
8.3175,-15168.0,-1408.0,11328.0
8.32,-15104.0,-1344.0,11264.0
8.3225,-15040.0,-1344.0,11200.0
8.325,-14912.0,-1280.0,11072.0
8.3275,-14976.0,-1280.0,11008.0
8.33,-14848.0,-1216.0,11072.0
8.3325,-14848.0,-1152.0,11008.0
8.335,-14848.0,-1216.0,11072.0
8.3375,-14720.0,-1152.0,10944.0
8.34,-14656.0,-1216.0,11008.0
8.3425,-14592.0,-1152.0,10880.0
8.345,-14592.0,-1152.0,10880.0
8.3475,-14528.0,-1152.0,10752.0
8.35,-14464.0,-1152.0,10688.0
8.3525,-14336.0,-1216.0,10688.0
8.355,-14208.0,-1152.0,10688.0
8.3575,-14208.0,-1152.0,10688.0
8.36,-14144.0,-1152.0,10624.0
8.3625,-14080.0,-1152.0,10560.0
8.365,-14016.0,-1088.0,10496.0
8.3675,-13952.0,-1024.0,10432.0
8.37,-13888.0,-960.0,10304.0
8.3725,-13824.0,-960.0,10304.0
8.375,-13760.0,-1024.0,10304.0
8.3775,-13696.0,-960.0,10176.0
8.38,-13632.0,-960.0,10176.0
8.3825,-13568.0,-1024.0,10240.0
8.385,-13440.0,-1024.0,10176.0
8.3875,-13376.0,-1024.0,10176.0
8.39,-13312.0,-1024.0,10112.0
8.3925,-13376.0,-1024.0,10176.0
8.395,-13376.0,-1024.0,10240.0
8.3975,-13376.0,-1024.0,10304.0
8.4,-13440.0,-1088.0,10368.0
8.4025,-13440.0,-1216.0,10496.0
8.405,-13504.0,-1280.0,10560.0
8.4075,-13504.0,-1280.0,10496.0
8.41,-13504.0,-1280.0,10560.0
8.4125,-13440.0,-1280.0,10560.0
8.415,-13504.0,-1280.0,10688.0
8.4175,-13632.0,-1344.0,10816.0
8.42,-13568.0,-1408.0,10880.0
8.4225,-13568.0,-1344.0,10880.0
8.425,-13568.0,-1408.0,10944.0
8.4275,-13568.0,-1472.0,10944.0
8.43,-13568.0,-1472.0,10944.0
8.4325,-13632.0,-1536.0,10944.0
8.435,-13632.0,-1600.0,10944.0
8.4375,-13696.0,-1728.0,10944.0
8.44,-13696.0,-1792.0,10944.0
8.4425,-13696.0,-1792.0,10880.0
8.445,-13760.0,-1856.0,10880.0
8.4475,-13760.0,-1856.0,10816.0
8.45,-13824.0,-1856.0,10688.0
8.4525,-13824.0,-1920.0,10688.0
8.455,-13824.0,-1920.0,10752.0
8.4575,-13760.0,-2048.0,10880.0
8.46,-13824.0,-2112.0,10944.0
8.4625,-13888.0,-2240.0,11072.0
8.465,-13888.0,-2176.0,11072.0
8.4675,-13888.0,-2176.0,11072.0
8.47,-13952.0,-2240.0,11072.0
8.4725,-14016.0,-2304.0,11200.0
8.475,-14144.0,-2368.0,11264.0
8.4775,-14144.0,-2432.0,11264.0
8.48,-14272.0,-2432.0,11328.0
8.4825,-14336.0,-2496.0,11328.0
8.485,-14528.0,-2560.0,11392.0
8.4875,-14592.0,-2560.0,11456.0
8.49,-14720.0,-2624.0,11520.0
8.4925,-14784.0,-2624.0,11520.0
8.495,-14976.0,-2688.0,11584.0
8.4975,-15168.0,-2752.0,11648.0
8.5,-15296.0,-2816.0,11712.0
8.5025,-15424.0,-2816.0,11776.0
8.505,-15552.0,-2752.0,11840.0
8.5075,-15680.0,-2752.0,11968.0
8.51,-15680.0,-2752.0,11968.0
8.5125,-15744.0,-2688.0,12032.0
8.515,-15744.0,-2688.0,12096.0
8.5175,-15872.0,-2752.0,12096.0
8.52,-15936.0,-2752.0,12224.0
8.5225,-16000.0,-2752.0,12224.0
8.525,-16064.0,-2816.0,12224.0
8.5275,-16064.0,-2880.0,12288.0
8.53,-16128.0,-2880.0,12288.0
8.5325,-16128.0,-2880.0,12352.0
8.535,-16256.0,-2944.0,12352.0
8.5375,-16256.0,-3008.0,12416.0
8.54,-16320.0,-3008.0,12416.0
8.5425,-16320.0,-3072.0,12416.0
8.545,-16320.0,-3072.0,12544.0
8.5475,-16320.0,-3008.0,12480.0
8.55,-16320.0,-2880.0,12352.0
8.5525,-16320.0,-2880.0,12416.0
8.555,-16448.0,-2880.0,12480.0
8.5575,-16512.0,-2816.0,12544.0
8.56,-16512.0,-2752.0,12416.0
8.5625,-16384.0,-2752.0,12352.0
8.565,-16320.0,-2688.0,12352.0
8.5675,-16384.0,-2624.0,12480.0
8.57,-16192.0,-2560.0,12288.0
8.5725,-16256.0,-2496.0,12352.0
8.575,-16256.0,-2560.0,12352.0
8.5775,-16192.0,-2432.0,12416.0
8.58,-16192.0,-2432.0,12544.0
8.5825,-16128.0,-2368.0,12480.0
8.585,-16128.0,-2368.0,12544.0
8.5875,-16064.0,-2368.0,12608.0
8.59,-16000.0,-2368.0,12608.0
8.5925,-16000.0,-2304.0,12608.0
8.595,-16000.0,-2176.0,12608.0
8.5975,-15936.0,-2176.0,12608.0
8.6,-15936.0,-2176.0,12608.0
8.6025,-15872.0,-2112.0,12608.0
8.605,-15936.0,-2048.0,12544.0
8.6075,-15936.0,-1984.0,12608.0
8.61,-15872.0,-2048.0,12672.0
8.6125,-15808.0,-1984.0,12608.0
8.615,-15744.0,-1984.0,12672.0
8.6175,-15744.0,-1984.0,12672.0
8.62,-15744.0,-1920.0,12672.0
8.6225,-15744.0,-1920.0,12736.0
8.625,-15680.0,-1856.0,12672.0
8.6275,-15616.0,-1792.0,12544.0
8.63,-15552.0,-1856.0,12352.0
8.6325,-15552.0,-1856.0,12352.0
8.635,-15488.0,-1920.0,12352.0
8.6375,-15424.0,-1792.0,12224.0
8.64,-15232.0,-1728.0,12096.0
8.6425,-15232.0,-1728.0,12096.0
8.645,-15296.0,-1728.0,12224.0
8.6475,-15232.0,-1728.0,12160.0
8.65,-15232.0,-1792.0,12096.0
8.6525,-15168.0,-1792.0,12032.0
8.655,-15168.0,-1920.0,11904.0
8.6575,-15168.0,-1920.0,11968.0
8.66,-15168.0,-1984.0,11904.0
8.6625,-15040.0,-2112.0,11904.0
8.665,-15104.0,-2112.0,11904.0
8.6675,-15040.0,-2176.0,11904.0
8.67,-15040.0,-2240.0,11904.0
8.6725,-15104.0,-2304.0,11968.0
8.675,-15104.0,-2304.0,11968.0
8.6775,-15168.0,-2368.0,11904.0
8.68,-15232.0,-2304.0,11840.0
8.6825,-15296.0,-2304.0,11840.0
8.685,-15360.0,-2304.0,11712.0
8.6875,-15296.0,-2240.0,11712.0
8.69,-15232.0,-2176.0,11776.0
8.6925,-15232.0,-2112.0,11712.0
8.695,-15168.0,-2112.0,11776.0
8.6975,-15168.0,-2048.0,11776.0
8.7,-15104.0,-1984.0,11712.0
8.7025,-14976.0,-2048.0,11648.0
8.705,-14912.0,-1984.0,11648.0
8.7075,-14912.0,-2048.0,11648.0
8.71,-14848.0,-2048.0,11648.0
8.7125,-14848.0,-2048.0,11520.0
8.715,-14848.0,-2048.0,11392.0
8.7175,-14848.0,-2176.0,11520.0
8.72,-14848.0,-2176.0,11584.0
8.7225,-14784.0,-2176.0,11264.0
8.725,-14656.0,-2112.0,11264.0
8.7275,-14720.0,-2176.0,11200.0
8.73,-14592.0,-2112.0,11072.0
8.7325,-14528.0,-2112.0,11008.0
8.735,-14592.0,-2048.0,11008.0
8.7375,-14528.0,-1984.0,11008.0
8.74,-14464.0,-1984.0,10944.0
8.7425,-14400.0,-1984.0,10944.0
8.745,-14336.0,-1984.0,10944.0
8.7475,-14400.0,-1920.0,10944.0
8.75,-14336.0,-1920.0,10880.0
8.7525,-14272.0,-1856.0,10816.0
8.755,-14208.0,-1792.0,10816.0
8.7575,-14144.0,-1792.0,10752.0
8.76,-14144.0,-1920.0,10752.0
8.7625,-14144.0,-1920.0,10688.0
8.765,-14144.0,-1920.0,10624.0
8.7675,-14080.0,-1984.0,10560.0
8.77,-14080.0,-2048.0,10560.0
8.7725,-14080.0,-2112.0,10560.0
8.775,-13952.0,-2112.0,10432.0
8.7775,-13888.0,-2112.0,10304.0
8.78,-13824.0,-2112.0,10240.0
8.7825,-13696.0,-2048.0,10176.0
8.785,-13632.0,-2048.0,10240.0
8.7875,-13632.0,-2048.0,10304.0
8.79,-13504.0,-1920.0,10176.0
8.7925,-13440.0,-1920.0,10048.0
8.795,-13504.0,-1856.0,9984.0
8.7975,-13440.0,-1856.0,10112.0
8.8,-13440.0,-1856.0,10176.0
8.8025,-13312.0,-1792.0,10048.0
8.805,-13312.0,-1792.0,9920.0
8.8075,-13312.0,-1792.0,9984.0
8.81,-13312.0,-1792.0,10048.0
8.8125,-13312.0,-1792.0,10048.0
8.815,-13312.0,-1792.0,10048.0
8.8175,-13312.0,-1792.0,10112.0
8.82,-13312.0,-1792.0,10112.0
8.8225,-13312.0,-1856.0,10176.0
8.825,-13376.0,-1856.0,10176.0
8.8275,-13376.0,-1856.0,10240.0
8.83,-13376.0,-1920.0,10176.0
8.8325,-13440.0,-1984.0,10176.0
8.835,-13504.0,-1984.0,10240.0
8.8375,-13504.0,-1984.0,10240.0
8.84,-13568.0,-1920.0,10240.0
8.8425,-13440.0,-1920.0,10304.0
8.845,-13504.0,-1984.0,10240.0
8.8475,-13568.0,-1984.0,10240.0
8.85,-13568.0,-1920.0,10240.0
8.8525,-13568.0,-1792.0,10176.0
8.855,-13568.0,-1856.0,10176.0
8.8575,-13568.0,-1920.0,10176.0
8.86,-13632.0,-1984.0,10112.0
8.8625,-13760.0,-2112.0,10048.0
8.865,-13696.0,-2112.0,9920.0
8.8675,-13568.0,-2176.0,9856.0
8.87,-13632.0,-2240.0,9728.0
8.8725,-13632.0,-2304.0,9792.0
8.875,-13632.0,-2304.0,9920.0
8.8775,-13632.0,-2368.0,9920.0
8.88,-13632.0,-2368.0,9856.0
8.8825,-13632.0,-2368.0,9792.0
8.885,-13632.0,-2432.0,9920.0
8.8875,-13760.0,-2560.0,9984.0
8.89,-13888.0,-2560.0,9984.0
8.8925,-13888.0,-2624.0,9984.0
8.895,-13952.0,-2624.0,9984.0
8.8975,-13952.0,-2560.0,9984.0
8.9,-13888.0,-2624.0,10048.0
8.9025,-13888.0,-2624.0,10048.0
8.905,-13952.0,-2688.0,10112.0
8.9075,-14016.0,-2688.0,10048.0
8.91,-14016.0,-2752.0,9984.0
8.9125,-14080.0,-2752.0,10048.0
8.915,-14080.0,-2752.0,9984.0
8.9175,-14080.0,-2752.0,9984.0
8.92,-14080.0,-2688.0,9920.0
8.9225,-14144.0,-2752.0,9920.0
8.925,-14144.0,-2752.0,9920.0
8.9275,-14144.0,-2752.0,9856.0
8.93,-14144.0,-2624.0,9856.0
8.9325,-14080.0,-2688.0,9856.0
8.935,-14080.0,-2624.0,9792.0
8.9375,-14144.0,-2688.0,9792.0
8.94,-14144.0,-2688.0,9792.0
8.9425,-14208.0,-2752.0,9920.0
8.945,-14144.0,-2752.0,9856.0
8.9475,-14208.0,-2752.0,9920.0
8.95,-14144.0,-2816.0,9920.0
8.9525,-14016.0,-2816.0,9792.0
8.955,-14080.0,-2816.0,9792.0
8.9575,-14144.0,-2880.0,9792.0
8.96,-14144.0,-2816.0,9984.0
8.9625,-14144.0,-2816.0,9984.0
8.965,-14080.0,-2816.0,9856.0
8.9675,-14144.0,-2816.0,10048.0
8.97,-14144.0,-2880.0,9984.0
8.9725,-14208.0,-2944.0,10048.0
8.975,-14272.0,-3008.0,9984.0
8.9775,-14336.0,-3072.0,9920.0
8.98,-14336.0,-3008.0,9920.0
8.9825,-14336.0,-3008.0,9920.0
8.985,-14400.0,-3008.0,9856.0
8.9875,-14400.0,-2944.0,9792.0
8.99,-14400.0,-2944.0,9792.0
8.9925,-14336.0,-2880.0,9792.0
8.995,-14336.0,-2880.0,9728.0
8.9975,-14336.0,-2944.0,9664.0
9.0,-14272.0,-2944.0,9600.0
9.0025,-14272.0,-2816.0,9536.0
9.005,-14336.0,-2752.0,9472.0
9.0075,-14208.0,-2624.0,9536.0
9.01,-14144.0,-2688.0,9536.0
9.0125,-14144.0,-2688.0,9536.0
9.015,-14144.0,-2752.0,9536.0
9.0175,-14080.0,-2688.0,9536.0
9.02,-14080.0,-2688.0,9536.0
9.0225,-14080.0,-2752.0,9472.0
9.025,-14144.0,-2752.0,9536.0
9.0275,-14144.0,-2816.0,9600.0
9.03,-14080.0,-2880.0,9664.0
9.0325,-14016.0,-2816.0,9472.0
9.035,-14016.0,-2816.0,9472.0
9.0375,-13952.0,-2816.0,9536.0
9.04,-13952.0,-2880.0,9664.0
9.0425,-13888.0,-2816.0,9536.0
9.045,-13888.0,-2816.0,9344.0
9.0475,-13824.0,-2816.0,9280.0
9.05,-13888.0,-2816.0,9280.0
9.0525,-13824.0,-2816.0,9216.0
9.055,-13760.0,-2752.0,9152.0
9.0575,-13760.0,-2752.0,9216.0
9.06,-13696.0,-2752.0,9216.0
9.0625,-13760.0,-2752.0,9216.0
9.065,-13696.0,-2752.0,9216.0
9.0675,-13632.0,-2688.0,9216.0
9.07,-13632.0,-2688.0,9152.0
9.0725,-13568.0,-2816.0,9088.0
9.075,-13568.0,-2752.0,9088.0
9.0775,-13504.0,-2752.0,9024.0
9.08,-13440.0,-2688.0,9024.0
9.0825,-13440.0,-2752.0,9024.0
9.085,-13440.0,-2752.0,9088.0
9.0875,-13504.0,-2880.0,9024.0
9.09,-13504.0,-2880.0,9024.0
9.0925,-13568.0,-2944.0,8960.0
9.095,-13504.0,-2944.0,8896.0
9.0975,-13440.0,-2880.0,8896.0
9.1,-13440.0,-2944.0,8832.0
9.1025,-13440.0,-3008.0,8960.0
9.105,-13376.0,-2944.0,8960.0
9.1075,-13312.0,-2944.0,8832.0
9.11,-13312.0,-2880.0,8768.0
9.1125,-13376.0,-2944.0,8704.0
9.115,-13312.0,-3008.0,8768.0
9.1175,-13376.0,-2944.0,8768.0
9.12,-13312.0,-2944.0,8768.0
9.1225,-13184.0,-2816.0,8704.0
9.125,-13056.0,-2752.0,8512.0
9.1275,-13056.0,-2816.0,8704.0
9.13,-13056.0,-2880.0,8640.0
9.1325,-12992.0,-2880.0,8640.0
9.135,-13056.0,-2816.0,8640.0
9.1375,-12992.0,-2816.0,8576.0
9.14,-12992.0,-2944.0,8576.0
9.1425,-12992.0,-2880.0,8704.0
9.145,-12992.0,-2880.0,8640.0
9.1475,-12992.0,-2816.0,8576.0
9.15,-12928.0,-2816.0,8512.0
9.1525,-12928.0,-2880.0,8576.0
9.155,-12992.0,-2816.0,8576.0
9.1575,-12928.0,-2816.0,8576.0
9.16,-12928.0,-2816.0,8576.0
9.1625,-12928.0,-2816.0,8576.0
9.165,-12928.0,-2752.0,8512.0
9.1675,-12992.0,-2752.0,8512.0
9.17,-12992.0,-2688.0,8512.0
9.1725,-12928.0,-2688.0,8512.0
9.175,-12928.0,-2688.0,8512.0
9.1775,-12864.0,-2688.0,8448.0
9.18,-12864.0,-2624.0,8448.0
9.1825,-12928.0,-2560.0,8512.0
9.185,-12864.0,-2624.0,8448.0
9.1875,-12800.0,-2624.0,8384.0
9.19,-12736.0,-2560.0,8384.0
9.1925,-12736.0,-2496.0,8192.0
9.195,-12736.0,-2496.0,8192.0
9.1975,-12736.0,-2496.0,8256.0
9.2,-12672.0,-2496.0,8128.0
9.2025,-12672.0,-2496.0,8256.0
9.205,-12544.0,-2560.0,8000.0
9.2075,-12544.0,-2560.0,7936.0
9.21,-12608.0,-2688.0,7936.0
9.2125,-12608.0,-2624.0,7936.0
9.215,-12544.0,-2624.0,8000.0
9.2175,-12608.0,-2688.0,7936.0
9.22,-12544.0,-2688.0,7936.0
9.2225,-12608.0,-2624.0,7808.0
9.225,-12544.0,-2624.0,7808.0
9.2275,-12544.0,-2624.0,7744.0
9.23,-12608.0,-2624.0,7808.0
9.2325,-12608.0,-2624.0,7680.0
9.235,-12544.0,-2688.0,7680.0
9.2375,-12480.0,-2688.0,7680.0
9.24,-12480.0,-2624.0,7616.0
9.2425,-12416.0,-2624.0,7552.0
9.245,-12416.0,-2624.0,7424.0
9.2475,-12416.0,-2560.0,7424.0
9.25,-12416.0,-2624.0,7424.0
9.2525,-12352.0,-2624.0,7360.0
9.255,-12352.0,-2560.0,7360.0
9.2575,-12224.0,-2496.0,7296.0
9.26,-12224.0,-2560.0,7232.0
9.2625,-12160.0,-2432.0,7104.0
9.265,-12096.0,-2432.0,7168.0
9.2675,-12160.0,-2496.0,7296.0
9.27,-12096.0,-2432.0,7360.0
9.2725,-12096.0,-2368.0,7360.0
9.275,-12032.0,-2304.0,7168.0
9.2775,-12032.0,-2240.0,7168.0
9.28,-12160.0,-2304.0,7296.0
9.2825,-12224.0,-2240.0,7424.0
9.285,-12160.0,-2304.0,7424.0
9.2875,-12096.0,-2304.0,7296.0
9.29,-12224.0,-2368.0,7424.0
9.2925,-12224.0,-2368.0,7360.0
9.295,-12224.0,-2368.0,7360.0
9.2975,-12224.0,-2368.0,7360.0
9.3,-12224.0,-2432.0,7296.0
9.3025,-12288.0,-2368.0,7296.0
9.305,-12352.0,-2368.0,7232.0
9.3075,-12352.0,-2368.0,7232.0
9.31,-12416.0,-2432.0,7168.0
9.3125,-12416.0,-2432.0,7104.0
9.315,-12480.0,-2432.0,7040.0
9.3175,-12480.0,-2496.0,6976.0
9.32,-12480.0,-2432.0,7040.0
9.3225,-12480.0,-2432.0,6976.0
9.325,-12544.0,-2496.0,6912.0
9.3275,-12480.0,-2496.0,6976.0
9.33,-12544.0,-2496.0,6976.0
9.3325,-12544.0,-2560.0,6912.0
9.335,-12608.0,-2496.0,6848.0
9.3375,-12544.0,-2560.0,6848.0
9.34,-12608.0,-2624.0,6848.0
9.3425,-12672.0,-2752.0,6848.0
9.345,-12672.0,-2752.0,6848.0
9.3475,-12672.0,-2816.0,6784.0
9.35,-12608.0,-2816.0,6720.0
9.3525,-12672.0,-2816.0,6912.0
9.355,-12608.0,-2816.0,6912.0
9.3575,-12608.0,-2752.0,6912.0
9.36,-12608.0,-2752.0,7040.0
9.3625,-12672.0,-2752.0,7040.0
9.365,-12672.0,-2752.0,7168.0
9.3675,-12544.0,-2752.0,7232.0
9.37,-12608.0,-2752.0,7360.0
9.3725,-12608.0,-2752.0,7296.0
9.375,-12608.0,-2752.0,7232.0
9.3775,-12544.0,-2752.0,7232.0
9.38,-12544.0,-2816.0,7168.0
9.3825,-12608.0,-2816.0,7104.0
9.385,-12608.0,-2752.0,7104.0
9.3875,-12544.0,-2880.0,7040.0
9.39,-12544.0,-2880.0,6976.0
9.3925,-12544.0,-2880.0,6912.0
9.395,-12544.0,-2816.0,6976.0
9.3975,-12544.0,-2816.0,6848.0
9.4,-12544.0,-2816.0,6784.0
9.4025,-12544.0,-2816.0,6784.0
9.405,-12544.0,-2816.0,6784.0
9.4075,-12544.0,-2816.0,6720.0
9.41,-12544.0,-2752.0,6720.0
9.4125,-12544.0,-2688.0,6656.0
9.415,-12544.0,-2688.0,6592.0
9.4175,-12672.0,-2688.0,6592.0
9.42,-12672.0,-2688.0,6656.0
9.4225,-12736.0,-2752.0,6848.0
9.425,-12800.0,-2752.0,6848.0
9.4275,-12800.0,-2816.0,6848.0
9.43,-12864.0,-2752.0,6784.0
9.4325,-12800.0,-2816.0,6784.0
9.435,-12864.0,-2816.0,6720.0
9.4375,-12864.0,-2944.0,6784.0
9.44,-12928.0,-2880.0,6912.0
9.4425,-12928.0,-2944.0,6784.0
9.445,-12928.0,-3008.0,6784.0
9.4475,-12928.0,-2880.0,6784.0
9.45,-12928.0,-2880.0,6848.0
9.4525,-12992.0,-2880.0,6976.0
9.455,-13056.0,-2944.0,7040.0
9.4575,-13056.0,-3008.0,7104.0
9.46,-13056.0,-2944.0,7104.0
9.4625,-13056.0,-3008.0,7104.0
9.465,-13056.0,-3008.0,7104.0
9.4675,-13056.0,-3008.0,7104.0
9.47,-13056.0,-3072.0,7040.0
9.4725,-13056.0,-3072.0,7104.0
9.475,-12992.0,-3072.0,6976.0
9.4775,-12992.0,-3136.0,6976.0
9.48,-12992.0,-3200.0,6912.0
9.4825,-12928.0,-3200.0,6912.0
9.485,-12928.0,-3200.0,6848.0
9.4875,-12864.0,-3136.0,6848.0
9.49,-12928.0,-3136.0,6720.0
9.4925,-12864.0,-3136.0,6720.0
9.495,-12928.0,-3136.0,6720.0
9.4975,-12992.0,-3136.0,6784.0
9.5,-12992.0,-3200.0,6720.0
9.5025,-13120.0,-3200.0,6848.0
9.505,-13120.0,-3136.0,6784.0
9.5075,-13056.0,-3136.0,6720.0
9.51,-13056.0,-3200.0,6592.0
9.5125,-13120.0,-3200.0,6720.0
9.515,-13120.0,-3136.0,6784.0
9.5175,-13248.0,-3264.0,6976.0
9.52,-13248.0,-3136.0,6976.0
9.5225,-13184.0,-3136.0,6976.0
9.525,-13248.0,-3136.0,7040.0
9.5275,-13312.0,-3136.0,7040.0
9.53,-13312.0,-3136.0,7040.0
9.5325,-13312.0,-3072.0,7040.0
9.535,-13376.0,-3072.0,7104.0
9.5375,-13312.0,-3136.0,7104.0
9.54,-13376.0,-3136.0,7104.0
9.5425,-13376.0,-3072.0,7168.0
9.545,-13312.0,-3008.0,7168.0
9.5475,-13312.0,-3008.0,7232.0
9.55,-13376.0,-3072.0,7168.0
9.5525,-13376.0,-3136.0,7104.0
9.555,-13376.0,-3136.0,7168.0
9.5575,-13440.0,-3136.0,7104.0
9.56,-13440.0,-3008.0,7104.0
9.5625,-13376.0,-3072.0,7104.0
9.565,-13440.0,-3072.0,7104.0
9.5675,-13376.0,-3072.0,7104.0
9.57,-13376.0,-3072.0,7104.0
9.5725,-13376.0,-3072.0,7104.0
9.575,-13312.0,-3072.0,7104.0
9.5775,-13312.0,-3136.0,7168.0
9.58,-13312.0,-3136.0,7232.0
9.5825,-13440.0,-3264.0,7360.0
9.585,-13376.0,-3264.0,7360.0
9.5875,-13376.0,-3200.0,7296.0
9.59,-13312.0,-3200.0,7232.0
9.5925,-13376.0,-3328.0,7296.0
9.595,-13376.0,-3328.0,7232.0
9.5975,-13440.0,-3264.0,7232.0
9.6,-13376.0,-3264.0,7232.0
9.6025,-13504.0,-3328.0,7360.0
9.605,-13440.0,-3264.0,7424.0
9.6075,-13440.0,-3200.0,7360.0
9.61,-13440.0,-3136.0,7424.0
9.6125,-13376.0,-3136.0,7424.0
9.615,-13312.0,-3136.0,7424.0
9.6175,-13376.0,-3200.0,7424.0
9.62,-13440.0,-3200.0,7424.0
9.6225,-13376.0,-3200.0,7488.0
9.625,-13440.0,-3328.0,7552.0
9.6275,-13440.0,-3328.0,7552.0
9.63,-13504.0,-3392.0,7552.0
9.6325,-13504.0,-3392.0,7616.0
9.635,-13504.0,-3392.0,7616.0
9.6375,-13504.0,-3520.0,7616.0
9.64,-13504.0,-3520.0,7616.0
9.6425,-13504.0,-3520.0,7616.0
9.645,-13568.0,-3584.0,7616.0
9.6475,-13504.0,-3520.0,7552.0
9.65,-13568.0,-3584.0,7488.0
9.6525,-13568.0,-3584.0,7488.0
9.655,-13504.0,-3648.0,7424.0
9.6575,-13568.0,-3648.0,7424.0
9.66,-13568.0,-3648.0,7424.0
9.6625,-13568.0,-3648.0,7552.0
9.665,-13568.0,-3648.0,7616.0
9.6675,-13504.0,-3712.0,7552.0
9.67,-13376.0,-3648.0,7488.0
9.6725,-13440.0,-3776.0,7552.0
9.675,-13440.0,-3712.0,7744.0
9.6775,-13504.0,-3712.0,7808.0
9.68,-13440.0,-3712.0,7744.0
9.6825,-13440.0,-3712.0,7744.0
9.685,-13504.0,-3776.0,7808.0
9.6875,-13568.0,-3712.0,7872.0
9.69,-13568.0,-3776.0,7872.0
9.6925,-13568.0,-3840.0,7872.0
9.695,-13632.0,-3776.0,7872.0
9.6975,-13632.0,-3904.0,7936.0
9.7,-13632.0,-3904.0,7936.0
9.7025,-13696.0,-3904.0,7936.0
9.705,-13760.0,-3968.0,7936.0
9.7075,-13760.0,-3968.0,7936.0
9.71,-13760.0,-4032.0,8000.0
9.7125,-13760.0,-4032.0,8000.0
9.715,-13824.0,-4032.0,8000.0
9.7175,-13888.0,-4032.0,8000.0
9.72,-13888.0,-4032.0,8064.0
9.7225,-13888.0,-4032.0,8128.0
9.725,-13888.0,-3968.0,8192.0
9.7275,-13888.0,-4032.0,8128.0
9.73,-13888.0,-4032.0,8192.0
9.7325,-13888.0,-4032.0,8192.0
9.735,-13888.0,-4032.0,8256.0
9.7375,-13824.0,-4032.0,8320.0
9.74,-13824.0,-4032.0,8320.0
9.7425,-13696.0,-4032.0,8384.0
9.745,-13696.0,-4032.0,8512.0
9.7475,-13760.0,-4096.0,8640.0
9.75,-13824.0,-4160.0,8704.0
9.7525,-13760.0,-4096.0,8768.0
9.755,-13696.0,-4032.0,8704.0
9.7575,-13568.0,-4032.0,8704.0
9.76,-13568.0,-4032.0,8576.0
9.7625,-13568.0,-4032.0,8576.0
9.765,-13568.0,-3968.0,8768.0
9.7675,-13568.0,-3968.0,8768.0
9.77,-13568.0,-3968.0,8832.0
9.7725,-13568.0,-3968.0,8704.0
9.775,-13568.0,-3968.0,8768.0
9.7775,-13568.0,-3968.0,8832.0
9.78,-13568.0,-3968.0,8896.0
9.7825,-13504.0,-3968.0,8832.0
9.785,-13440.0,-4032.0,8896.0
9.7875,-13504.0,-4032.0,8832.0
9.79,-13568.0,-4032.0,8896.0
9.7925,-13504.0,-4096.0,8896.0
9.795,-13440.0,-4032.0,8832.0
9.7975,-13504.0,-4032.0,8832.0
9.8,-13440.0,-4096.0,8832.0
9.8025,-13376.0,-4032.0,8768.0
9.805,-13376.0,-4032.0,8832.0
9.8075,-13376.0,-4032.0,8832.0
9.81,-13376.0,-4032.0,8704.0
9.8125,-13312.0,-4096.0,8704.0
9.815,-13376.0,-4032.0,8704.0
9.8175,-13376.0,-4032.0,8704.0
9.82,-13440.0,-4096.0,8768.0
9.8225,-13376.0,-4096.0,8704.0
9.825,-13440.0,-4160.0,8832.0
9.8275,-13376.0,-4160.0,8768.0
9.83,-13312.0,-4096.0,8704.0
9.8325,-13376.0,-4032.0,8704.0
9.835,-13376.0,-4096.0,8768.0
9.8375,-13440.0,-4096.0,8640.0
9.84,-13440.0,-4096.0,8640.0
9.8425,-13504.0,-4160.0,8640.0
9.845,-13504.0,-4160.0,8704.0
9.8475,-13440.0,-4160.0,8640.0
9.85,-13440.0,-4224.0,8512.0
