time_stamp,acc_x,acc_y,acc_z
0.0,-15040.0,-3392.0,6336.0
0.0025,-14976.0,-3328.0,6272.0
0.005,-15040.0,-3392.0,6272.0
0.0075,-15040.0,-3392.0,6272.0
0.01,-15040.0,-3456.0,6272.0
0.0125,-14976.0,-3456.0,6272.0
0.015,-14976.0,-3392.0,6272.0
0.0175,-14912.0,-3392.0,6208.0
0.02,-14912.0,-3328.0,6272.0
0.0225,-14976.0,-3328.0,6336.0
0.025,-14848.0,-3392.0,6272.0
0.0275,-14912.0,-3392.0,6336.0
0.03,-14912.0,-3328.0,6272.0
0.0325,-14976.0,-3392.0,6144.0
0.035,-14912.0,-3328.0,6144.0
0.0375,-14912.0,-3264.0,6208.0
0.04,-14912.0,-3328.0,6144.0
0.0425,-14848.0,-3328.0,6144.0
0.045,-14848.0,-3328.0,6144.0
0.0475,-14912.0,-3328.0,6208.0
0.05,-14912.0,-3264.0,6208.0
0.0525,-14912.0,-3264.0,6208.0
0.055,-14848.0,-3328.0,6208.0
0.0575,-14912.0,-3328.0,6208.0
0.06,-14912.0,-3328.0,6144.0
0.0625,-14848.0,-3392.0,6208.0
0.065,-14848.0,-3328.0,6208.0
0.0675,-14976.0,-3328.0,6208.0
0.07,-14912.0,-3264.0,6208.0
0.0725,-14848.0,-3264.0,6208.0
0.075,-14912.0,-3392.0,6208.0
0.0775,-14976.0,-3392.0,6208.0
0.08,-14976.0,-3392.0,6336.0
0.0825,-14976.0,-3392.0,6272.0
0.085,-14976.0,-3456.0,6208.0
0.0875,-15040.0,-3456.0,6144.0
0.09,-15104.0,-3456.0,6208.0
0.0925,-15040.0,-3520.0,6144.0
0.095,-15104.0,-3584.0,6272.0
0.0975,-15232.0,-3584.0,6336.0
0.1,-15168.0,-3584.0,6336.0
0.1025,-15104.0,-3520.0,6336.0
0.105,-15104.0,-3520.0,6272.0
0.1075,-15104.0,-3520.0,6336.0
0.11,-15104.0,-3520.0,6272.0
0.1125,-15040.0,-3456.0,6272.0
0.115,-15104.0,-3456.0,6272.0
0.1175,-15104.0,-3456.0,6336.0
0.12,-15040.0,-3520.0,6336.0
0.1225,-14976.0,-3520.0,6400.0
0.125,-14976.0,-3520.0,6400.0
0.1275,-14976.0,-3520.0,6336.0
0.13,-14912.0,-3456.0,6336.0
0.1325,-14912.0,-3392.0,6400.0
0.135,-14976.0,-3392.0,6336.0
0.1375,-14912.0,-3392.0,6336.0
0.14,-14912.0,-3520.0,6400.0
0.1425,-14848.0,-3392.0,6400.0
0.145,-14848.0,-3392.0,6464.0
0.1475,-14848.0,-3392.0,6464.0
0.15,-14912.0,-3392.0,6464.0
0.1525,-14848.0,-3392.0,6464.0
0.155,-14848.0,-3392.0,6464.0
0.1575,-14848.0,-3328.0,6464.0
0.16,-14912.0,-3264.0,6464.0
0.1625,-14848.0,-3200.0,6464.0
0.165,-14720.0,-3200.0,6336.0
0.1675,-14784.0,-3328.0,6272.0
0.17,-14848.0,-3328.0,6336.0
0.1725,-14912.0,-3328.0,6464.0
0.175,-14848.0,-3392.0,6400.0
0.1775,-14848.0,-3328.0,6272.0
0.18,-14848.0,-3328.0,6208.0
0.1825,-14848.0,-3392.0,6272.0
0.185,-14848.0,-3328.0,6208.0
0.1875,-14784.0,-3328.0,6144.0
0.19,-14848.0,-3392.0,6208.0
0.1925,-14848.0,-3392.0,6272.0
0.195,-14848.0,-3392.0,6272.0
0.1975,-14912.0,-3456.0,6272.0
0.2,-14976.0,-3520.0,6272.0
0.2025,-14912.0,-3456.0,6272.0
0.205,-14976.0,-3520.0,6272.0
0.2075,-15040.0,-3456.0,6272.0
0.21,-15040.0,-3456.0,6208.0
0.2125,-14976.0,-3520.0,6336.0
0.215,-15040.0,-3520.0,6208.0
0.2175,-15104.0,-3520.0,6208.0
0.22,-15104.0,-3520.0,6208.0
0.2225,-15104.0,-3520.0,6208.0
0.225,-15168.0,-3520.0,6272.0
0.2275,-15168.0,-3520.0,6208.0
0.23,-15168.0,-3520.0,6272.0
0.2325,-15104.0,-3456.0,6272.0
0.235,-15104.0,-3456.0,6272.0
0.2375,-15168.0,-3456.0,6208.0
0.24,-15232.0,-3520.0,6208.0
0.2425,-15296.0,-3520.0,6272.0
0.245,-15296.0,-3520.0,6272.0
0.2475,-15232.0,-3520.0,6208.0
0.25,-15104.0,-3520.0,6208.0
0.2525,-15104.0,-3584.0,6144.0
0.255,-15168.0,-3520.0,6272.0
0.2575,-15104.0,-3584.0,6272.0
0.26,-15168.0,-3648.0,6336.0
0.2625,-15168.0,-3584.0,6272.0
0.265,-15104.0,-3584.0,6272.0
0.2675,-15168.0,-3584.0,6272.0
0.27,-15104.0,-3520.0,6272.0
0.2725,-15104.0,-3520.0,6272.0
0.275,-15168.0,-3584.0,6336.0
0.2775,-15168.0,-3584.0,6272.0
0.28,-15104.0,-3648.0,6208.0
0.2825,-15104.0,-3648.0,6272.0
0.285,-15104.0,-3584.0,6208.0
0.2875,-15104.0,-3520.0,6272.0
0.29,-15104.0,-3520.0,6272.0
0.2925,-15104.0,-3520.0,6272.0
0.295,-15040.0,-3520.0,6336.0
0.2975,-15040.0,-3520.0,6336.0
0.3,-15040.0,-3520.0,6336.0
0.3025,-14976.0,-3456.0,6336.0
0.305,-14976.0,-3520.0,6336.0
0.3075,-14976.0,-3456.0,6272.0
0.31,-14976.0,-3456.0,6272.0
0.3125,-14912.0,-3456.0,6272.0
0.315,-14976.0,-3456.0,6272.0
0.3175,-14976.0,-3456.0,6208.0
0.32,-14976.0,-3456.0,6336.0
0.3225,-14912.0,-3520.0,6336.0
0.325,-14848.0,-3520.0,6272.0
0.3275,-14784.0,-3520.0,6336.0
0.33,-14848.0,-3520.0,6400.0
0.3325,-14912.0,-3520.0,6400.0
0.335,-14912.0,-3456.0,6400.0
0.3375,-14976.0,-3456.0,6400.0
0.34,-14848.0,-3520.0,6272.0
0.3425,-14912.0,-3456.0,6336.0
0.345,-14976.0,-3520.0,6400.0
0.3475,-14976.0,-3520.0,6400.0
0.35,-14912.0,-3456.0,6336.0
0.3525,-14976.0,-3392.0,6400.0
0.355,-14912.0,-3392.0,6336.0
0.3575,-14912.0,-3328.0,6336.0
0.36,-14912.0,-3328.0,6272.0
0.3625,-14912.0,-3392.0,6272.0
0.365,-14912.0,-3328.0,6272.0
0.3675,-14976.0,-3328.0,6208.0
0.37,-14976.0,-3392.0,6208.0
0.3725,-14976.0,-3392.0,6208.0
0.375,-14912.0,-3328.0,6208.0
0.3775,-14912.0,-3392.0,6272.0
0.38,-14848.0,-3456.0,6272.0
0.3825,-14912.0,-3456.0,6272.0
0.385,-14976.0,-3456.0,6272.0
0.3875,-14976.0,-3456.0,6272.0
0.39,-14912.0,-3456.0,6208.0
0.3925,-14848.0,-3456.0,6272.0
0.395,-14912.0,-3520.0,6272.0
0.3975,-14976.0,-3520.0,6272.0
0.4,-14976.0,-3456.0,6400.0
0.4025,-14976.0,-3328.0,6336.0
0.405,-14976.0,-3392.0,6208.0
0.4075,-15040.0,-3392.0,6272.0
0.41,-15040.0,-3392.0,6208.0
0.4125,-14976.0,-3392.0,6144.0
0.415,-14976.0,-3392.0,6336.0
0.4175,-15040.0,-3456.0,6336.0
0.42,-15040.0,-3456.0,6272.0
0.4225,-15040.0,-3392.0,6208.0
0.425,-14976.0,-3392.0,6208.0
0.4275,-15040.0,-3456.0,6208.0
0.43,-15040.0,-3456.0,6208.0
0.4325,-14976.0,-3456.0,6272.0
0.435,-14976.0,-3456.0,6336.0
0.4375,-14976.0,-3456.0,6336.0
0.44,-14976.0,-3456.0,6272.0
0.4425,-14976.0,-3456.0,6272.0
0.445,-15040.0,-3392.0,6336.0
0.4475,-15040.0,-3392.0,6272.0
0.45,-15040.0,-3392.0,6208.0
0.4525,-14976.0,-3392.0,6272.0
0.455,-14976.0,-3392.0,6272.0
0.4575,-15040.0,-3392.0,6208.0
0.46,-15040.0,-3392.0,6272.0
0.4625,-15104.0,-3392.0,6272.0
0.465,-15040.0,-3392.0,6272.0
0.4675,-15040.0,-3328.0,6272.0
0.47,-15040.0,-3392.0,6272.0
0.4725,-15040.0,-3392.0,6272.0
0.475,-15040.0,-3328.0,6144.0
0.4775,-15040.0,-3392.0,6208.0
0.48,-15040.0,-3392.0,6336.0
0.4825,-15040.0,-3392.0,6208.0
0.485,-14976.0,-3392.0,6208.0
0.4875,-14976.0,-3328.0,6144.0
0.49,-14976.0,-3392.0,6272.0
0.4925,-14976.0,-3392.0,6272.0
0.495,-15040.0,-3328.0,6272.0
0.4975,-14976.0,-3392.0,6272.0
0.5,-14976.0,-3392.0,6144.0
0.5025,-14912.0,-3328.0,6144.0
0.505,-14912.0,-3456.0,6144.0
0.5075,-14976.0,-3392.0,6208.0
0.51,-14976.0,-3392.0,6272.0
0.5125,-14976.0,-3456.0,6272.0
0.515,-14976.0,-3456.0,6272.0
0.5175,-14976.0,-3520.0,6272.0
0.52,-14976.0,-3392.0,6272.0
0.5225,-14976.0,-3392.0,6208.0
0.525,-14976.0,-3456.0,6272.0
0.5275,-14976.0,-3520.0,6272.0
0.53,-14976.0,-3456.0,6272.0
0.5325,-14912.0,-3328.0,6272.0
0.535,-14976.0,-3392.0,6208.0
0.5375,-14976.0,-3392.0,6208.0
0.54,-14976.0,-3328.0,6208.0
0.5425,-14912.0,-3328.0,6208.0
0.545,-14976.0,-3328.0,6208.0
0.5475,-14976.0,-3264.0,6144.0
0.55,-15040.0,-3264.0,6144.0
0.5525,-15040.0,-3328.0,6080.0
0.555,-15040.0,-3392.0,6080.0
0.5575,-14976.0,-3392.0,6144.0
0.56,-15104.0,-3392.0,6336.0
0.5625,-15040.0,-3328.0,6208.0
0.565,-14976.0,-3200.0,6272.0
0.5675,-14976.0,-3264.0,6208.0
0.57,-15040.0,-3264.0,6336.0
0.5725,-15040.0,-3328.0,6272.0
0.575,-15104.0,-3392.0,6272.0
0.5775,-15104.0,-3264.0,6144.0
0.58,-15104.0,-3264.0,6144.0
0.5825,-15168.0,-3328.0,6208.0
0.585,-15168.0,-3328.0,6208.0
0.5875,-15232.0,-3392.0,6208.0
0.59,-15168.0,-3328.0,6208.0
0.5925,-15168.0,-3328.0,6208.0
0.595,-15104.0,-3392.0,6272.0
0.5975,-15168.0,-3392.0,6272.0
0.6,-15168.0,-3392.0,6208.0
0.6025,-15168.0,-3392.0,6208.0
0.605,-15168.0,-3392.0,6144.0
0.6075,-15168.0,-3328.0,6144.0
0.61,-15168.0,-3328.0,6208.0
0.6125,-15104.0,-3328.0,6144.0
0.615,-15104.0,-3264.0,6208.0
0.6175,-15168.0,-3328.0,6208.0
0.62,-15104.0,-3264.0,6208.0
0.6225,-15168.0,-3264.0,6144.0
0.625,-15104.0,-3328.0,6144.0
0.6275,-15104.0,-3392.0,6144.0
0.63,-15040.0,-3392.0,6272.0
0.6325,-15040.0,-3328.0,6272.0
0.635,-15040.0,-3392.0,6400.0
0.6375,-15040.0,-3392.0,6400.0
0.64,-15040.0,-3328.0,6400.0
0.6425,-14976.0,-3264.0,6336.0
0.645,-14912.0,-3264.0,6336.0
0.6475,-14848.0,-3200.0,6272.0
0.65,-14848.0,-3264.0,6336.0
0.6525,-14912.0,-3264.0,6336.0
0.655,-14912.0,-3200.0,6464.0
0.6575,-14912.0,-3264.0,6336.0
0.66,-14848.0,-3200.0,6272.0
0.6625,-14784.0,-3200.0,6272.0
0.665,-14848.0,-3200.0,6336.0
0.6675,-14848.0,-3200.0,6208.0
0.67,-14912.0,-3264.0,6272.0
0.6725,-14848.0,-3264.0,6272.0
0.675,-14848.0,-3200.0,6336.0
0.6775,-14848.0,-3200.0,6400.0
0.68,-14784.0,-3136.0,6336.0
0.6825,-14784.0,-3200.0,6272.0
0.685,-14720.0,-3264.0,6272.0
0.6875,-14720.0,-3200.0,6272.0
0.69,-14784.0,-3264.0,6208.0
0.6925,-14784.0,-3200.0,6208.0
0.695,-14784.0,-3264.0,6272.0
0.6975,-14848.0,-3328.0,6272.0
0.7,-14848.0,-3392.0,6272.0
0.7025,-14784.0,-3392.0,6336.0
0.705,-14848.0,-3328.0,6272.0
0.7075,-14848.0,-3392.0,6272.0
0.71,-14912.0,-3392.0,6272.0
0.7125,-14912.0,-3392.0,6208.0
0.715,-14912.0,-3392.0,6272.0
0.7175,-14976.0,-3392.0,6336.0
0.72,-14976.0,-3456.0,6208.0
0.7225,-15104.0,-3456.0,6208.0
0.725,-15104.0,-3520.0,6272.0
0.7275,-15104.0,-3456.0,6400.0
0.73,-15104.0,-3456.0,6272.0
0.7325,-15104.0,-3456.0,6208.0
0.735,-15104.0,-3456.0,6336.0
0.7375,-15168.0,-3520.0,6400.0
0.74,-15168.0,-3520.0,6336.0
0.7425,-15168.0,-3456.0,6144.0
0.745,-15168.0,-3456.0,6208.0
0.7475,-15104.0,-3456.0,6208.0
0.75,-15168.0,-3520.0,6272.0
0.7525,-15232.0,-3456.0,6336.0
0.755,-15168.0,-3520.0,6336.0
0.7575,-15168.0,-3520.0,6336.0
0.76,-15168.0,-3520.0,6400.0
0.7625,-15104.0,-3456.0,6336.0
0.765,-15104.0,-3392.0,6464.0
0.7675,-15104.0,-3456.0,6400.0
0.77,-15104.0,-3392.0,6336.0
0.7725,-15040.0,-3392.0,6336.0
0.775,-15104.0,-3328.0,6400.0
0.7775,-15040.0,-3392.0,6272.0
0.78,-15040.0,-3392.0,6336.0
0.7825,-15040.0,-3456.0,6336.0
0.785,-15040.0,-3520.0,6336.0
0.7875,-15040.0,-3520.0,6272.0
0.79,-15040.0,-3456.0,6208.0
0.7925,-15040.0,-3520.0,6208.0
0.795,-15040.0,-3520.0,6208.0
0.7975,-14976.0,-3520.0,6208.0
0.8,-14976.0,-3520.0,6208.0
0.8025,-15040.0,-3584.0,6336.0
0.805,-14976.0,-3520.0,6336.0
0.8075,-14912.0,-3520.0,6272.0
0.81,-14976.0,-3456.0,6208.0
0.8125,-14976.0,-3520.0,6336.0
0.815,-14976.0,-3456.0,6208.0
0.8175,-14912.0,-3456.0,6272.0
0.82,-14976.0,-3456.0,6336.0
0.8225,-14976.0,-3456.0,6272.0
0.825,-14912.0,-3456.0,6272.0
0.8275,-14912.0,-3520.0,6208.0
0.83,-14848.0,-3456.0,6208.0
0.8325,-14784.0,-3456.0,6144.0
0.835,-14848.0,-3456.0,6208.0
0.8375,-14784.0,-3520.0,6272.0
0.84,-14848.0,-3520.0,6208.0
0.8425,-14784.0,-3520.0,6272.0
0.845,-14720.0,-3456.0,6208.0
0.8475,-14784.0,-3456.0,6272.0
0.85,-14784.0,-3456.0,6208.0
0.8525,-14720.0,-3456.0,6208.0
0.855,-14720.0,-3520.0,6208.0
0.8575,-14656.0,-3456.0,6272.0
0.86,-14720.0,-3520.0,6272.0
0.8625,-14784.0,-3456.0,6208.0
0.865,-14720.0,-3456.0,6208.0
0.8675,-14720.0,-3392.0,6144.0
0.87,-14784.0,-3456.0,6144.0
0.8725,-14784.0,-3520.0,6144.0
0.875,-14848.0,-3456.0,6144.0
0.8775,-14848.0,-3456.0,6144.0
0.88,-14912.0,-3456.0,6208.0
0.8825,-14848.0,-3456.0,6144.0
0.885,-14848.0,-3456.0,6080.0
0.8875,-14848.0,-3328.0,6016.0
0.89,-14848.0,-3328.0,6080.0
0.8925,-14912.0,-3392.0,6144.0
0.895,-14976.0,-3456.0,6272.0
0.8975,-15040.0,-3456.0,6208.0
0.9,-14976.0,-3456.0,6272.0
0.9025,-14976.0,-3392.0,6208.0
0.905,-15104.0,-3328.0,6272.0
0.9075,-15168.0,-3456.0,6208.0
0.91,-15168.0,-3456.0,6144.0
0.9125,-15232.0,-3456.0,6208.0
0.915,-15296.0,-3456.0,6208.0
0.9175,-15296.0,-3520.0,6208.0
0.92,-15296.0,-3584.0,6272.0
0.9225,-15424.0,-3584.0,6272.0
0.925,-15424.0,-3648.0,6400.0
0.9275,-15488.0,-3584.0,6336.0
0.93,-15552.0,-3648.0,6400.0
0.9325,-15552.0,-3712.0,6464.0
0.935,-15552.0,-3776.0,6464.0
0.9375,-15552.0,-3776.0,6464.0
0.94,-15552.0,-3776.0,6464.0
0.9425,-15552.0,-3712.0,6464.0
0.945,-15488.0,-3776.0,6464.0
0.9475,-15488.0,-3840.0,6464.0
0.95,-15424.0,-3776.0,6464.0
0.9525,-15424.0,-3776.0,6400.0
0.955,-15424.0,-3776.0,6400.0
0.9575,-15424.0,-3840.0,6400.0
0.96,-15360.0,-3840.0,6400.0
0.9625,-15296.0,-3840.0,6464.0
0.965,-15232.0,-3776.0,6400.0
0.9675,-15168.0,-3776.0,6400.0
0.97,-15168.0,-3712.0,6464.0
0.9725,-15040.0,-3648.0,6400.0
0.975,-14976.0,-3648.0,6272.0
0.9775,-14976.0,-3712.0,6336.0
0.98,-14912.0,-3648.0,6272.0
0.9825,-14976.0,-3712.0,6464.0
0.985,-14912.0,-3648.0,6464.0
0.9875,-14848.0,-3584.0,6400.0
0.99,-14848.0,-3648.0,6528.0
0.9925,-14848.0,-3712.0,6464.0
0.995,-14848.0,-3712.0,6464.0
0.9975,-14848.0,-3648.0,6336.0
1.0,-14784.0,-3648.0,6336.0
1.0025,-14784.0,-3648.0,6336.0
1.005,-14784.0,-3648.0,6272.0
1.0075,-14720.0,-3648.0,6336.0
1.01,-14720.0,-3584.0,6336.0
1.0125,-14656.0,-3584.0,6336.0
1.015,-14656.0,-3584.0,6400.0
1.0175,-14656.0,-3584.0,6400.0
1.02,-14656.0,-3520.0,6400.0
1.0225,-14656.0,-3584.0,6400.0
1.025,-14656.0,-3520.0,6272.0
1.0275,-14656.0,-3584.0,6336.0
1.03,-14656.0,-3584.0,6336.0
1.0325,-14592.0,-3584.0,6336.0
1.035,-14592.0,-3520.0,6336.0
1.0375,-14656.0,-3456.0,6272.0
1.04,-14720.0,-3520.0,6336.0
1.0425,-14720.0,-3520.0,6208.0
1.045,-14720.0,-3520.0,6144.0
1.0475,-14656.0,-3456.0,6080.0
1.05,-14720.0,-3456.0,6144.0
1.0525,-14784.0,-3520.0,6208.0
1.055,-14784.0,-3456.0,6208.0
1.0575,-14720.0,-3456.0,6208.0
1.06,-14720.0,-3456.0,6080.0
1.0625,-14720.0,-3456.0,6144.0
1.065,-14848.0,-3456.0,6272.0
1.0675,-14784.0,-3456.0,6208.0
1.07,-14784.0,-3328.0,6272.0
1.0725,-14784.0,-3328.0,6208.0
1.075,-14784.0,-3328.0,6272.0
1.0775,-14784.0,-3328.0,6272.0
1.08,-14784.0,-3264.0,6272.0
1.0825,-14784.0,-3328.0,6272.0
1.085,-14848.0,-3328.0,6208.0
1.0875,-14912.0,-3328.0,6272.0
1.09,-14848.0,-3328.0,6272.0
1.0925,-14912.0,-3264.0,6144.0
1.095,-14912.0,-3264.0,6208.0
1.0975,-14912.0,-3264.0,6144.0
1.1,-14912.0,-3264.0,6080.0
1.1025,-14976.0,-3264.0,6080.0
1.105,-14976.0,-3264.0,6080.0
1.1075,-14912.0,-3200.0,6016.0
1.11,-14848.0,-3264.0,5952.0
1.1125,-14912.0,-3264.0,5952.0
1.115,-14976.0,-3264.0,6016.0
1.1175,-15040.0,-3264.0,6016.0
1.12,-15104.0,-3328.0,6016.0
1.1225,-15040.0,-3328.0,6016.0
1.125,-15040.0,-3264.0,6080.0
1.1275,-14976.0,-3264.0,5952.0
1.13,-15040.0,-3328.0,5888.0
1.1325,-15040.0,-3328.0,6016.0
1.135,-15104.0,-3392.0,6080.0
1.1375,-15104.0,-3328.0,6080.0
1.14,-15040.0,-3264.0,6016.0
1.1425,-15040.0,-3264.0,6080.0
1.145,-15168.0,-3328.0,6208.0
1.1475,-15040.0,-3264.0,6080.0
1.15,-14976.0,-3328.0,6080.0
1.1525,-15040.0,-3328.0,6080.0
1.155,-15040.0,-3264.0,6016.0
1.1575,-15040.0,-3264.0,6080.0
1.16,-15104.0,-3264.0,6144.0
1.1625,-15040.0,-3264.0,6144.0
1.165,-15040.0,-3328.0,6080.0
1.1675,-15040.0,-3328.0,6080.0
1.17,-14976.0,-3328.0,6080.0
1.1725,-14976.0,-3328.0,6080.0
1.175,-14976.0,-3392.0,6080.0
1.1775,-14912.0,-3392.0,6144.0
1.18,-14912.0,-3328.0,6080.0
1.1825,-14912.0,-3392.0,6144.0
1.185,-14912.0,-3392.0,6144.0
1.1875,-14912.0,-3392.0,6016.0
1.19,-14912.0,-3392.0,6016.0
1.1925,-14912.0,-3392.0,6080.0
1.195,-14912.0,-3392.0,6080.0
1.1975,-14848.0,-3392.0,6016.0
1.2,-14912.0,-3520.0,6144.0
1.2025,-14912.0,-3456.0,6208.0
1.205,-14912.0,-3456.0,6144.0
1.2075,-14848.0,-3456.0,6080.0
1.21,-14848.0,-3456.0,6144.0
1.2125,-14912.0,-3520.0,6144.0
1.215,-14976.0,-3584.0,6272.0
1.2175,-14976.0,-3584.0,6208.0
1.22,-14912.0,-3520.0,6144.0
1.2225,-14976.0,-3584.0,6208.0
1.225,-15040.0,-3584.0,6144.0
1.2275,-15104.0,-3584.0,6208.0
1.23,-15040.0,-3584.0,6080.0
1.2325,-15040.0,-3584.0,6080.0
1.235,-15040.0,-3584.0,6144.0
1.2375,-15040.0,-3584.0,6080.0
1.24,-15040.0,-3648.0,6080.0
1.2425,-15168.0,-3712.0,6080.0
1.245,-15168.0,-3712.0,6080.0
1.2475,-15104.0,-3712.0,6144.0
1.25,-15104.0,-3712.0,6080.0
1.2525,-15168.0,-3712.0,6080.0
1.255,-15168.0,-3712.0,6080.0
1.2575,-15168.0,-3776.0,6080.0
1.26,-15168.0,-3776.0,6144.0
1.2625,-15104.0,-3776.0,6144.0
1.265,-15168.0,-3776.0,6144.0
1.2675,-15168.0,-3776.0,6208.0
1.27,-15232.0,-3712.0,6144.0
1.2725,-15232.0,-3712.0,6144.0
1.275,-15168.0,-3712.0,6080.0
1.2775,-15232.0,-3712.0,6080.0
1.28,-15104.0,-3712.0,6144.0
1.2825,-15104.0,-3712.0,6144.0
1.285,-15104.0,-3776.0,6144.0
1.2875,-15168.0,-3776.0,6208.0
1.29,-15168.0,-3776.0,6144.0
1.2925,-15168.0,-3712.0,6144.0
1.295,-15040.0,-3712.0,6016.0
1.2975,-15040.0,-3648.0,6080.0
1.3,-15104.0,-3648.0,6144.0
1.3025,-15104.0,-3712.0,6272.0
1.305,-15040.0,-3712.0,6272.0
1.3075,-15104.0,-3712.0,6272.0
1.31,-15040.0,-3712.0,6272.0
1.3125,-15040.0,-3648.0,6272.0
1.315,-15040.0,-3648.0,6208.0
1.3175,-15040.0,-3648.0,6208.0
1.32,-15040.0,-3648.0,6272.0
1.3225,-14976.0,-3712.0,6336.0
1.325,-15040.0,-3648.0,6272.0
1.3275,-15040.0,-3648.0,6272.0
1.33,-15040.0,-3648.0,6272.0
1.3325,-14976.0,-3584.0,6272.0
1.335,-14976.0,-3648.0,6272.0
1.3375,-14976.0,-3648.0,6208.0
1.34,-14912.0,-3584.0,6272.0
1.3425,-14976.0,-3648.0,6208.0
1.345,-15040.0,-3648.0,6272.0
1.3475,-14912.0,-3648.0,6272.0
1.35,-14976.0,-3584.0,6272.0
1.3525,-14976.0,-3584.0,6272.0
1.355,-14976.0,-3584.0,6272.0
1.3575,-14976.0,-3648.0,6272.0
1.36,-14976.0,-3648.0,6336.0
1.3625,-15040.0,-3712.0,6400.0
1.365,-15040.0,-3584.0,6272.0
1.3675,-14976.0,-3584.0,6272.0
1.37,-14912.0,-3584.0,6144.0
1.3725,-14912.0,-3648.0,6080.0
1.375,-14912.0,-3648.0,6080.0
1.3775,-14976.0,-3712.0,6144.0
1.38,-14976.0,-3712.0,6336.0
1.3825,-14976.0,-3712.0,6272.0
1.385,-14976.0,-3712.0,6208.0
1.3875,-14976.0,-3712.0,6208.0
1.39,-14976.0,-3648.0,6208.0
1.3925,-15040.0,-3648.0,6208.0
1.395,-15104.0,-3584.0,6272.0
1.3975,-15040.0,-3648.0,6208.0
1.4,-15104.0,-3584.0,6144.0
1.4025,-15040.0,-3648.0,6208.0
1.405,-15040.0,-3584.0,6272.0
1.4075,-15040.0,-3584.0,6208.0
1.41,-14976.0,-3648.0,6272.0
1.4125,-14976.0,-3648.0,6272.0
1.415,-14976.0,-3712.0,6336.0
1.4175,-15040.0,-3712.0,6272.0
1.42,-15040.0,-3712.0,6272.0
1.4225,-15040.0,-3712.0,6272.0
1.425,-15040.0,-3776.0,6272.0
1.4275,-15040.0,-3712.0,6208.0
1.43,-15104.0,-3648.0,6208.0
1.4325,-15104.0,-3648.0,6336.0
1.435,-15104.0,-3648.0,6336.0
1.4375,-15104.0,-3648.0,6272.0
1.44,-15104.0,-3712.0,6272.0
1.4425,-15104.0,-3712.0,6272.0
1.445,-15040.0,-3712.0,6208.0
1.4475,-15040.0,-3712.0,6208.0
1.45,-14976.0,-3712.0,6208.0
1.4525,-15104.0,-3648.0,6336.0
1.455,-15168.0,-3712.0,6336.0
1.4575,-15168.0,-3712.0,6272.0
1.46,-15104.0,-3712.0,6272.0
1.4625,-15040.0,-3648.0,6208.0
1.465,-15104.0,-3712.0,6208.0
1.4675,-15104.0,-3776.0,6208.0
1.47,-15104.0,-3776.0,6208.0
1.4725,-15104.0,-3712.0,6208.0
1.475,-15040.0,-3776.0,6208.0
1.4775,-15104.0,-3776.0,6208.0
1.48,-15040.0,-3712.0,6208.0
1.4825,-15040.0,-3776.0,6144.0
1.485,-15040.0,-3776.0,6208.0
1.4875,-15040.0,-3776.0,6208.0
1.49,-15040.0,-3712.0,6208.0
1.4925,-14976.0,-3712.0,6144.0
1.495,-15040.0,-3648.0,6144.0
1.4975,-14976.0,-3648.0,6208.0
1.5,-14976.0,-3648.0,6208.0
1.5025,-14976.0,-3584.0,6272.0
1.505,-15040.0,-3584.0,6272.0
1.5075,-14976.0,-3584.0,6336.0
1.51,-15040.0,-3584.0,6336.0
1.5125,-14976.0,-3648.0,6272.0
1.515,-14976.0,-3648.0,6272.0
1.5175,-15040.0,-3648.0,6208.0
1.52,-15040.0,-3712.0,6208.0
1.5225,-15040.0,-3712.0,6272.0
1.525,-14976.0,-3648.0,6208.0
1.5275,-14976.0,-3584.0,6144.0
1.53,-14976.0,-3648.0,6208.0
1.5325,-14976.0,-3712.0,6272.0
1.535,-15040.0,-3648.0,6272.0
1.5375,-14976.0,-3712.0,6208.0
1.54,-14976.0,-3648.0,6208.0
1.5425,-15040.0,-3648.0,6208.0
1.545,-15040.0,-3584.0,6144.0
1.5475,-14976.0,-3584.0,6144.0
1.55,-15040.0,-3648.0,6144.0
1.5525,-14976.0,-3648.0,6144.0
1.555,-14976.0,-3648.0,6144.0
1.5575,-15040.0,-3648.0,6144.0
1.56,-14976.0,-3584.0,6144.0
1.5625,-14976.0,-3584.0,6080.0
1.565,-15040.0,-3584.0,6144.0
1.5675,-15040.0,-3584.0,6144.0
1.57,-15040.0,-3520.0,6080.0
1.5725,-15040.0,-3584.0,6080.0
1.575,-15040.0,-3584.0,6016.0
1.5775,-14976.0,-3584.0,6080.0
1.58,-15040.0,-3520.0,6080.0
1.5825,-15040.0,-3584.0,6144.0
1.585,-14976.0,-3520.0,6144.0
1.5875,-14976.0,-3584.0,6208.0
1.59,-15040.0,-3648.0,6144.0
1.5925,-14976.0,-3648.0,6144.0
1.595,-14976.0,-3648.0,6144.0
1.5975,-14976.0,-3648.0,6080.0
1.6,-14976.0,-3648.0,6208.0
1.6025,-15104.0,-3648.0,6272.0
1.605,-15040.0,-3584.0,6144.0
1.6075,-14976.0,-3520.0,6144.0
1.61,-15040.0,-3520.0,6080.0
1.6125,-15104.0,-3584.0,6080.0
1.615,-15040.0,-3584.0,5952.0
1.6175,-15040.0,-3584.0,6080.0
1.62,-15104.0,-3584.0,6080.0
1.6225,-15104.0,-3584.0,6144.0
1.625,-15168.0,-3584.0,6144.0
1.6275,-15104.0,-3584.0,6080.0
1.63,-15104.0,-3648.0,6144.0
1.6325,-15104.0,-3648.0,6080.0
1.635,-15104.0,-3648.0,6016.0
1.6375,-15104.0,-3648.0,6080.0
1.64,-15104.0,-3712.0,6080.0
1.6425,-15040.0,-3648.0,6144.0
1.645,-15040.0,-3712.0,6080.0
1.6475,-15040.0,-3648.0,6144.0
1.65,-15040.0,-3648.0,6080.0
1.6525,-14976.0,-3712.0,6016.0
1.655,-15040.0,-3648.0,6080.0
1.6575,-14976.0,-3648.0,6080.0
1.66,-15040.0,-3648.0,6144.0
1.6625,-14976.0,-3584.0,6144.0
1.665,-14976.0,-3648.0,6144.0
1.6675,-14976.0,-3648.0,6208.0
1.67,-14976.0,-3648.0,6272.0
1.6725,-14976.0,-3648.0,6208.0
1.675,-14976.0,-3584.0,6144.0
1.6775,-14912.0,-3584.0,6144.0
1.68,-14976.0,-3648.0,6208.0
1.6825,-14848.0,-3584.0,6272.0
1.685,-14784.0,-3584.0,6208.0
1.6875,-14784.0,-3584.0,6080.0
1.69,-14784.0,-3648.0,6080.0
1.6925,-14848.0,-3584.0,6208.0
1.695,-14848.0,-3712.0,6272.0
1.6975,-14848.0,-3712.0,6144.0
1.7,-14848.0,-3648.0,6208.0
1.7025,-14848.0,-3648.0,6144.0
1.705,-14912.0,-3648.0,6144.0
1.7075,-14912.0,-3584.0,6144.0
1.71,-14848.0,-3648.0,6144.0
1.7125,-14784.0,-3648.0,6144.0
1.715,-14848.0,-3584.0,6208.0
1.7175,-14848.0,-3648.0,6272.0
1.72,-14912.0,-3712.0,6208.0
1.7225,-14848.0,-3712.0,6208.0
1.725,-14912.0,-3648.0,6208.0
1.7275,-14912.0,-3648.0,6144.0
1.73,-14912.0,-3712.0,6144.0
1.7325,-14912.0,-3712.0,6144.0
1.735,-14848.0,-3712.0,6080.0
1.7375,-14912.0,-3712.0,6080.0
1.74,-14976.0,-3712.0,6144.0
1.7425,-14976.0,-3712.0,6144.0
1.745,-15040.0,-3712.0,6144.0
1.7475,-15104.0,-3712.0,6144.0
1.75,-15104.0,-3712.0,6144.0
1.7525,-15104.0,-3712.0,6144.0
1.755,-15168.0,-3712.0,6080.0
1.7575,-15104.0,-3712.0,6080.0
1.76,-15168.0,-3840.0,6144.0
1.7625,-15168.0,-3840.0,6144.0
1.765,-15168.0,-3840.0,6208.0
1.7675,-15232.0,-3904.0,6208.0
1.77,-15168.0,-3904.0,6144.0
1.7725,-15168.0,-3840.0,6080.0
1.775,-15168.0,-3840.0,6080.0
1.7775,-15168.0,-3840.0,6144.0
1.78,-15104.0,-3840.0,6272.0
1.7825,-15168.0,-3904.0,6208.0
1.785,-15168.0,-3840.0,6208.0
1.7875,-15104.0,-3904.0,6208.0
1.79,-15168.0,-3840.0,6144.0
1.7925,-15168.0,-3776.0,6080.0
1.795,-15104.0,-3776.0,6144.0
1.7975,-15104.0,-3776.0,6144.0
1.8,-15104.0,-3776.0,6144.0
1.8025,-15104.0,-3776.0,6080.0
1.805,-15104.0,-3776.0,6144.0
1.8075,-15104.0,-3776.0,6080.0
1.81,-15104.0,-3776.0,6144.0
1.8125,-15104.0,-3776.0,6144.0
1.815,-15104.0,-3776.0,6080.0
1.8175,-15104.0,-3776.0,6080.0
1.82,-15040.0,-3840.0,6080.0
1.8225,-15040.0,-3776.0,6080.0
1.825,-15040.0,-3776.0,6080.0
1.8275,-15040.0,-3776.0,6016.0
1.83,-15040.0,-3712.0,6080.0
1.8325,-15040.0,-3712.0,6144.0
1.835,-15040.0,-3776.0,6208.0
1.8375,-15040.0,-3712.0,6208.0
1.84,-15040.0,-3776.0,6272.0
1.8425,-14976.0,-3776.0,6144.0
1.845,-14976.0,-3776.0,6144.0
1.8475,-14912.0,-3840.0,6080.0
1.85,-14976.0,-3840.0,6144.0
1.8525,-15040.0,-3840.0,6208.0
1.855,-14976.0,-3904.0,6336.0
1.8575,-14912.0,-3776.0,6272.0
1.86,-14912.0,-3776.0,6208.0
1.8625,-14848.0,-3776.0,6016.0
1.865,-14848.0,-3840.0,6080.0
1.8675,-14848.0,-3840.0,6080.0
1.87,-14848.0,-3776.0,6144.0
1.8725,-14848.0,-3776.0,6080.0
1.875,-14848.0,-3712.0,6080.0
1.8775,-14848.0,-3712.0,6080.0
1.88,-14848.0,-3776.0,6080.0
1.8825,-14976.0,-3776.0,6080.0
1.885,-14912.0,-3712.0,6144.0
1.8875,-14848.0,-3712.0,6144.0
1.89,-14848.0,-3648.0,6144.0
1.8925,-14912.0,-3712.0,6208.0
1.895,-14912.0,-3648.0,6208.0
1.8975,-14976.0,-3712.0,6144.0
1.9,-14976.0,-3712.0,6144.0
1.9025,-14848.0,-3712.0,6144.0
1.905,-14912.0,-3648.0,6144.0
1.9075,-14848.0,-3584.0,6080.0
1.91,-14912.0,-3648.0,6144.0
1.9125,-14912.0,-3648.0,6144.0
1.915,-14912.0,-3648.0,6208.0
1.9175,-14912.0,-3648.0,6144.0
1.92,-14976.0,-3776.0,6336.0
1.9225,-14976.0,-3712.0,6272.0
1.925,-14912.0,-3712.0,6208.0
1.9275,-14912.0,-3712.0,6144.0
1.93,-14912.0,-3776.0,6208.0
1.9325,-14912.0,-3712.0,6208.0
1.935,-14976.0,-3712.0,6208.0
1.9375,-14976.0,-3712.0,6208.0
1.94,-14976.0,-3776.0,6272.0
1.9425,-14976.0,-3712.0,6144.0
1.945,-14976.0,-3648.0,6144.0
1.9475,-14976.0,-3648.0,6272.0
1.95,-14976.0,-3648.0,6208.0
1.9525,-15040.0,-3648.0,6208.0
1.955,-14976.0,-3648.0,6144.0
1.9575,-14976.0,-3712.0,6208.0
1.96,-14976.0,-3776.0,6208.0
1.9625,-14976.0,-3776.0,6208.0
1.965,-15040.0,-3776.0,6144.0
1.9675,-15040.0,-3776.0,6208.0
1.97,-14976.0,-3776.0,6144.0
1.9725,-15040.0,-3776.0,6144.0
1.975,-14976.0,-3648.0,6144.0
1.9775,-14976.0,-3712.0,6144.0
1.98,-14912.0,-3712.0,6080.0
1.9825,-14912.0,-3776.0,6080.0
1.985,-14976.0,-3712.0,6080.0
1.9875,-14976.0,-3776.0,6016.0
1.99,-14976.0,-3776.0,6080.0
1.9925,-14976.0,-3712.0,6080.0
1.995,-14976.0,-3712.0,6016.0
1.9975,-14976.0,-3776.0,6144.0
2.0,-15040.0,-3776.0,6144.0
2.0025,-14976.0,-3776.0,6208.0
2.005,-14976.0,-3776.0,6144.0
2.0075,-14848.0,-3776.0,6080.0
2.01,-14912.0,-3776.0,6080.0
2.0125,-14912.0,-3776.0,6144.0
2.015,-14912.0,-3840.0,6272.0
2.0175,-14912.0,-3776.0,6208.0
2.02,-14912.0,-3712.0,6144.0
2.0225,-14912.0,-3712.0,6080.0
2.025,-14976.0,-3776.0,6208.0
2.0275,-14976.0,-3712.0,6144.0
2.03,-14912.0,-3712.0,6144.0
2.0325,-14912.0,-3776.0,6144.0
2.035,-14848.0,-3776.0,6080.0
2.0375,-14912.0,-3776.0,6144.0
2.04,-14976.0,-3776.0,6144.0
2.0425,-14912.0,-3776.0,6144.0
2.045,-14912.0,-3712.0,6144.0
2.0475,-14976.0,-3776.0,6208.0
2.05,-14976.0,-3776.0,6208.0
2.0525,-14976.0,-3712.0,6272.0
2.055,-14976.0,-3776.0,6272.0
2.0575,-14976.0,-3776.0,6272.0
2.06,-14912.0,-3776.0,6272.0
2.0625,-14976.0,-3840.0,6208.0
2.065,-14976.0,-3776.0,6272.0
2.0675,-14976.0,-3776.0,6272.0
2.07,-14976.0,-3776.0,6272.0
2.0725,-14976.0,-3776.0,6208.0
2.075,-14976.0,-3840.0,6144.0
2.0775,-14976.0,-3840.0,6144.0
2.08,-14976.0,-3776.0,6208.0
2.0825,-14912.0,-3776.0,6208.0
2.085,-14912.0,-3776.0,6144.0
2.0875,-14912.0,-3776.0,6144.0
2.09,-14976.0,-3840.0,6208.0
2.0925,-14912.0,-3840.0,6208.0
2.095,-14848.0,-3776.0,6144.0
2.0975,-14912.0,-3776.0,6144.0
2.1,-14848.0,-3776.0,6144.0
2.1025,-14912.0,-3840.0,6144.0
2.105,-14912.0,-3776.0,6208.0
2.1075,-14976.0,-3776.0,6272.0
2.11,-14976.0,-3776.0,6272.0
2.1125,-14912.0,-3840.0,6272.0
2.115,-14976.0,-3776.0,6272.0
2.1175,-14912.0,-3776.0,6272.0
2.12,-14976.0,-3776.0,6336.0
2.1225,-14976.0,-3776.0,6272.0
2.125,-14976.0,-3712.0,6272.0
2.1275,-14976.0,-3712.0,6208.0
2.13,-14976.0,-3712.0,6144.0
2.1325,-14976.0,-3712.0,6144.0
2.135,-15104.0,-3776.0,6272.0
2.1375,-15104.0,-3712.0,6272.0
2.14,-15104.0,-3712.0,6208.0
2.1425,-15104.0,-3776.0,6272.0
2.145,-15104.0,-3712.0,6208.0
2.1475,-15168.0,-3712.0,6272.0
2.15,-15168.0,-3712.0,6336.0
2.1525,-15168.0,-3712.0,6272.0
2.155,-15104.0,-3712.0,6336.0
2.1575,-15104.0,-3712.0,6336.0
2.16,-15168.0,-3712.0,6400.0
2.1625,-15168.0,-3712.0,6336.0
2.165,-15168.0,-3648.0,6272.0
2.1675,-15104.0,-3648.0,6336.0
2.17,-15104.0,-3648.0,6336.0
2.1725,-15104.0,-3648.0,6336.0
2.175,-15104.0,-3776.0,6400.0
2.1775,-15104.0,-3712.0,6400.0
2.18,-15104.0,-3712.0,6336.0
2.1825,-15040.0,-3648.0,6208.0
2.185,-14976.0,-3648.0,6272.0
2.1875,-14976.0,-3648.0,6208.0
2.19,-14976.0,-3648.0,6272.0
2.1925,-14976.0,-3648.0,6272.0
2.195,-14976.0,-3712.0,6272.0
2.1975,-15040.0,-3648.0,6208.0
2.2,-15040.0,-3648.0,6336.0
2.2025,-15040.0,-3648.0,6336.0
2.205,-15104.0,-3584.0,6336.0
2.2075,-15104.0,-3584.0,6272.0
2.21,-15104.0,-3648.0,6336.0
2.2125,-14976.0,-3648.0,6144.0
2.215,-14976.0,-3648.0,6272.0
2.2175,-14976.0,-3712.0,6272.0
2.22,-14976.0,-3712.0,6272.0
2.2225,-15040.0,-3712.0,6336.0
2.225,-15040.0,-3712.0,6336.0
2.2275,-15040.0,-3712.0,6400.0
2.23,-15040.0,-3712.0,6400.0
2.2325,-15104.0,-3776.0,6400.0
2.235,-15104.0,-3776.0,6464.0
2.2375,-15104.0,-3776.0,6464.0
2.24,-15168.0,-3840.0,6592.0
2.2425,-15104.0,-3776.0,6528.0
2.245,-14976.0,-3776.0,6464.0
2.2475,-15040.0,-3840.0,6400.0
2.25,-15104.0,-3840.0,6464.0
2.2525,-15168.0,-3904.0,6400.0
2.255,-15168.0,-3776.0,6400.0
2.2575,-15104.0,-3776.0,6336.0
2.26,-15104.0,-3712.0,6272.0
2.2625,-15168.0,-3712.0,6272.0
2.265,-15168.0,-3712.0,6336.0
2.2675,-15104.0,-3712.0,6208.0
2.27,-15104.0,-3776.0,6272.0
2.2725,-15168.0,-3840.0,6336.0
2.275,-15168.0,-3840.0,6272.0
2.2775,-15232.0,-3904.0,6272.0
2.28,-15232.0,-3904.0,6336.0
2.2825,-15232.0,-3840.0,6400.0
2.285,-15168.0,-3840.0,6464.0
2.2875,-15232.0,-3840.0,6400.0
2.29,-15168.0,-3840.0,6400.0
2.2925,-15168.0,-3840.0,6464.0
2.295,-15168.0,-3776.0,6528.0
2.2975,-15104.0,-3840.0,6592.0
2.3,-15104.0,-3840.0,6592.0
2.3025,-15104.0,-3776.0,6592.0
2.305,-15104.0,-3776.0,6656.0
2.3075,-15040.0,-3776.0,6592.0
2.31,-15040.0,-3776.0,6464.0
2.3125,-15104.0,-3840.0,6464.0
2.315,-15040.0,-3776.0,6528.0
2.3175,-14976.0,-3776.0,6464.0
2.32,-15104.0,-3712.0,6592.0
2.3225,-14976.0,-3712.0,6464.0
2.325,-14912.0,-3712.0,6400.0
2.3275,-14976.0,-3776.0,6336.0
2.33,-14976.0,-3776.0,6272.0
2.3325,-14976.0,-3712.0,6336.0
2.335,-14912.0,-3712.0,6400.0
2.3375,-14912.0,-3712.0,6336.0
2.34,-14912.0,-3712.0,6336.0
2.3425,-14976.0,-3712.0,6272.0
2.345,-14912.0,-3776.0,6336.0
2.3475,-14912.0,-3776.0,6400.0
2.35,-14912.0,-3712.0,6336.0
2.3525,-14912.0,-3712.0,6336.0
2.355,-14912.0,-3712.0,6336.0
2.3575,-14912.0,-3840.0,6336.0
2.36,-14912.0,-3840.0,6336.0
2.3625,-14848.0,-3840.0,6272.0
2.365,-14912.0,-3840.0,6336.0
2.3675,-14848.0,-3840.0,6208.0
2.37,-14912.0,-3840.0,6272.0
2.3725,-14912.0,-3968.0,6272.0
2.375,-14912.0,-3968.0,6272.0
2.3775,-14912.0,-3904.0,6272.0
2.38,-14976.0,-3968.0,6336.0
2.3825,-14912.0,-3968.0,6336.0
2.385,-14912.0,-3968.0,6272.0
2.3875,-14912.0,-4032.0,6336.0
2.39,-14912.0,-3968.0,6336.0
2.3925,-14912.0,-3968.0,6336.0
2.395,-14912.0,-3904.0,6336.0
2.3975,-14848.0,-3904.0,6272.0
2.4,-14848.0,-3968.0,6400.0
2.4025,-14784.0,-3904.0,6336.0
2.405,-14720.0,-3904.0,6272.0
2.4075,-14720.0,-3776.0,6208.0
2.41,-14720.0,-3840.0,6208.0
2.4125,-14720.0,-3776.0,6336.0
2.415,-14656.0,-3776.0,6336.0
2.4175,-14592.0,-3712.0,6208.0
2.42,-14528.0,-3712.0,6208.0
2.4225,-14528.0,-3712.0,6208.0
2.425,-14528.0,-3776.0,6272.0
2.4275,-14464.0,-3776.0,6272.0
2.43,-14400.0,-3776.0,6272.0
2.4325,-14464.0,-3776.0,6144.0
2.435,-14464.0,-3712.0,6144.0
2.4375,-14400.0,-3712.0,6080.0
2.44,-14464.0,-3776.0,6080.0
2.4425,-14400.0,-3776.0,6016.0
2.445,-14464.0,-3776.0,6080.0
2.4475,-14400.0,-3776.0,6016.0
2.45,-14336.0,-3712.0,6080.0
2.4525,-14400.0,-3776.0,6080.0
2.455,-14336.0,-3712.0,6144.0
2.4575,-14272.0,-3712.0,6080.0
2.46,-14208.0,-3712.0,6080.0
2.4625,-14272.0,-3712.0,6080.0
2.465,-14272.0,-3712.0,6080.0
2.4675,-14208.0,-3712.0,6016.0
2.47,-14208.0,-3648.0,6080.0
2.4725,-14208.0,-3776.0,6080.0
2.475,-14208.0,-3712.0,6016.0
2.4775,-14144.0,-3712.0,6080.0
2.48,-14272.0,-3776.0,6144.0
2.4825,-14272.0,-3776.0,6080.0
2.485,-14272.0,-3776.0,6080.0
2.4875,-14208.0,-3776.0,6016.0
2.49,-14208.0,-3712.0,6016.0
2.4925,-14144.0,-3776.0,6016.0
2.495,-14208.0,-3776.0,6080.0
2.4975,-14208.0,-3840.0,6080.0
2.5,-14208.0,-3840.0,6016.0
2.5025,-14144.0,-3776.0,6080.0
2.505,-14208.0,-3776.0,6016.0
2.5075,-14208.0,-3840.0,6016.0
2.51,-14208.0,-3840.0,6144.0
2.5125,-14208.0,-3904.0,6144.0
2.515,-14272.0,-3904.0,6208.0
2.5175,-14272.0,-3904.0,6208.0
2.52,-14272.0,-3904.0,6208.0
2.5225,-14272.0,-3904.0,6208.0
2.525,-14336.0,-3904.0,6208.0
2.5275,-14400.0,-3968.0,6208.0
2.53,-14400.0,-3904.0,6208.0
2.5325,-14400.0,-3904.0,6272.0
2.535,-14464.0,-3968.0,6272.0
2.5375,-14464.0,-3904.0,6272.0
2.54,-14464.0,-3968.0,6272.0
2.5425,-14528.0,-4032.0,6208.0
2.545,-14528.0,-3968.0,6208.0
2.5475,-14528.0,-4032.0,6144.0
2.55,-14528.0,-4032.0,6080.0
2.5525,-14592.0,-4032.0,6144.0
2.555,-14592.0,-4032.0,6144.0
2.5575,-14592.0,-4032.0,6144.0
2.56,-14656.0,-4096.0,6272.0
2.5625,-14656.0,-4032.0,6144.0
2.565,-14656.0,-4032.0,6080.0
2.5675,-14720.0,-3968.0,6144.0
2.57,-14720.0,-4032.0,6080.0
2.5725,-14784.0,-4032.0,6272.0
2.575,-14784.0,-4032.0,6272.0
2.5775,-14848.0,-4032.0,6208.0
2.58,-14784.0,-4032.0,6208.0
2.5825,-14784.0,-3968.0,6144.0
2.585,-14784.0,-4032.0,6144.0
2.5875,-14720.0,-3968.0,6272.0
2.59,-14720.0,-3968.0,6272.0
2.5925,-14720.0,-4032.0,6272.0
2.595,-14720.0,-4096.0,6336.0
2.5975,-14720.0,-4032.0,6272.0
2.6,-14592.0,-4032.0,6336.0
2.6025,-14592.0,-4032.0,6400.0
2.605,-14656.0,-4032.0,6464.0
2.6075,-14656.0,-4032.0,6464.0
2.61,-14720.0,-4032.0,6528.0
2.6125,-14656.0,-4032.0,6464.0
2.615,-14720.0,-4032.0,6528.0
2.6175,-14720.0,-4032.0,6528.0
2.62,-14656.0,-4032.0,6400.0
2.6225,-14720.0,-4032.0,6464.0
2.625,-14656.0,-3968.0,6528.0
2.6275,-14400.0,-3968.0,6464.0
2.63,-14592.0,-3968.0,6528.0
2.6325,-14656.0,-3968.0,6528.0
2.635,-14592.0,-3968.0,6528.0
2.6375,-14656.0,-3904.0,6528.0
2.64,-14656.0,-3968.0,6720.0
2.6425,-14592.0,-3904.0,6528.0
2.645,-14528.0,-3904.0,6592.0
2.6475,-14592.0,-3904.0,6528.0
2.65,-14656.0,-3840.0,6592.0
2.6525,-14656.0,-3776.0,6656.0
2.655,-14720.0,-3840.0,6784.0
2.6575,-14720.0,-3776.0,6784.0
2.66,-14720.0,-3776.0,6784.0
2.6625,-14720.0,-3712.0,6784.0
2.665,-14720.0,-3712.0,6848.0
2.6675,-14656.0,-3776.0,6784.0
2.67,-14656.0,-3776.0,6784.0
2.6725,-14656.0,-3712.0,6912.0
2.675,-14656.0,-3776.0,6912.0
2.6775,-14592.0,-3776.0,6912.0
2.68,-14592.0,-3712.0,6912.0
2.6825,-14592.0,-3712.0,6912.0
2.685,-14528.0,-3712.0,6912.0
2.6875,-14464.0,-3648.0,6912.0
2.69,-14400.0,-3712.0,6912.0
2.6925,-14272.0,-3712.0,6848.0
2.695,-14208.0,-3648.0,6848.0
2.6975,-14144.0,-3712.0,6912.0
2.7,-14016.0,-3648.0,6912.0
2.7025,-13888.0,-3584.0,6912.0
2.705,-13824.0,-3520.0,6976.0
2.7075,-13824.0,-3520.0,6976.0
2.71,-13760.0,-3520.0,6976.0
2.7125,-13696.0,-3584.0,6976.0
2.715,-13632.0,-3520.0,7040.0
2.7175,-13568.0,-3520.0,7104.0
2.72,-13632.0,-3584.0,7168.0
2.7225,-13632.0,-3584.0,7168.0
2.725,-13632.0,-3520.0,7168.0
2.7275,-13632.0,-3520.0,7168.0
2.73,-13568.0,-3520.0,7040.0
2.7325,-13568.0,-3520.0,6976.0
2.735,-13568.0,-3520.0,6976.0
2.7375,-13568.0,-3584.0,6976.0
2.74,-13632.0,-3584.0,7040.0
2.7425,-13632.0,-3584.0,7040.0
2.745,-13568.0,-3584.0,6848.0
2.7475,-13632.0,-3584.0,6912.0
2.75,-13632.0,-3584.0,6912.0
2.7525,-13632.0,-3584.0,6976.0
2.755,-13632.0,-3584.0,6912.0
2.7575,-13696.0,-3648.0,6912.0
2.76,-13760.0,-3648.0,6848.0
2.7625,-13760.0,-3584.0,6912.0
2.765,-13824.0,-3648.0,6848.0
2.7675,-13824.0,-3712.0,6848.0
2.77,-13888.0,-3648.0,6848.0
2.7725,-13952.0,-3648.0,6848.0
2.775,-13952.0,-3712.0,6848.0
2.7775,-13952.0,-3776.0,6848.0
2.78,-14016.0,-3776.0,6848.0
2.7825,-13952.0,-3776.0,6848.0
2.785,-14080.0,-3776.0,6784.0
2.7875,-14144.0,-3776.0,6784.0
2.79,-14208.0,-3776.0,6784.0
2.7925,-14208.0,-3776.0,6848.0
2.795,-14272.0,-3776.0,6848.0
2.7975,-14336.0,-3776.0,6912.0
2.8,-14400.0,-3904.0,6976.0
2.8025,-14336.0,-3904.0,6976.0
2.805,-14400.0,-3840.0,6848.0
2.8075,-14400.0,-3840.0,6848.0
2.81,-14400.0,-3840.0,6912.0
2.8125,-14400.0,-3904.0,6976.0
2.815,-14336.0,-3968.0,6912.0
2.8175,-14400.0,-3968.0,6912.0
2.82,-14400.0,-3904.0,6912.0
2.8225,-14336.0,-3968.0,6784.0
2.825,-14336.0,-3904.0,6848.0
2.8275,-14272.0,-3904.0,6848.0
2.83,-14208.0,-3776.0,6848.0
2.8325,-14144.0,-3776.0,6784.0
2.835,-14080.0,-3840.0,6784.0
2.8375,-14016.0,-3776.0,6784.0
2.84,-13952.0,-3776.0,6656.0
2.8425,-13952.0,-3776.0,6720.0
2.845,-13824.0,-3776.0,6656.0
2.8475,-13888.0,-3712.0,6592.0
2.85,-13824.0,-3712.0,6592.0
2.8525,-13824.0,-3712.0,6528.0
2.855,-13760.0,-3712.0,6464.0
2.8575,-13760.0,-3712.0,6464.0
2.86,-13760.0,-3648.0,6528.0
2.8625,-13696.0,-3712.0,6528.0
2.865,-13632.0,-3712.0,6464.0
2.8675,-13568.0,-3712.0,6464.0
2.87,-13568.0,-3712.0,6400.0
2.8725,-13504.0,-3648.0,6336.0
2.875,-13504.0,-3584.0,6400.0
2.8775,-13440.0,-3712.0,6400.0
2.88,-13504.0,-3648.0,6528.0
2.8825,-13440.0,-3584.0,6400.0
2.885,-13376.0,-3584.0,6336.0
2.8875,-13440.0,-3584.0,6400.0
2.89,-13312.0,-3520.0,6464.0
2.8925,-13376.0,-3520.0,6464.0
2.895,-13376.0,-3584.0,6464.0
2.8975,-13312.0,-3456.0,6592.0
2.9,-13312.0,-3392.0,6464.0
2.9025,-13184.0,-3392.0,6400.0
2.905,-13184.0,-3328.0,6464.0
2.9075,-13248.0,-3392.0,6464.0
2.91,-13248.0,-3328.0,6336.0
2.9125,-13248.0,-3328.0,6336.0
2.915,-13248.0,-3328.0,6272.0
2.9175,-13248.0,-3328.0,6272.0
2.92,-13248.0,-3328.0,6272.0
2.9225,-13248.0,-3456.0,6336.0
2.925,-13248.0,-3456.0,6272.0
2.9275,-13312.0,-3392.0,6272.0
2.93,-13312.0,-3392.0,6208.0
2.9325,-13248.0,-3392.0,6144.0
2.935,-13312.0,-3328.0,6144.0
2.9375,-13376.0,-3328.0,6208.0
2.94,-13376.0,-3328.0,6208.0
2.9425,-13376.0,-3328.0,6144.0
2.945,-13376.0,-3456.0,6144.0
2.9475,-13376.0,-3392.0,6272.0
2.95,-13440.0,-3392.0,6400.0
2.9525,-13440.0,-3456.0,6336.0
2.955,-13440.0,-3456.0,6336.0
2.9575,-13504.0,-3456.0,6272.0
2.96,-13376.0,-3392.0,6336.0
2.9625,-13376.0,-3392.0,6400.0
2.965,-13376.0,-3392.0,6336.0
2.9675,-13312.0,-3392.0,6400.0
2.97,-13440.0,-3392.0,6336.0
2.9725,-13376.0,-3392.0,6272.0
2.975,-13312.0,-3328.0,6208.0
2.9775,-13248.0,-3264.0,6144.0
2.98,-13248.0,-3328.0,6208.0
2.9825,-13248.0,-3328.0,6208.0
2.985,-13248.0,-3328.0,6144.0
2.9875,-13248.0,-3264.0,6080.0
2.99,-13184.0,-3328.0,6080.0
2.9925,-13184.0,-3328.0,5888.0
2.995,-13120.0,-3264.0,5952.0
2.9975,-13120.0,-3328.0,6016.0
3.0,-13120.0,-3264.0,6080.0
3.0025,-13056.0,-3264.0,6080.0
3.005,-13056.0,-3264.0,6080.0
3.0075,-13056.0,-3328.0,6144.0
3.01,-13056.0,-3328.0,6208.0
3.0125,-13120.0,-3264.0,6144.0
3.015,-13184.0,-3328.0,6272.0
3.0175,-13184.0,-3328.0,6272.0
3.02,-13184.0,-3392.0,6272.0
3.0225,-13248.0,-3392.0,6272.0
3.025,-13312.0,-3392.0,6272.0
3.0275,-13312.0,-3392.0,6208.0
3.03,-13312.0,-3392.0,6208.0
3.0325,-13440.0,-3392.0,6336.0
3.035,-13440.0,-3392.0,6336.0
3.0375,-13440.0,-3328.0,6400.0
3.04,-13504.0,-3392.0,6592.0
3.0425,-13696.0,-3328.0,6656.0
3.045,-13696.0,-3328.0,6656.0
3.0475,-13824.0,-3328.0,6592.0
3.05,-13760.0,-3328.0,6528.0
3.0525,-13888.0,-3392.0,6656.0
3.055,-13952.0,-3328.0,6592.0
3.0575,-13952.0,-3328.0,6656.0
3.06,-14080.0,-3328.0,6784.0
3.0625,-14080.0,-3264.0,6720.0
3.065,-14016.0,-3264.0,6656.0
3.0675,-14016.0,-3200.0,6528.0
3.07,-14080.0,-3200.0,6592.0
3.0725,-14016.0,-3072.0,6656.0
3.075,-14080.0,-3008.0,6592.0
3.0775,-14080.0,-3008.0,6592.0
3.08,-14080.0,-3008.0,6592.0
3.0825,-14144.0,-2944.0,6656.0
3.085,-14208.0,-3008.0,6656.0
3.0875,-14208.0,-3008.0,6592.0
3.09,-14144.0,-3008.0,6528.0
3.0925,-14208.0,-3072.0,6528.0
3.095,-14208.0,-3008.0,6592.0
3.0975,-14208.0,-3072.0,6528.0
3.1,-14272.0,-3008.0,6656.0
3.1025,-14208.0,-3136.0,6656.0
3.105,-14208.0,-3072.0,6720.0
3.1075,-14144.0,-3136.0,6720.0
3.11,-14080.0,-3072.0,6784.0
3.1125,-14080.0,-3136.0,6848.0
3.115,-14080.0,-3136.0,6848.0
3.1175,-14080.0,-3136.0,6912.0
3.12,-14080.0,-3072.0,6976.0
3.1225,-14080.0,-3136.0,7104.0
3.125,-14016.0,-3008.0,7040.0
3.1275,-14016.0,-3008.0,7104.0
3.13,-14016.0,-3072.0,7168.0
3.1325,-14016.0,-3008.0,7168.0
3.135,-14016.0,-2944.0,7168.0
3.1375,-13952.0,-2880.0,7104.0
3.14,-13888.0,-2944.0,7040.0
3.1425,-13888.0,-2944.0,7040.0
3.145,-13952.0,-2944.0,7168.0
3.1475,-13888.0,-3008.0,7104.0
3.15,-13952.0,-3008.0,7104.0
3.1525,-13952.0,-2944.0,7104.0
3.155,-14016.0,-2944.0,7168.0
3.1575,-13952.0,-2880.0,7168.0
3.16,-14016.0,-2880.0,7232.0
3.1625,-13952.0,-3008.0,7168.0
3.165,-13952.0,-3008.0,7232.0
3.1675,-14016.0,-2944.0,7232.0
3.17,-13952.0,-3008.0,7232.0
3.1725,-14016.0,-2944.0,7232.0
3.175,-14016.0,-3008.0,7360.0
3.1775,-14016.0,-2880.0,7360.0
3.18,-14016.0,-3008.0,7488.0
3.1825,-14080.0,-3008.0,7488.0
3.185,-14144.0,-2944.0,7424.0
3.1875,-14080.0,-2944.0,7488.0
3.19,-14080.0,-3008.0,7488.0
3.1925,-14080.0,-3008.0,7552.0
3.195,-14144.0,-3008.0,7552.0
3.1975,-14080.0,-3008.0,7552.0
3.2,-14208.0,-3008.0,7744.0
3.2025,-14080.0,-3008.0,7616.0
3.205,-14080.0,-3008.0,7552.0
3.2075,-14080.0,-3008.0,7552.0
3.21,-14080.0,-3008.0,7552.0
3.2125,-14080.0,-3072.0,7616.0
3.215,-14080.0,-3136.0,7680.0
3.2175,-14080.0,-3072.0,7616.0
3.22,-14080.0,-3008.0,7488.0
3.2225,-14144.0,-3008.0,7488.0
3.225,-14080.0,-3008.0,7680.0
3.2275,-14080.0,-3008.0,7552.0
3.23,-14080.0,-2944.0,7552.0
3.2325,-14144.0,-2880.0,7552.0
3.235,-14144.0,-2880.0,7488.0
3.2375,-14208.0,-2816.0,7488.0
3.24,-14144.0,-2880.0,7488.0
3.2425,-14208.0,-2816.0,7552.0
3.245,-14208.0,-2880.0,7552.0
3.2475,-14208.0,-2816.0,7552.0
3.25,-14208.0,-2816.0,7552.0
3.2525,-14208.0,-2816.0,7616.0
3.255,-14272.0,-2816.0,7488.0
3.2575,-14272.0,-2752.0,7552.0
3.26,-14208.0,-2752.0,7616.0
3.2625,-14272.0,-2816.0,7552.0
3.265,-14272.0,-2752.0,7552.0
3.2675,-14272.0,-2688.0,7616.0
3.27,-14272.0,-2688.0,7552.0
3.2725,-14208.0,-2688.0,7616.0
3.275,-14208.0,-2688.0,7552.0
3.2775,-14208.0,-2688.0,7552.0
3.28,-14272.0,-2688.0,7616.0
3.2825,-14272.0,-2752.0,7680.0
3.285,-14208.0,-2816.0,7744.0
3.2875,-14208.0,-2816.0,7616.0
3.29,-14144.0,-2816.0,7552.0
3.2925,-14144.0,-2816.0,7616.0
3.295,-14208.0,-2816.0,7744.0
3.2975,-14144.0,-2752.0,7744.0
3.3,-14016.0,-2816.0,7616.0
3.3025,-13952.0,-2752.0,7552.0
3.305,-13952.0,-2816.0,7680.0
3.3075,-13952.0,-2816.0,7552.0
3.31,-13888.0,-2880.0,7616.0
3.3125,-13824.0,-2816.0,7680.0
3.315,-13760.0,-2880.0,7680.0
3.3175,-13824.0,-2816.0,7680.0
3.32,-13760.0,-2880.0,7680.0
3.3225,-13824.0,-2880.0,7680.0
3.325,-13760.0,-2944.0,7616.0
3.3275,-13824.0,-2944.0,7616.0
3.33,-13824.0,-2880.0,7616.0
3.3325,-13888.0,-2944.0,7680.0
3.335,-13888.0,-2944.0,7616.0
3.3375,-13952.0,-2944.0,7616.0
3.34,-14016.0,-2944.0,7616.0
3.3425,-14016.0,-2944.0,7616.0
3.345,-13952.0,-2944.0,7616.0
3.3475,-14016.0,-3008.0,7616.0
3.35,-14080.0,-2944.0,7552.0
3.3525,-14016.0,-2944.0,7552.0
3.355,-14016.0,-2880.0,7552.0
3.3575,-14016.0,-2880.0,7616.0
3.36,-14016.0,-2944.0,7680.0
3.3625,-14016.0,-2944.0,7680.0
3.365,-13952.0,-2816.0,7680.0
3.3675,-14016.0,-2880.0,7616.0
3.37,-14016.0,-2944.0,7744.0
3.3725,-14080.0,-3008.0,7808.0
3.375,-14016.0,-2944.0,7808.0
3.3775,-14016.0,-3008.0,7744.0
3.38,-13952.0,-2944.0,7616.0
3.3825,-14016.0,-3008.0,7744.0
3.385,-14016.0,-3008.0,7808.0
3.3875,-14016.0,-3008.0,7744.0
3.39,-14016.0,-3008.0,7808.0
3.3925,-13952.0,-2880.0,7744.0
3.395,-13952.0,-2944.0,7872.0
3.3975,-13952.0,-2944.0,7872.0
3.4,-13888.0,-2880.0,7808.0
3.4025,-13888.0,-2880.0,7872.0
3.405,-13824.0,-2752.0,8000.0
3.4075,-13824.0,-2752.0,8000.0
3.41,-13888.0,-2752.0,8000.0
3.4125,-13952.0,-2816.0,8064.0
3.415,-13952.0,-2816.0,8128.0
3.4175,-13952.0,-2816.0,8064.0
3.42,-13952.0,-2880.0,8064.0
3.4225,-14016.0,-2880.0,8064.0
3.425,-14016.0,-2880.0,8064.0
3.4275,-14016.0,-2944.0,8000.0
3.43,-14016.0,-2944.0,8064.0
3.4325,-14080.0,-2880.0,8000.0
3.435,-14080.0,-2944.0,7936.0
3.4375,-14080.0,-2880.0,8000.0
3.44,-14080.0,-2880.0,8000.0
3.4425,-14016.0,-2816.0,7936.0
3.445,-13952.0,-2880.0,7872.0
3.4475,-13952.0,-2880.0,7872.0
3.45,-14016.0,-2880.0,7872.0
3.4525,-14016.0,-2944.0,7872.0
3.455,-14080.0,-2944.0,7936.0
3.4575,-14016.0,-3008.0,7872.0
3.46,-14016.0,-3008.0,7808.0
3.4625,-13952.0,-2944.0,7808.0
3.465,-14016.0,-3008.0,7936.0
3.4675,-14016.0,-3008.0,7936.0
3.47,-13952.0,-3008.0,8000.0
3.4725,-14016.0,-2944.0,8128.0
3.475,-14080.0,-3008.0,8064.0
3.4775,-14080.0,-3008.0,8128.0
3.48,-14144.0,-3008.0,8192.0
3.4825,-14144.0,-2944.0,8192.0
3.485,-14144.0,-2944.0,8256.0
3.4875,-14144.0,-2880.0,8256.0
3.49,-14144.0,-2880.0,8320.0
3.4925,-14144.0,-2816.0,8320.0
3.495,-14080.0,-2816.0,8256.0
3.4975,-14144.0,-2688.0,8320.0
3.5,-14080.0,-2688.0,8320.0
3.5025,-14080.0,-2624.0,8320.0
3.505,-14144.0,-2624.0,8320.0
3.5075,-14080.0,-2624.0,8320.0
3.51,-14080.0,-2624.0,8384.0
3.5125,-14016.0,-2688.0,8384.0
3.515,-13952.0,-2688.0,8384.0
3.5175,-14016.0,-2688.0,8320.0
3.52,-14016.0,-2752.0,8320.0
3.5225,-14080.0,-2752.0,8512.0
3.525,-14016.0,-2688.0,8384.0
3.5275,-13952.0,-2688.0,8320.0
3.53,-14016.0,-2688.0,8320.0
3.5325,-14080.0,-2688.0,8320.0
3.535,-14016.0,-2752.0,8320.0
3.5375,-13952.0,-2752.0,8320.0
3.54,-13888.0,-2688.0,8192.0
3.5425,-13888.0,-2688.0,8320.0
3.545,-13824.0,-2688.0,8384.0
3.5475,-13760.0,-2688.0,8448.0
3.55,-13632.0,-2688.0,8448.0
3.5525,-13632.0,-2688.0,8512.0
3.555,-13696.0,-2688.0,8512.0
3.5575,-13632.0,-2624.0,8512.0
3.56,-13568.0,-2624.0,8576.0
3.5625,-13568.0,-2624.0,8640.0
3.565,-13568.0,-2624.0,8640.0
3.5675,-13504.0,-2560.0,8640.0
3.57,-13440.0,-2560.0,8640.0
3.5725,-13376.0,-2560.0,8512.0
3.575,-13376.0,-2560.0,8576.0
3.5775,-13312.0,-2496.0,8576.0
3.58,-13312.0,-2432.0,8640.0
3.5825,-13312.0,-2368.0,8640.0
3.585,-13184.0,-2368.0,8640.0
3.5875,-13184.0,-2368.0,8704.0
3.59,-13184.0,-2368.0,8640.0
3.5925,-13184.0,-2432.0,8640.0
3.595,-13184.0,-2432.0,8640.0
3.5975,-13184.0,-2368.0,8768.0
3.6,-13312.0,-2368.0,8832.0
3.6025,-13248.0,-2368.0,8896.0
3.605,-13184.0,-2304.0,8832.0
3.6075,-13120.0,-2368.0,8768.0
3.61,-13184.0,-2304.0,8832.0
3.6125,-13248.0,-2304.0,8896.0
3.615,-13312.0,-2240.0,8960.0
3.6175,-13248.0,-2240.0,9024.0
3.62,-13248.0,-2240.0,8960.0
3.6225,-13312.0,-2240.0,8960.0
3.625,-13312.0,-2240.0,9024.0
3.6275,-13376.0,-2304.0,9088.0
3.63,-13376.0,-2240.0,9088.0
3.6325,-13312.0,-2368.0,9088.0
3.635,-13312.0,-2368.0,9152.0
3.6375,-13376.0,-2432.0,9216.0
3.64,-13376.0,-2496.0,9216.0
3.6425,-13440.0,-2496.0,9344.0
3.645,-13504.0,-2560.0,9408.0
3.6475,-13568.0,-2560.0,9472.0
3.65,-13632.0,-2560.0,9536.0
3.6525,-13632.0,-2624.0,9664.0
3.655,-13760.0,-2688.0,9664.0
3.6575,-13696.0,-2752.0,9664.0
3.66,-13696.0,-2752.0,9664.0
3.6625,-13696.0,-2816.0,9664.0
3.665,-13696.0,-2816.0,9664.0
3.6675,-13824.0,-2816.0,9664.0
3.67,-13760.0,-2816.0,9664.0
3.6725,-13760.0,-2752.0,9600.0
3.675,-13760.0,-2624.0,9536.0
3.6775,-13760.0,-2688.0,9472.0
3.68,-13760.0,-2624.0,9664.0
3.6825,-13696.0,-2624.0,9472.0
3.685,-13696.0,-2624.0,9472.0
3.6875,-13632.0,-2624.0,9408.0
3.69,-13696.0,-2688.0,9472.0
3.6925,-13696.0,-2752.0,9536.0
3.695,-13760.0,-2816.0,9536.0
3.6975,-13696.0,-2816.0,9536.0
3.7,-13696.0,-2880.0,9472.0
3.7025,-13696.0,-2944.0,9472.0
3.705,-13760.0,-3008.0,9600.0
3.7075,-13760.0,-2944.0,9600.0
3.71,-13824.0,-3008.0,9728.0
3.7125,-13952.0,-2944.0,9792.0
3.715,-14016.0,-3072.0,9792.0
3.7175,-14016.0,-3008.0,9856.0
3.72,-14144.0,-3008.0,9984.0
3.7225,-14144.0,-2944.0,9984.0
3.725,-14144.0,-2944.0,10048.0
3.7275,-14144.0,-2880.0,10112.0
3.73,-14272.0,-2880.0,10240.0
3.7325,-14272.0,-2816.0,10304.0
3.735,-14272.0,-2816.0,10368.0
3.7375,-14272.0,-2816.0,10368.0
3.74,-14400.0,-2880.0,10496.0
3.7425,-14400.0,-2816.0,10560.0
3.745,-14464.0,-2816.0,10624.0
3.7475,-14464.0,-2816.0,10496.0
3.75,-14528.0,-2752.0,10496.0
3.7525,-14528.0,-2752.0,10560.0
3.755,-14528.0,-2688.0,10496.0
3.7575,-14528.0,-2624.0,10496.0
3.76,-14592.0,-2624.0,10432.0
3.7625,-14656.0,-2496.0,10496.0
3.765,-14656.0,-2496.0,10624.0
3.7675,-14592.0,-2304.0,10624.0
3.77,-14528.0,-2240.0,10560.0
3.7725,-14528.0,-2176.0,10624.0
3.775,-14592.0,-2112.0,10624.0
3.7775,-14592.0,-1984.0,10752.0
3.78,-14528.0,-1856.0,10816.0
3.7825,-14464.0,-1728.0,10752.0
3.785,-14400.0,-1664.0,10880.0
3.7875,-14400.0,-1600.0,10816.0
3.79,-14400.0,-1472.0,10880.0
3.7925,-14400.0,-1408.0,11008.0
3.795,-14336.0,-1344.0,11072.0
3.7975,-14400.0,-1344.0,11136.0
3.8,-14400.0,-1280.0,11136.0
3.8025,-14400.0,-1216.0,11264.0
3.805,-14336.0,-1088.0,11392.0
3.8075,-14336.0,-1024.0,11456.0
3.81,-14272.0,-960.0,11584.0
3.8125,-14208.0,-896.0,11712.0
3.815,-14144.0,-832.0,11840.0
3.8175,-14144.0,-768.0,11904.0
3.82,-14080.0,-768.0,11904.0
3.8225,-14016.0,-768.0,11968.0
3.825,-14016.0,-768.0,12032.0
3.8275,-14016.0,-896.0,12032.0
3.83,-14016.0,-832.0,12096.0
3.8325,-14016.0,-896.0,12096.0
3.835,-13952.0,-832.0,12096.0
3.8375,-13952.0,-896.0,12096.0
3.84,-13952.0,-832.0,12160.0
3.8425,-13824.0,-768.0,12032.0
3.845,-13760.0,-832.0,12032.0
3.8475,-13760.0,-768.0,12032.0
3.85,-13760.0,-896.0,11904.0
3.8525,-13760.0,-960.0,12032.0
3.855,-13760.0,-896.0,11968.0
3.8575,-13632.0,-960.0,11840.0
3.86,-13632.0,-960.0,11840.0
3.8625,-13696.0,-1024.0,11904.0
3.865,-13632.0,-1024.0,11840.0
3.8675,-13632.0,-1088.0,11840.0
3.87,-13568.0,-1024.0,11840.0
3.8725,-13568.0,-960.0,11840.0
3.875,-13568.0,-1024.0,11712.0
3.8775,-13504.0,-1024.0,11712.0
3.88,-13504.0,-1088.0,11648.0
3.8825,-13504.0,-1152.0,11712.0
3.885,-13440.0,-1152.0,11584.0
3.8875,-13440.0,-1280.0,11520.0
3.89,-13440.0,-1280.0,11456.0
3.8925,-13440.0,-1344.0,11392.0
3.895,-13440.0,-1408.0,11264.0
3.8975,-13376.0,-1408.0,11136.0
3.9,-13376.0,-1408.0,11072.0
3.9025,-13312.0,-1472.0,11008.0
3.905,-13376.0,-1536.0,10880.0
3.9075,-13440.0,-1600.0,10880.0
3.91,-13440.0,-1600.0,10816.0
3.9125,-13568.0,-1600.0,10752.0
3.915,-13504.0,-1664.0,10688.0
3.9175,-13440.0,-1728.0,10752.0
3.92,-13568.0,-1920.0,10816.0
3.9225,-13504.0,-1920.0,10688.0
3.925,-13504.0,-1920.0,10816.0
3.9275,-13504.0,-1920.0,10688.0
3.93,-13568.0,-1920.0,10752.0
3.9325,-13632.0,-1920.0,10816.0
3.935,-13568.0,-1856.0,10944.0
3.9375,-13568.0,-1920.0,10944.0
3.94,-13568.0,-1920.0,10880.0
3.9425,-13696.0,-1920.0,11072.0
3.945,-13760.0,-1984.0,11072.0
3.9475,-13760.0,-1984.0,11072.0
3.95,-13760.0,-1984.0,11136.0
3.9525,-13760.0,-1984.0,11136.0
3.955,-13824.0,-2048.0,11072.0
3.9575,-13824.0,-2112.0,11136.0
3.96,-13824.0,-2112.0,11200.0
3.9625,-13760.0,-2112.0,11136.0
3.965,-13760.0,-2112.0,11136.0
3.9675,-13760.0,-2112.0,11136.0
3.97,-13760.0,-2048.0,11136.0
3.9725,-13760.0,-1984.0,11136.0
3.975,-13824.0,-1920.0,11136.0
3.9775,-13824.0,-1792.0,11264.0
3.98,-13824.0,-1664.0,11264.0
3.9825,-13760.0,-1536.0,11328.0
3.985,-13696.0,-1472.0,11328.0
3.9875,-13632.0,-1408.0,11264.0
3.99,-13696.0,-1408.0,11136.0
3.9925,-13632.0,-1472.0,11072.0
3.995,-13632.0,-1472.0,11008.0
3.9975,-13696.0,-1536.0,10880.0
4.0,-13696.0,-1664.0,10752.0
4.0025,-13696.0,-1664.0,10688.0
4.005,-13760.0,-1728.0,10688.0
4.0075,-13760.0,-1792.0,10688.0
4.01,-13824.0,-1792.0,10752.0
4.0125,-13824.0,-1792.0,10688.0
4.015,-13824.0,-1728.0,10624.0
4.0175,-13760.0,-1664.0,10688.0
4.02,-13824.0,-1664.0,10560.0
4.0225,-13824.0,-1728.0,10624.0
4.025,-13888.0,-1728.0,10688.0
4.0275,-13888.0,-1728.0,10816.0
4.03,-13888.0,-1728.0,10880.0
4.0325,-13888.0,-1792.0,10944.0
4.035,-13888.0,-1792.0,10944.0
4.0375,-13952.0,-1792.0,10944.0
4.04,-13952.0,-1792.0,10944.0
4.0425,-13952.0,-1728.0,11072.0
4.045,-14016.0,-1728.0,11136.0
4.0475,-14016.0,-1664.0,11072.0
4.05,-14080.0,-1600.0,11136.0
4.0525,-14144.0,-1536.0,11200.0
4.055,-14080.0,-1472.0,11136.0
4.0575,-14080.0,-1344.0,11072.0
4.06,-14016.0,-1344.0,11072.0
4.0625,-13952.0,-1216.0,11008.0
4.065,-13888.0,-1280.0,11008.0
4.0675,-13888.0,-1280.0,10880.0
4.07,-13824.0,-1216.0,10880.0
4.0725,-13824.0,-1216.0,10880.0
4.075,-13760.0,-1152.0,10816.0
4.0775,-13696.0,-1088.0,10816.0
4.08,-13376.0,-960.0,10880.0
4.0825,-13376.0,-832.0,10816.0
4.085,-13376.0,-768.0,10816.0
4.0875,-13376.0,-704.0,10944.0
4.09,-13376.0,-576.0,10944.0
4.0925,-13440.0,-640.0,11072.0
4.095,-13440.0,-576.0,11008.0
4.0975,-13376.0,-576.0,10944.0
4.1,-13376.0,-576.0,10944.0
4.1025,-13376.0,-640.0,11008.0
4.105,-13376.0,-512.0,10880.0
4.1075,-13504.0,-512.0,10880.0
4.11,-13504.0,-576.0,10944.0
4.1125,-13504.0,-512.0,10944.0
4.115,-13504.0,-576.0,10944.0
4.1175,-13504.0,-512.0,10944.0
4.12,-13504.0,-576.0,11008.0
4.1225,-13504.0,-640.0,10944.0
4.125,-13568.0,-640.0,10944.0
4.1275,-13568.0,-704.0,10944.0
4.13,-13568.0,-640.0,10944.0
4.1325,-13568.0,-704.0,10880.0
4.135,-13632.0,-704.0,10944.0
4.1375,-13568.0,-768.0,11008.0
4.14,-13632.0,-768.0,10944.0
4.1425,-13632.0,-768.0,11008.0
4.145,-13632.0,-768.0,10944.0
4.1475,-13632.0,-704.0,11008.0
4.15,-13568.0,-768.0,11136.0
4.1525,-13568.0,-832.0,11200.0
4.155,-13504.0,-832.0,11200.0
4.1575,-13504.0,-832.0,11264.0
4.16,-13568.0,-832.0,11456.0
4.1625,-13568.0,-896.0,11456.0
4.165,-13568.0,-896.0,11392.0
4.1675,-13504.0,-832.0,11392.0
4.17,-13504.0,-896.0,11392.0
4.1725,-13440.0,-960.0,11392.0
4.175,-13504.0,-1024.0,11456.0
4.1775,-13440.0,-960.0,11392.0
4.18,-13376.0,-1088.0,11392.0
4.1825,-13376.0,-1152.0,11200.0
4.185,-13440.0,-1152.0,11264.0
4.1875,-13376.0,-1088.0,11264.0
4.19,-13376.0,-1216.0,11264.0
4.1925,-13376.0,-1152.0,11200.0
4.195,-13440.0,-1216.0,11264.0
4.1975,-13504.0,-1216.0,11264.0
4.2,-13440.0,-1216.0,11328.0
4.2025,-13440.0,-1152.0,11392.0
4.205,-13504.0,-1088.0,11520.0
4.2075,-13440.0,-1024.0,11584.0
4.21,-13376.0,-960.0,11648.0
4.2125,-13440.0,-896.0,11712.0
4.215,-13440.0,-896.0,11840.0
4.2175,-13376.0,-896.0,11840.0
4.22,-13440.0,-768.0,11840.0
4.2225,-13376.0,-704.0,11840.0
4.225,-13376.0,-704.0,11904.0
4.2275,-13376.0,-704.0,12032.0
4.23,-13376.0,-704.0,12096.0
4.2325,-13440.0,-640.0,12032.0
4.235,-13440.0,-576.0,12096.0
4.2375,-13440.0,-640.0,12160.0
4.24,-13568.0,-576.0,12224.0
4.2425,-13568.0,-512.0,12416.0
4.245,-13568.0,-512.0,12416.0
4.2475,-13632.0,-576.0,12352.0
4.25,-13632.0,-576.0,12288.0
4.2525,-13632.0,-640.0,12416.0
4.255,-13632.0,-768.0,12288.0
4.2575,-13632.0,-960.0,12416.0
4.26,-13760.0,-1088.0,12416.0
4.2625,-13760.0,-1216.0,12352.0
4.265,-13760.0,-1280.0,12288.0
4.2675,-13824.0,-1408.0,12288.0
4.27,-13888.0,-1472.0,12288.0
4.2725,-13952.0,-1536.0,12288.0
4.275,-14016.0,-1600.0,12288.0
4.2775,-13952.0,-1600.0,12416.0
4.28,-14016.0,-1600.0,12352.0
4.2825,-14016.0,-1600.0,12288.0
4.285,-14016.0,-1536.0,12352.0
4.2875,-13952.0,-1536.0,12352.0
4.29,-13952.0,-1536.0,12416.0
4.2925,-13952.0,-1472.0,12416.0
4.295,-14016.0,-1472.0,12416.0
4.2975,-14016.0,-1344.0,12480.0
4.3,-14016.0,-1344.0,12480.0
4.3025,-14080.0,-1280.0,12480.0
4.305,-14016.0,-1280.0,12608.0
4.3075,-14080.0,-1216.0,12608.0
4.31,-13952.0,-1152.0,12608.0
4.3125,-13888.0,-1024.0,12544.0
4.315,-13888.0,-960.0,12544.0
4.3175,-13888.0,-896.0,12608.0
4.32,-13952.0,-832.0,12672.0
4.3225,-13824.0,-768.0,12608.0
4.325,-13760.0,-832.0,12544.0
4.3275,-13760.0,-896.0,12480.0
4.33,-13824.0,-896.0,12416.0
4.3325,-13824.0,-896.0,12480.0
4.335,-13888.0,-896.0,12416.0
4.3375,-13952.0,-896.0,12352.0
4.34,-13888.0,-896.0,12288.0
4.3425,-13888.0,-896.0,12288.0
4.345,-13952.0,-896.0,12288.0
4.3475,-13952.0,-960.0,12352.0
4.35,-13952.0,-1024.0,12288.0
4.3525,-13952.0,-1024.0,12288.0
4.355,-13952.0,-1152.0,12288.0
4.3575,-14016.0,-1152.0,12288.0
4.36,-14016.0,-1216.0,12224.0
4.3625,-14016.0,-1280.0,12224.0
4.365,-14016.0,-1280.0,12160.0
4.3675,-13952.0,-1344.0,12096.0
4.37,-13952.0,-1344.0,12160.0
4.3725,-13952.0,-1408.0,12160.0
4.375,-14016.0,-1408.0,12096.0
4.3775,-14016.0,-1408.0,12160.0
4.38,-14016.0,-1408.0,12224.0
4.3825,-14016.0,-1408.0,12224.0
4.385,-14016.0,-1472.0,12288.0
4.3875,-13952.0,-1536.0,12224.0
4.39,-13952.0,-1472.0,12288.0
4.3925,-13952.0,-1408.0,12288.0
4.395,-13952.0,-1472.0,12288.0
4.3975,-14016.0,-1536.0,12224.0
4.4,-13952.0,-1536.0,12352.0
4.4025,-13952.0,-1472.0,12352.0
4.405,-14016.0,-1408.0,12288.0
4.4075,-13952.0,-1408.0,12160.0
4.41,-13888.0,-1344.0,12032.0
4.4125,-13888.0,-1408.0,12032.0
4.415,-13888.0,-1472.0,12096.0
4.4175,-13888.0,-1344.0,11968.0
4.42,-13824.0,-1280.0,11840.0
4.4225,-13760.0,-1216.0,11840.0
4.425,-13760.0,-1280.0,11648.0
4.4275,-13696.0,-1216.0,11648.0
4.43,-13696.0,-1216.0,11648.0
4.4325,-13632.0,-1216.0,11520.0
4.435,-13632.0,-1152.0,11456.0
4.4375,-13632.0,-1088.0,11328.0
4.44,-13632.0,-1088.0,11264.0
4.4425,-13632.0,-1088.0,11200.0
4.445,-13632.0,-1024.0,11200.0
4.4475,-13632.0,-1088.0,11264.0
4.45,-13696.0,-1024.0,11264.0
4.4525,-13696.0,-1088.0,11328.0
4.455,-13760.0,-1024.0,11328.0
4.4575,-13760.0,-1088.0,11392.0
4.46,-13696.0,-1088.0,11456.0
4.4625,-13696.0,-1024.0,11456.0
4.465,-13696.0,-1024.0,11520.0
4.4675,-13696.0,-1024.0,11584.0
4.47,-13632.0,-1024.0,11648.0
4.4725,-13696.0,-960.0,11584.0
4.475,-13632.0,-960.0,11584.0
4.4775,-13632.0,-896.0,11584.0
4.48,-13760.0,-960.0,11584.0
4.4825,-13760.0,-960.0,11648.0
4.485,-13952.0,-1024.0,11648.0
4.4875,-13952.0,-960.0,11584.0
4.49,-13952.0,-960.0,11392.0
4.4925,-13952.0,-960.0,11328.0
4.495,-13888.0,-960.0,11328.0
4.4975,-13888.0,-960.0,11264.0
4.5,-13888.0,-960.0,11456.0
4.5025,-13888.0,-960.0,11456.0
4.505,-13824.0,-832.0,11392.0
4.5075,-13696.0,-832.0,11264.0
4.51,-13696.0,-832.0,11264.0
4.5125,-13632.0,-832.0,11200.0
4.515,-13568.0,-768.0,11072.0
4.5175,-13568.0,-896.0,10944.0
4.52,-13568.0,-832.0,10880.0
4.5225,-13568.0,-832.0,10688.0
4.525,-13440.0,-832.0,10752.0
4.5275,-13440.0,-832.0,10688.0
4.53,-13440.0,-832.0,10624.0
4.5325,-13312.0,-768.0,10496.0
4.535,-13312.0,-768.0,10368.0
4.5375,-13312.0,-768.0,10432.0
4.54,-13248.0,-768.0,10496.0
4.5425,-13248.0,-832.0,10496.0
4.545,-13120.0,-768.0,10496.0
4.5475,-13120.0,-768.0,10560.0
4.55,-12992.0,-768.0,10560.0
4.5525,-12992.0,-832.0,10624.0
4.555,-12992.0,-832.0,10752.0
4.5575,-12992.0,-832.0,10752.0
4.56,-13120.0,-896.0,11072.0
4.5625,-13184.0,-832.0,11008.0
4.565,-12992.0,-704.0,11008.0
4.5675,-13056.0,-768.0,11072.0
4.57,-13120.0,-704.0,11136.0
4.5725,-13120.0,-704.0,11200.0
4.575,-13184.0,-640.0,11200.0
4.5775,-13120.0,-640.0,11136.0
4.58,-13120.0,-704.0,11136.0
4.5825,-13120.0,-768.0,11200.0
4.585,-13120.0,-896.0,11136.0
4.5875,-13120.0,-896.0,10944.0
4.59,-13120.0,-1024.0,10944.0
4.5925,-13120.0,-1152.0,10880.0
4.595,-13056.0,-1280.0,10816.0
4.5975,-13056.0,-1344.0,10816.0
4.6,-13056.0,-1408.0,10688.0
4.6025,-13056.0,-1408.0,10624.0
4.605,-13056.0,-1472.0,10560.0
4.6075,-13056.0,-1536.0,10432.0
4.61,-12992.0,-1536.0,10432.0
4.6125,-12928.0,-1664.0,10304.0
4.615,-12992.0,-1600.0,10176.0
4.6175,-12992.0,-1664.0,10112.0
4.62,-12928.0,-1664.0,10048.0
4.6225,-13056.0,-1728.0,10048.0
4.625,-13056.0,-1728.0,9984.0
4.6275,-13056.0,-1728.0,9920.0
4.63,-13120.0,-1728.0,9920.0
4.6325,-13056.0,-1792.0,9856.0
4.635,-13056.0,-1728.0,9792.0
4.6375,-13056.0,-1856.0,9984.0
4.64,-13120.0,-1792.0,10048.0
4.6425,-13056.0,-1728.0,9920.0
4.645,-13056.0,-1728.0,9984.0
4.6475,-12992.0,-1728.0,10048.0
4.65,-13056.0,-1664.0,9984.0
4.6525,-12992.0,-1600.0,9984.0
4.655,-12992.0,-1600.0,9920.0
4.6575,-13056.0,-1664.0,9984.0
4.66,-13056.0,-1728.0,10112.0
4.6625,-13056.0,-1600.0,10112.0
4.665,-13056.0,-1536.0,10048.0
4.6675,-12992.0,-1472.0,9984.0
4.67,-12992.0,-1408.0,9984.0
4.6725,-12992.0,-1344.0,10048.0
4.675,-12992.0,-1408.0,10048.0
4.6775,-13056.0,-1408.0,10048.0
4.68,-12992.0,-1344.0,10048.0
4.6825,-12992.0,-1344.0,10048.0
4.685,-12992.0,-1344.0,10112.0
4.6875,-12992.0,-1408.0,10048.0
4.69,-12992.0,-1408.0,9984.0
4.6925,-12992.0,-1472.0,9984.0
4.695,-13056.0,-1536.0,10112.0
4.6975,-13120.0,-1472.0,10112.0
4.7,-13056.0,-1472.0,10112.0
4.7025,-13056.0,-1408.0,10112.0
4.705,-13120.0,-1408.0,10112.0
4.7075,-13120.0,-1472.0,10048.0
4.71,-13120.0,-1408.0,9984.0
4.7125,-13248.0,-1408.0,9920.0
4.715,-13248.0,-1408.0,9920.0
4.7175,-13248.0,-1472.0,9920.0
4.72,-13376.0,-1664.0,9856.0
4.7225,-13504.0,-1664.0,9984.0
4.725,-13504.0,-1664.0,9856.0
4.7275,-13504.0,-1600.0,9728.0
4.73,-13568.0,-1600.0,9728.0
4.7325,-13696.0,-1600.0,9728.0
4.735,-13696.0,-1600.0,9728.0
4.7375,-13760.0,-1536.0,9792.0
4.74,-13760.0,-1664.0,9792.0
4.7425,-13760.0,-1664.0,9792.0
4.745,-13760.0,-1600.0,9792.0
4.7475,-13824.0,-1664.0,9664.0
4.75,-13824.0,-1664.0,9728.0
4.7525,-13824.0,-1664.0,9664.0
4.755,-13888.0,-1664.0,9728.0
4.7575,-13824.0,-1728.0,9664.0
4.76,-13824.0,-1792.0,9600.0
4.7625,-13824.0,-1792.0,9600.0
4.765,-13824.0,-1856.0,9600.0
4.7675,-13888.0,-1856.0,9536.0
4.77,-13888.0,-1856.0,9472.0
4.7725,-13952.0,-1856.0,9536.0
4.775,-13888.0,-1856.0,9536.0
4.7775,-13888.0,-1920.0,9536.0
4.78,-13952.0,-1920.0,9536.0
4.7825,-13952.0,-1920.0,9536.0
4.785,-13952.0,-1920.0,9536.0
4.7875,-13888.0,-1920.0,9600.0
4.79,-13952.0,-1856.0,9600.0
4.7925,-13952.0,-1792.0,9600.0
4.795,-14016.0,-1792.0,9664.0
4.7975,-13952.0,-1856.0,9728.0
4.8,-14016.0,-1792.0,9920.0
4.8025,-13952.0,-1792.0,9984.0
4.805,-13952.0,-1792.0,9920.0
4.8075,-13888.0,-1856.0,9856.0
4.81,-13952.0,-1856.0,9984.0
4.8125,-14016.0,-1856.0,9984.0
4.815,-14016.0,-1920.0,10048.0
4.8175,-14016.0,-1920.0,9920.0
4.82,-13952.0,-1856.0,9920.0
4.8225,-13952.0,-1920.0,9856.0
4.825,-13952.0,-1920.0,9920.0
4.8275,-14016.0,-1984.0,9856.0
4.83,-14016.0,-1984.0,9856.0
4.8325,-14016.0,-1920.0,9856.0
4.835,-13952.0,-1920.0,9856.0
4.8375,-14016.0,-1920.0,9856.0
4.84,-14016.0,-1984.0,9792.0
4.8425,-13952.0,-1984.0,9792.0
4.845,-13888.0,-1984.0,9728.0
4.8475,-13888.0,-1984.0,9728.0
4.85,-13888.0,-1984.0,9792.0
4.8525,-13888.0,-2048.0,9792.0
4.855,-13824.0,-2048.0,9856.0
4.8575,-13824.0,-2112.0,9920.0
4.86,-13888.0,-2112.0,9920.0
4.8625,-13888.0,-2112.0,9856.0
4.865,-13952.0,-2112.0,9792.0
4.8675,-13888.0,-2112.0,9792.0
4.87,-13888.0,-2176.0,9856.0
4.8725,-13888.0,-2176.0,9856.0
4.875,-13888.0,-2112.0,9856.0
4.8775,-13888.0,-2112.0,9856.0
4.88,-13952.0,-2048.0,9984.0
4.8825,-13952.0,-2048.0,9920.0
4.885,-13888.0,-1984.0,9856.0
4.8875,-13888.0,-1984.0,9856.0
4.89,-13952.0,-1984.0,9920.0
4.8925,-14016.0,-1984.0,10048.0
4.895,-13952.0,-1984.0,10048.0
4.8975,-13952.0,-2048.0,9984.0
4.9,-13824.0,-1984.0,9920.0
4.9025,-13952.0,-1984.0,9920.0
4.905,-13952.0,-1920.0,9984.0
4.9075,-13952.0,-1920.0,10048.0
4.91,-13888.0,-1920.0,10112.0
4.9125,-13888.0,-1856.0,10048.0
4.915,-13888.0,-1920.0,10048.0
4.9175,-13888.0,-1920.0,10112.0
4.92,-13888.0,-1856.0,10048.0
4.9225,-13824.0,-1856.0,10048.0
4.925,-13824.0,-1856.0,9984.0
4.9275,-13824.0,-1856.0,9920.0
4.93,-13760.0,-1856.0,9984.0
4.9325,-13696.0,-1792.0,9984.0
4.935,-13760.0,-1792.0,9920.0
4.9375,-13696.0,-1728.0,9792.0
4.94,-13632.0,-1728.0,9792.0
4.9425,-13632.0,-1728.0,9728.0
4.945,-13568.0,-1728.0,9728.0
4.9475,-13504.0,-1728.0,9664.0
4.95,-13504.0,-1728.0,9600.0
4.9525,-13568.0,-1728.0,9600.0
4.955,-13504.0,-1728.0,9600.0
4.9575,-13504.0,-1792.0,9600.0
4.96,-13504.0,-1920.0,9664.0
4.9625,-13440.0,-1920.0,9536.0
4.965,-13376.0,-1984.0,9472.0
4.9675,-13376.0,-2112.0,9472.0
4.97,-13440.0,-2112.0,9472.0
4.9725,-13504.0,-2176.0,9472.0
4.975,-13440.0,-2176.0,9408.0
4.9775,-13248.0,-2176.0,9344.0
4.98,-13248.0,-2112.0,9280.0
4.9825,-13248.0,-2112.0,9344.0
4.985,-13248.0,-2112.0,9344.0
4.9875,-13312.0,-2048.0,9280.0
4.99,-13248.0,-2048.0,9344.0
4.9925,-13184.0,-2048.0,9344.0
4.995,-13248.0,-2048.0,9344.0
4.9975,-13312.0,-2048.0,9344.0
5.0,-13248.0,-2048.0,9344.0
5.0025,-13312.0,-1984.0,9344.0
5.005,-13248.0,-1984.0,9216.0
5.0075,-13248.0,-2048.0,9280.0
5.01,-13184.0,-1984.0,9216.0
5.0125,-13184.0,-1920.0,9152.0
5.015,-13248.0,-1856.0,9152.0
5.0175,-13184.0,-1856.0,9152.0
5.02,-13248.0,-1920.0,9088.0
5.0225,-13184.0,-1920.0,9088.0
5.025,-13248.0,-1984.0,9152.0
5.0275,-13248.0,-1984.0,9088.0
5.03,-13248.0,-1984.0,9088.0
5.0325,-13248.0,-1984.0,9024.0
5.035,-13312.0,-1984.0,8960.0
5.0375,-13248.0,-1920.0,8960.0
5.04,-13248.0,-1920.0,9024.0
5.0425,-13184.0,-1920.0,8896.0
5.045,-13184.0,-1920.0,8896.0
5.0475,-13184.0,-1984.0,8896.0
5.05,-13248.0,-1920.0,8960.0
5.0525,-13312.0,-1984.0,9024.0
5.055,-13312.0,-1920.0,8960.0
5.0575,-13376.0,-1856.0,8832.0
5.06,-13376.0,-1792.0,8832.0
5.0625,-13312.0,-1792.0,8832.0
5.065,-13312.0,-1856.0,8896.0
5.0675,-13312.0,-1792.0,8832.0
5.07,-13312.0,-1920.0,8832.0
5.0725,-13312.0,-1984.0,8832.0
5.075,-13376.0,-1984.0,8832.0
5.0775,-13376.0,-1984.0,8832.0
5.08,-13440.0,-2048.0,8896.0
5.0825,-13376.0,-2048.0,8896.0
5.085,-13440.0,-2048.0,8832.0
5.0875,-13504.0,-2048.0,8832.0
5.09,-13568.0,-2176.0,8832.0
5.0925,-13568.0,-2112.0,8832.0
5.095,-13632.0,-2176.0,8832.0
5.0975,-13632.0,-2112.0,8896.0
5.1,-13632.0,-2240.0,8896.0
5.1025,-13696.0,-2240.0,8896.0
5.105,-13760.0,-2240.0,8896.0
5.1075,-13824.0,-2240.0,8896.0
5.11,-13824.0,-2240.0,8896.0
5.1125,-13888.0,-2304.0,8960.0
5.115,-13888.0,-2304.0,9024.0
5.1175,-13888.0,-2304.0,9024.0
5.12,-14080.0,-2176.0,9088.0
5.1225,-14016.0,-2240.0,8960.0
5.125,-14016.0,-2304.0,8896.0
5.1275,-14016.0,-2176.0,8896.0
5.13,-14080.0,-2240.0,8960.0
5.1325,-14144.0,-2304.0,8960.0
5.135,-14080.0,-2240.0,9024.0
5.1375,-14080.0,-2240.0,8896.0
5.14,-14080.0,-2240.0,8832.0
5.1425,-14080.0,-2240.0,8896.0
5.145,-14144.0,-2240.0,8896.0
5.1475,-14144.0,-2240.0,8896.0
5.15,-14208.0,-2240.0,8896.0
5.1525,-14144.0,-2304.0,8896.0
5.155,-14208.0,-2304.0,8896.0
5.1575,-14208.0,-2304.0,8768.0
5.16,-14208.0,-2368.0,8768.0
5.1625,-14144.0,-2368.0,8768.0
5.165,-14144.0,-2432.0,8704.0
5.1675,-14144.0,-2432.0,8704.0
5.17,-14144.0,-2368.0,8704.0
5.1725,-14144.0,-2432.0,8576.0
5.175,-14080.0,-2432.0,8640.0
5.1775,-14080.0,-2496.0,8640.0
5.18,-14144.0,-2496.0,8640.0
5.1825,-14080.0,-2496.0,8576.0
5.185,-14080.0,-2560.0,8512.0
5.1875,-14080.0,-2496.0,8448.0
5.19,-14080.0,-2496.0,8448.0
5.1925,-14016.0,-2496.0,8448.0
5.195,-14080.0,-2496.0,8448.0
5.1975,-14080.0,-2496.0,8448.0
5.2,-14016.0,-2496.0,8320.0
5.2025,-14080.0,-2560.0,8384.0
5.205,-14080.0,-2560.0,8384.0
5.2075,-14080.0,-2560.0,8256.0
5.21,-14080.0,-2496.0,8256.0
5.2125,-14080.0,-2496.0,8256.0
5.215,-14208.0,-2560.0,8320.0
5.2175,-14144.0,-2496.0,8320.0
5.22,-14080.0,-2432.0,8320.0
5.2225,-13952.0,-2432.0,8192.0
5.225,-14016.0,-2368.0,8128.0
5.2275,-13952.0,-2368.0,8128.0
5.23,-13952.0,-2368.0,8128.0
5.2325,-13952.0,-2368.0,8128.0
5.235,-14016.0,-2304.0,8192.0
5.2375,-14016.0,-2368.0,8256.0
5.24,-13952.0,-2368.0,8256.0
5.2425,-13952.0,-2304.0,8256.0
5.245,-13888.0,-2304.0,8192.0
5.2475,-13952.0,-2304.0,8128.0
5.25,-13888.0,-2304.0,8064.0
5.2525,-13824.0,-2304.0,8064.0
5.255,-13824.0,-2304.0,8000.0
5.2575,-13824.0,-2304.0,8000.0
5.26,-13760.0,-2304.0,8000.0
5.2625,-13696.0,-2240.0,7936.0
5.265,-13696.0,-2240.0,7872.0
5.2675,-13632.0,-2240.0,7808.0
5.27,-13632.0,-2240.0,7808.0
5.2725,-13632.0,-2240.0,7744.0
5.275,-13568.0,-2240.0,7744.0
5.2775,-13440.0,-2240.0,7680.0
5.28,-13376.0,-2304.0,7680.0
5.2825,-13312.0,-2240.0,7616.0
5.285,-13248.0,-2304.0,7488.0
5.2875,-13184.0,-2304.0,7488.0
5.29,-13184.0,-2304.0,7488.0
5.2925,-13184.0,-2304.0,7488.0
5.295,-13184.0,-2368.0,7424.0
5.2975,-13184.0,-2368.0,7424.0
5.3,-13056.0,-2368.0,7296.0
5.3025,-12992.0,-2368.0,7232.0
5.305,-12992.0,-2432.0,7168.0
5.3075,-12864.0,-2496.0,7168.0
5.31,-12864.0,-2496.0,7296.0
5.3125,-12864.0,-2496.0,7232.0
5.315,-12864.0,-2560.0,7168.0
5.3175,-12864.0,-2496.0,7168.0
5.32,-12864.0,-2496.0,7168.0
5.3225,-12864.0,-2496.0,7232.0
5.325,-12736.0,-2368.0,7296.0
5.3275,-12672.0,-2368.0,7168.0
5.33,-12672.0,-2368.0,7168.0
5.3325,-12672.0,-2304.0,7232.0
5.335,-12608.0,-2304.0,7232.0
5.3375,-12608.0,-2240.0,7232.0
5.34,-12608.0,-2240.0,7232.0
5.3425,-12608.0,-2240.0,7168.0
5.345,-12544.0,-2240.0,7168.0
5.3475,-12544.0,-2176.0,7168.0
5.35,-12544.0,-2112.0,7168.0
5.3525,-12608.0,-2048.0,7168.0
5.355,-12608.0,-2048.0,7168.0
5.3575,-12544.0,-1984.0,7168.0
5.36,-12544.0,-1792.0,7168.0
5.3625,-12544.0,-1664.0,7232.0
5.365,-12480.0,-1536.0,7232.0
5.3675,-12544.0,-1536.0,7168.0
5.37,-12544.0,-1472.0,7168.0
5.3725,-12544.0,-1472.0,7040.0
5.375,-12480.0,-1472.0,6912.0
5.3775,-12480.0,-1472.0,6848.0
5.38,-12544.0,-1536.0,6848.0
5.3825,-12480.0,-1536.0,6912.0
5.385,-12544.0,-1536.0,6784.0
5.3875,-12608.0,-1536.0,6656.0
5.39,-12608.0,-1600.0,6720.0
5.3925,-12608.0,-1600.0,6720.0
5.395,-12544.0,-1664.0,6720.0
5.3975,-12544.0,-1664.0,6720.0
5.4,-12608.0,-1728.0,6848.0
5.4025,-12608.0,-1792.0,6848.0
5.405,-12736.0,-1792.0,6912.0
5.4075,-12800.0,-1792.0,7040.0
5.41,-12800.0,-1856.0,6976.0
5.4125,-12800.0,-1856.0,7104.0
5.415,-12864.0,-1856.0,7104.0
5.4175,-12928.0,-1856.0,7168.0
5.42,-12992.0,-1856.0,7232.0
5.4225,-12992.0,-1856.0,7296.0
5.425,-13056.0,-1856.0,7424.0
5.4275,-13120.0,-1728.0,7424.0
5.43,-13184.0,-1728.0,7424.0
5.4325,-13184.0,-1792.0,7488.0
5.435,-13248.0,-1792.0,7552.0
5.4375,-13376.0,-1856.0,7552.0
5.44,-13632.0,-1984.0,7616.0
5.4425,-13760.0,-2048.0,7552.0
5.445,-13824.0,-2048.0,7488.0
5.4475,-13952.0,-2112.0,7488.0
5.45,-14080.0,-2176.0,7488.0
5.4525,-14144.0,-2176.0,7616.0
5.455,-14208.0,-2176.0,7488.0
5.4575,-14208.0,-2112.0,7552.0
5.46,-14272.0,-2240.0,7616.0
5.4625,-14272.0,-2304.0,7488.0
5.465,-14272.0,-2368.0,7488.0
5.4675,-14272.0,-2368.0,7488.0
5.47,-14272.0,-2432.0,7680.0
5.4725,-14272.0,-2496.0,7680.0
5.475,-14272.0,-2560.0,7744.0
5.4775,-14208.0,-2560.0,7680.0
5.48,-14272.0,-2560.0,7744.0
5.4825,-14208.0,-2624.0,7744.0
5.485,-14144.0,-2688.0,7808.0
5.4875,-14080.0,-2624.0,7872.0
5.49,-14016.0,-2624.0,7872.0
5.4925,-13952.0,-2624.0,7936.0
5.495,-13888.0,-2624.0,8000.0
5.4975,-13760.0,-2624.0,8000.0
5.5,-13760.0,-2560.0,8064.0
5.5025,-13696.0,-2560.0,8128.0
5.505,-13632.0,-2496.0,8128.0
5.5075,-13568.0,-2560.0,8064.0
5.51,-13504.0,-2496.0,8128.0
5.5125,-13440.0,-2496.0,8192.0
5.515,-13440.0,-2432.0,8128.0
5.5175,-13376.0,-2432.0,8128.0
5.52,-13312.0,-2432.0,8256.0
5.5225,-13184.0,-2368.0,8128.0
5.525,-13120.0,-2368.0,8128.0
5.5275,-13120.0,-2368.0,8128.0
5.53,-13056.0,-2304.0,8064.0
5.5325,-13056.0,-2368.0,8128.0
5.535,-13056.0,-2368.0,8128.0
5.5375,-12992.0,-2304.0,8128.0
5.54,-12928.0,-2304.0,8064.0
5.5425,-12992.0,-2304.0,8128.0
5.545,-13056.0,-2304.0,8128.0
5.5475,-12928.0,-2240.0,8064.0
5.55,-13056.0,-2304.0,8128.0
5.5525,-13056.0,-2304.0,8192.0
5.555,-13056.0,-2304.0,8192.0
5.5575,-13056.0,-2304.0,8192.0
5.56,-13056.0,-2304.0,8192.0
5.5625,-13056.0,-2368.0,8192.0
5.565,-13056.0,-2304.0,8128.0
5.5675,-12992.0,-2240.0,8128.0
5.57,-12992.0,-2304.0,8128.0
5.5725,-13056.0,-2304.0,8128.0
5.575,-13056.0,-2304.0,8192.0
5.5775,-13056.0,-2304.0,8128.0
5.58,-13056.0,-2304.0,8128.0
5.5825,-13056.0,-2304.0,8128.0
5.585,-12992.0,-2368.0,8128.0
5.5875,-13056.0,-2368.0,8128.0
5.59,-13056.0,-2368.0,8128.0
5.5925,-13056.0,-2304.0,8128.0
5.595,-13056.0,-2304.0,8064.0
5.5975,-13056.0,-2304.0,8064.0
5.6,-13056.0,-2304.0,8000.0
5.6025,-13056.0,-2240.0,8064.0
5.605,-13120.0,-2368.0,8128.0
5.6075,-13184.0,-2368.0,8192.0
5.61,-13184.0,-2368.0,8128.0
5.6125,-13120.0,-2368.0,8128.0
5.615,-13184.0,-2432.0,8128.0
5.6175,-13184.0,-2560.0,8128.0
5.62,-13248.0,-2560.0,8192.0
5.6225,-13248.0,-2496.0,8192.0
5.625,-13184.0,-2432.0,8128.0
5.6275,-13184.0,-2368.0,8128.0
5.63,-13184.0,-2368.0,8128.0
5.6325,-13184.0,-2368.0,8192.0
5.635,-13184.0,-2368.0,8192.0
5.6375,-13312.0,-2304.0,8256.0
5.64,-13248.0,-2368.0,8256.0
5.6425,-13248.0,-2368.0,8320.0
5.645,-13312.0,-2432.0,8320.0
5.6475,-13376.0,-2432.0,8448.0
5.65,-13376.0,-2496.0,8384.0
5.6525,-13376.0,-2496.0,8448.0
5.655,-13376.0,-2560.0,8448.0
5.6575,-13440.0,-2560.0,8448.0
5.66,-13504.0,-2560.0,8512.0
5.6625,-13440.0,-2560.0,8576.0
5.665,-13504.0,-2560.0,8640.0
5.6675,-13504.0,-2496.0,8576.0
5.67,-13504.0,-2496.0,8512.0
5.6725,-13504.0,-2496.0,8576.0
5.675,-13568.0,-2496.0,8576.0
5.6775,-13568.0,-2496.0,8640.0
5.68,-13568.0,-2496.0,8576.0
5.6825,-13632.0,-2624.0,8640.0
5.685,-13632.0,-2624.0,8640.0
5.6875,-13696.0,-2688.0,8704.0
5.69,-13696.0,-2624.0,8640.0
5.6925,-13632.0,-2624.0,8640.0
5.695,-13632.0,-2688.0,8640.0
5.6975,-13632.0,-2624.0,8640.0
5.7,-13632.0,-2688.0,8768.0
5.7025,-13632.0,-2752.0,8704.0
5.705,-13568.0,-2752.0,8704.0
5.7075,-13568.0,-2816.0,8704.0
5.71,-13568.0,-2752.0,8640.0
5.7125,-13504.0,-2816.0,8640.0
5.715,-13504.0,-2816.0,8640.0
5.7175,-13440.0,-2816.0,8576.0
5.72,-13376.0,-2816.0,8640.0
5.7225,-13376.0,-2880.0,8640.0
5.725,-13376.0,-2880.0,8576.0
5.7275,-13376.0,-2944.0,8576.0
5.73,-13376.0,-2944.0,8704.0
5.7325,-13376.0,-2944.0,8704.0
5.735,-13312.0,-3008.0,8640.0
5.7375,-13376.0,-2944.0,8704.0
5.74,-13376.0,-2944.0,8704.0
5.7425,-13376.0,-2944.0,8768.0
5.745,-13312.0,-2880.0,8832.0
5.7475,-13312.0,-2944.0,8832.0
5.75,-13312.0,-3008.0,8832.0
5.7525,-13376.0,-3072.0,8896.0
5.755,-13376.0,-3072.0,8896.0
5.7575,-13440.0,-3136.0,8896.0
5.76,-13504.0,-3264.0,8960.0
5.7625,-13440.0,-3200.0,8896.0
5.765,-13440.0,-3200.0,8832.0
5.7675,-13376.0,-3072.0,8768.0
5.77,-13440.0,-3072.0,8832.0
5.7725,-13440.0,-3072.0,8768.0
5.775,-13504.0,-3008.0,8832.0
5.7775,-13504.0,-3072.0,8832.0
5.78,-13440.0,-3072.0,8896.0
5.7825,-13376.0,-3072.0,8704.0
5.785,-13504.0,-3072.0,8768.0
5.7875,-13504.0,-3136.0,8768.0
5.79,-13504.0,-3136.0,8896.0
5.7925,-13504.0,-3136.0,8896.0
5.795,-13504.0,-3136.0,8896.0
5.7975,-13504.0,-3200.0,8896.0
5.8,-13504.0,-3136.0,8896.0
5.8025,-13504.0,-3200.0,8768.0
5.805,-13440.0,-3200.0,8768.0
5.8075,-13376.0,-3136.0,8832.0
5.81,-13376.0,-3136.0,8768.0
5.8125,-13376.0,-3136.0,8768.0
5.815,-13312.0,-3200.0,8768.0
5.8175,-13376.0,-3264.0,8768.0
5.82,-13376.0,-3328.0,8704.0
5.8225,-13376.0,-3264.0,8704.0
5.825,-13376.0,-3264.0,8704.0
5.8275,-13312.0,-3264.0,8704.0
5.83,-13312.0,-3264.0,8768.0
5.8325,-13312.0,-3264.0,8704.0
5.835,-13376.0,-3264.0,8768.0
5.8375,-13376.0,-3200.0,8704.0
5.84,-13376.0,-3264.0,8832.0
5.8425,-13312.0,-3200.0,8768.0
5.845,-13248.0,-3136.0,8704.0
5.8475,-13248.0,-3136.0,8768.0
5.85,-13248.0,-3136.0,8704.0
5.8525,-13248.0,-3072.0,8768.0
5.855,-13184.0,-3136.0,8768.0
5.8575,-13312.0,-3200.0,8832.0
5.86,-13376.0,-3136.0,8832.0
5.8625,-13376.0,-3200.0,8896.0
5.865,-13376.0,-3136.0,8768.0
5.8675,-13376.0,-3136.0,8896.0
5.87,-13312.0,-3008.0,8832.0
5.8725,-13376.0,-3008.0,8896.0
5.875,-13376.0,-3008.0,8896.0
5.8775,-13376.0,-3008.0,8832.0
5.88,-13312.0,-3072.0,8832.0
5.8825,-13312.0,-3072.0,8896.0
5.885,-13440.0,-3136.0,8896.0
5.8875,-13440.0,-3136.0,8960.0
5.89,-13504.0,-3136.0,8960.0
5.8925,-13504.0,-3264.0,8960.0
5.895,-13504.0,-3264.0,8960.0
5.8975,-13568.0,-3200.0,8960.0
5.9,-13568.0,-3136.0,8896.0
5.9025,-13632.0,-3136.0,8896.0
5.905,-13632.0,-3200.0,8896.0
5.9075,-13632.0,-3200.0,8896.0
5.91,-13696.0,-3264.0,8832.0
5.9125,-13696.0,-3200.0,8832.0
5.915,-13696.0,-3200.0,8768.0
5.9175,-13696.0,-3200.0,8704.0
5.92,-13632.0,-3328.0,8640.0
5.9225,-13696.0,-3328.0,8704.0
5.925,-13696.0,-3392.0,8768.0
5.9275,-13760.0,-3456.0,8832.0
5.93,-13696.0,-3328.0,8704.0
5.9325,-13632.0,-3264.0,8704.0
5.935,-13568.0,-3264.0,8704.0
5.9375,-13568.0,-3200.0,8768.0
5.94,-13568.0,-3200.0,8768.0
5.9425,-13440.0,-3200.0,8768.0
5.945,-13376.0,-3072.0,8640.0
5.9475,-13376.0,-3072.0,8640.0
5.95,-13376.0,-3136.0,8640.0
5.9525,-13376.0,-3136.0,8640.0
5.955,-13312.0,-3136.0,8704.0
5.9575,-13312.0,-3136.0,8640.0
5.96,-13312.0,-3072.0,8640.0
5.9625,-13312.0,-3072.0,8640.0
5.965,-13312.0,-3072.0,8704.0
5.9675,-13376.0,-3136.0,8640.0
5.97,-13376.0,-3136.0,8704.0
5.9725,-13376.0,-3072.0,8704.0
5.975,-13376.0,-3072.0,8704.0
5.9775,-13376.0,-3008.0,8704.0
5.98,-13440.0,-3072.0,8640.0
5.9825,-13440.0,-3008.0,8704.0
5.985,-13440.0,-3008.0,8704.0
5.9875,-13440.0,-3072.0,8704.0
5.99,-13376.0,-3072.0,8704.0
5.9925,-13376.0,-3072.0,8704.0
5.995,-13440.0,-3008.0,8640.0
5.9975,-13376.0,-3008.0,8640.0
6.0,-13440.0,-3072.0,8576.0
6.0025,-13440.0,-3008.0,8576.0
6.005,-13312.0,-3008.0,8448.0
6.0075,-13376.0,-3008.0,8448.0
6.01,-13376.0,-3072.0,8576.0
6.0125,-13440.0,-3008.0,8640.0
6.015,-13440.0,-3072.0,8640.0
6.0175,-13504.0,-3072.0,8704.0
6.02,-13504.0,-3072.0,8640.0
6.0225,-13504.0,-3008.0,8640.0
6.025,-13568.0,-3008.0,8640.0
6.0275,-13504.0,-3072.0,8640.0
6.03,-13568.0,-3136.0,8640.0
6.0325,-13568.0,-3008.0,8640.0
6.035,-13568.0,-3008.0,8704.0
6.0375,-13504.0,-3072.0,8704.0
6.04,-13568.0,-3072.0,8704.0
6.0425,-13568.0,-3008.0,8704.0
6.045,-13504.0,-3008.0,8704.0
6.0475,-13568.0,-3008.0,8640.0
6.05,-13568.0,-3008.0,8704.0
6.0525,-13568.0,-3008.0,8704.0
6.055,-13504.0,-3008.0,8640.0
6.0575,-13568.0,-3008.0,8704.0
6.06,-13568.0,-2944.0,8640.0
6.0625,-13568.0,-3008.0,8704.0
6.065,-13568.0,-3008.0,8640.0
6.0675,-13568.0,-3008.0,8640.0
6.07,-13568.0,-3072.0,8576.0
6.0725,-13568.0,-3072.0,8576.0
6.075,-13568.0,-3136.0,8704.0
6.0775,-13568.0,-3072.0,8640.0
6.08,-13632.0,-3072.0,8768.0
6.0825,-13632.0,-3072.0,8640.0
6.085,-13504.0,-3072.0,8512.0
6.0875,-13504.0,-3072.0,8640.0
6.09,-13568.0,-3072.0,8640.0
6.0925,-13568.0,-3072.0,8704.0
6.095,-13568.0,-3008.0,8704.0
6.0975,-13504.0,-3008.0,8512.0
6.1,-13632.0,-3008.0,8704.0
6.1025,-13696.0,-3072.0,8704.0
6.105,-13696.0,-3072.0,8640.0
6.1075,-13632.0,-2944.0,8576.0
6.11,-13568.0,-3072.0,8640.0
6.1125,-13632.0,-3008.0,8640.0
6.115,-13632.0,-3072.0,8768.0
6.1175,-13632.0,-3008.0,8704.0
6.12,-13632.0,-3072.0,8704.0
6.1225,-13696.0,-3136.0,8704.0
6.125,-13696.0,-3136.0,8640.0
6.1275,-13760.0,-3136.0,8576.0
6.13,-13760.0,-3200.0,8576.0
6.1325,-13760.0,-3200.0,8576.0
6.135,-13760.0,-3200.0,8640.0
6.1375,-13760.0,-3200.0,8640.0
6.14,-13760.0,-3136.0,8640.0
6.1425,-13760.0,-3136.0,8640.0
6.145,-13824.0,-3072.0,8704.0
6.1475,-13824.0,-3072.0,8704.0
6.15,-13824.0,-3136.0,8704.0
6.1525,-13824.0,-3136.0,8704.0
6.155,-13824.0,-3136.0,8704.0
6.1575,-13824.0,-3136.0,8704.0
6.16,-13888.0,-3136.0,8576.0
6.1625,-13888.0,-3264.0,8640.0
6.165,-13952.0,-3264.0,8768.0
6.1675,-13888.0,-3328.0,8704.0
6.17,-13824.0,-3328.0,8640.0
6.1725,-13760.0,-3264.0,8576.0
6.175,-13824.0,-3264.0,8640.0
6.1775,-13888.0,-3328.0,8704.0
6.18,-13824.0,-3200.0,8576.0
6.1825,-13824.0,-3200.0,8576.0
6.185,-13888.0,-3264.0,8512.0
6.1875,-13888.0,-3136.0,8512.0
6.19,-13888.0,-3136.0,8576.0
6.1925,-13888.0,-3200.0,8512.0
6.195,-13888.0,-3136.0,8512.0
6.1975,-13888.0,-3136.0,8512.0
6.2,-13888.0,-3072.0,8576.0
6.2025,-13888.0,-3072.0,8576.0
6.205,-13888.0,-3072.0,8640.0
6.2075,-13888.0,-3008.0,8640.0
6.21,-13888.0,-2944.0,8640.0
6.2125,-13760.0,-2944.0,8640.0
6.215,-13760.0,-2880.0,8704.0
6.2175,-13760.0,-2880.0,8704.0
6.22,-13760.0,-2944.0,8704.0
6.2225,-13760.0,-2944.0,8640.0
6.225,-13696.0,-2944.0,8704.0
6.2275,-13696.0,-2880.0,8768.0
6.23,-13696.0,-2816.0,8768.0
6.2325,-13632.0,-2752.0,8768.0
6.235,-13632.0,-2752.0,8768.0
6.2375,-13696.0,-2752.0,8768.0
6.24,-13696.0,-2816.0,8832.0
6.2425,-13696.0,-2688.0,8832.0
6.245,-13568.0,-2688.0,8768.0
6.2475,-13568.0,-2688.0,8832.0
6.25,-13568.0,-2752.0,8896.0
6.2525,-13632.0,-2752.0,8960.0
6.255,-13632.0,-2752.0,9024.0
6.2575,-13632.0,-2752.0,8960.0
6.26,-13504.0,-2752.0,8896.0
6.2625,-13632.0,-2752.0,8960.0
6.265,-13632.0,-2752.0,8960.0
6.2675,-13632.0,-2752.0,8832.0
6.27,-13632.0,-2752.0,8896.0
6.2725,-13696.0,-2816.0,8832.0
6.275,-13696.0,-2816.0,8896.0
6.2775,-13760.0,-2816.0,8960.0
6.28,-13824.0,-2880.0,8960.0
6.2825,-13760.0,-2880.0,8960.0
6.285,-13824.0,-2880.0,8896.0
6.2875,-13824.0,-2944.0,8896.0
6.29,-13824.0,-2944.0,8896.0
6.2925,-13952.0,-2944.0,8896.0
6.295,-13952.0,-2880.0,8896.0
6.2975,-13952.0,-2880.0,8896.0
6.3,-13888.0,-2880.0,8896.0
6.3025,-13888.0,-2880.0,8896.0
6.305,-13888.0,-2880.0,8832.0
6.3075,-13824.0,-2944.0,8768.0
6.31,-13888.0,-2944.0,8704.0
6.3125,-13888.0,-3008.0,8768.0
6.315,-13824.0,-3008.0,8768.0
6.3175,-13888.0,-3072.0,8768.0
6.32,-13888.0,-3008.0,8768.0
6.3225,-13824.0,-3008.0,8704.0
6.325,-13760.0,-2944.0,8576.0
6.3275,-13760.0,-3072.0,8640.0
6.33,-13824.0,-3136.0,8640.0
6.3325,-13824.0,-3136.0,8640.0
6.335,-13824.0,-3072.0,8576.0
6.3375,-13760.0,-3136.0,8576.0
6.34,-13760.0,-3072.0,8576.0
6.3425,-13760.0,-3136.0,8640.0
6.345,-13760.0,-3136.0,8640.0
6.3475,-13760.0,-3072.0,8576.0
6.35,-13696.0,-3072.0,8576.0
6.3525,-13632.0,-3008.0,8640.0
6.355,-13696.0,-3008.0,8640.0
6.3575,-13632.0,-2944.0,8640.0
6.36,-13696.0,-2880.0,8704.0
6.3625,-13696.0,-2880.0,8768.0
6.365,-13632.0,-2880.0,8768.0
6.3675,-13632.0,-2880.0,8832.0
6.37,-13632.0,-2880.0,8896.0
6.3725,-13632.0,-2880.0,8896.0
6.375,-13632.0,-2880.0,8896.0
6.3775,-13632.0,-2944.0,8896.0
6.38,-13632.0,-2944.0,8896.0
6.3825,-13632.0,-2816.0,8832.0
6.385,-13568.0,-2816.0,8896.0
6.3875,-13568.0,-2880.0,8896.0
6.39,-13632.0,-2880.0,8832.0
6.3925,-13568.0,-2880.0,8896.0
6.395,-13568.0,-2880.0,8896.0
6.3975,-13568.0,-2880.0,8896.0
6.4,-13568.0,-2944.0,8896.0
6.4025,-13504.0,-2944.0,8960.0
6.405,-13504.0,-3008.0,8832.0
6.4075,-13504.0,-3008.0,8704.0
6.41,-13504.0,-3008.0,8768.0
6.4125,-13504.0,-3008.0,8768.0
6.415,-13440.0,-3072.0,8704.0
6.4175,-13440.0,-3008.0,8704.0
6.42,-13440.0,-3008.0,8704.0
6.4225,-13440.0,-3008.0,8704.0
6.425,-13440.0,-2944.0,8768.0
6.4275,-13440.0,-3008.0,8896.0
6.43,-13376.0,-2944.0,8832.0
6.4325,-13376.0,-2944.0,8768.0
6.435,-13376.0,-3008.0,8768.0
6.4375,-13376.0,-3008.0,8768.0
6.44,-13312.0,-3008.0,8768.0
6.4425,-13312.0,-3008.0,8768.0
6.445,-13312.0,-3008.0,8832.0
6.4475,-13312.0,-3008.0,8896.0
6.45,-13376.0,-3008.0,8896.0
6.4525,-13312.0,-3008.0,8960.0
6.455,-13312.0,-3072.0,8960.0
6.4575,-13312.0,-3008.0,9024.0
6.46,-13376.0,-3008.0,8960.0
6.4625,-13440.0,-2880.0,8960.0
6.465,-13376.0,-2880.0,8896.0
6.4675,-13440.0,-2880.0,8960.0
6.47,-13312.0,-2880.0,8896.0
6.4725,-13376.0,-2880.0,8832.0
6.475,-13376.0,-2880.0,8832.0
6.4775,-13376.0,-2944.0,8832.0
6.48,-13440.0,-2944.0,9024.0
6.4825,-13440.0,-3008.0,8896.0
6.485,-13376.0,-3008.0,8768.0
6.4875,-13504.0,-3072.0,8896.0
6.49,-13504.0,-3136.0,9024.0
6.4925,-13504.0,-3136.0,9024.0
6.495,-13504.0,-3136.0,8896.0
6.4975,-13568.0,-3200.0,8960.0
6.5,-13568.0,-3136.0,9088.0
6.5025,-13632.0,-3200.0,9152.0
6.505,-13568.0,-3136.0,8960.0
6.5075,-13568.0,-3136.0,9088.0
6.51,-13504.0,-3136.0,9024.0
6.5125,-13568.0,-3136.0,8960.0
6.515,-13568.0,-3136.0,9024.0
6.5175,-13568.0,-3136.0,8960.0
6.52,-13568.0,-3200.0,8960.0
6.5225,-13568.0,-3200.0,8960.0
6.525,-13504.0,-3200.0,8960.0
6.5275,-13632.0,-3136.0,8896.0
6.53,-13568.0,-3136.0,8960.0
6.5325,-13568.0,-3072.0,8960.0
6.535,-13632.0,-3072.0,8960.0
6.5375,-13568.0,-3072.0,8960.0
6.54,-13504.0,-3072.0,8896.0
6.5425,-13568.0,-3072.0,8896.0
6.545,-13568.0,-3136.0,8896.0
6.5475,-13504.0,-3072.0,8896.0
6.55,-13568.0,-3072.0,8896.0
6.5525,-13504.0,-3072.0,8896.0
6.555,-13568.0,-3072.0,8896.0
6.5575,-13568.0,-3072.0,8896.0
6.56,-13504.0,-3136.0,8960.0
6.5625,-13504.0,-3136.0,8832.0
6.565,-13504.0,-3072.0,8832.0
6.5675,-13504.0,-3136.0,8832.0
6.57,-13504.0,-3072.0,8832.0
6.5725,-13440.0,-3072.0,8768.0
6.575,-13376.0,-3072.0,8896.0
6.5775,-13440.0,-3008.0,8960.0
6.58,-13376.0,-2944.0,8832.0
6.5825,-13248.0,-2880.0,8832.0
6.585,-13312.0,-2816.0,8768.0
6.5875,-13376.0,-2880.0,8768.0
6.59,-13376.0,-2880.0,8832.0
6.5925,-13376.0,-2944.0,8832.0
6.595,-13376.0,-2944.0,8832.0
6.5975,-13248.0,-2880.0,8896.0
6.6,-13248.0,-2816.0,8832.0
6.6025,-13184.0,-2816.0,8768.0
6.605,-13248.0,-2816.0,8832.0
6.6075,-13248.0,-2752.0,8768.0
6.61,-13184.0,-2816.0,8832.0
6.6125,-13248.0,-2752.0,8832.0
6.615,-13184.0,-2688.0,8896.0
6.6175,-13248.0,-2624.0,8832.0
6.62,-13248.0,-2624.0,8896.0
6.6225,-13248.0,-2624.0,8832.0
6.625,-13248.0,-2624.0,8896.0
6.6275,-13248.0,-2624.0,8896.0
6.63,-13312.0,-2624.0,8768.0
6.6325,-13248.0,-2752.0,8832.0
6.635,-13248.0,-2688.0,8768.0
6.6375,-13312.0,-2624.0,8704.0
6.64,-13312.0,-2624.0,8768.0
6.6425,-13312.0,-2560.0,8832.0
6.645,-13312.0,-2496.0,8832.0
6.6475,-13184.0,-2496.0,8832.0
6.65,-13120.0,-2496.0,8768.0
6.6525,-13184.0,-2560.0,8832.0
6.655,-13248.0,-2624.0,8896.0
6.6575,-13248.0,-2624.0,8896.0
6.66,-13248.0,-2624.0,8832.0
6.6625,-13184.0,-2688.0,8832.0
6.665,-13312.0,-2816.0,8896.0
6.6675,-13312.0,-2752.0,8896.0
6.67,-13312.0,-2688.0,8960.0
6.6725,-13248.0,-2752.0,8896.0
6.675,-13248.0,-2752.0,8960.0
6.6775,-13248.0,-2688.0,8896.0
6.68,-13184.0,-2688.0,8896.0
6.6825,-13120.0,-2688.0,8832.0
6.685,-13184.0,-2688.0,8896.0
6.6875,-13184.0,-2688.0,8960.0
6.69,-13120.0,-2688.0,8960.0
6.6925,-13120.0,-2688.0,8896.0
6.695,-13120.0,-2624.0,8896.0
6.6975,-13056.0,-2624.0,8896.0
6.7,-13056.0,-2624.0,8832.0
6.7025,-13056.0,-2688.0,8832.0
6.705,-13120.0,-2624.0,8832.0
6.7075,-13120.0,-2688.0,8768.0
6.71,-13184.0,-2688.0,8768.0
6.7125,-13120.0,-2688.0,8768.0
6.715,-13120.0,-2688.0,8704.0
6.7175,-13056.0,-2624.0,8768.0
6.72,-13120.0,-2688.0,8768.0
6.7225,-13056.0,-2688.0,8768.0
6.725,-12992.0,-2688.0,8576.0
6.7275,-13056.0,-2688.0,8704.0
6.73,-13120.0,-2688.0,8832.0
6.7325,-13120.0,-2688.0,8832.0
6.735,-13056.0,-2688.0,8832.0
6.7375,-13056.0,-2752.0,8768.0
6.74,-13056.0,-2752.0,8832.0
6.7425,-13120.0,-2816.0,8832.0
6.745,-13056.0,-2752.0,8768.0
6.7475,-13120.0,-2816.0,8768.0
6.75,-13056.0,-2816.0,8704.0
6.7525,-13056.0,-2816.0,8768.0
6.755,-13056.0,-2816.0,8704.0
6.7575,-13056.0,-2944.0,8704.0
6.76,-13120.0,-2816.0,8768.0
6.7625,-13120.0,-2880.0,8704.0
6.765,-13120.0,-2816.0,8704.0
6.7675,-13056.0,-2816.0,8704.0
6.77,-12992.0,-2880.0,8640.0
6.7725,-12992.0,-2816.0,8576.0
6.775,-13056.0,-2816.0,8576.0
6.7775,-12992.0,-2816.0,8640.0
6.78,-12928.0,-2816.0,8512.0
6.7825,-12992.0,-2816.0,8512.0
6.785,-12992.0,-2752.0,8576.0
6.7875,-12992.0,-2752.0,8576.0
6.79,-12928.0,-2752.0,8576.0
6.7925,-12928.0,-2688.0,8576.0
6.795,-12864.0,-2624.0,8576.0
6.7975,-12800.0,-2624.0,8576.0
6.8,-12736.0,-2688.0,8576.0
6.8025,-12608.0,-2624.0,8512.0
6.805,-12544.0,-2624.0,8448.0
6.8075,-12544.0,-2624.0,8384.0
6.81,-12480.0,-2560.0,8384.0
6.8125,-12416.0,-2496.0,8320.0
6.815,-12352.0,-2560.0,8384.0
6.8175,-12352.0,-2496.0,8576.0
6.82,-12224.0,-2560.0,8512.0
6.8225,-12160.0,-2496.0,8384.0
6.825,-12160.0,-2496.0,8384.0
6.8275,-12096.0,-2496.0,8384.0
6.83,-12032.0,-2496.0,8384.0
6.8325,-11968.0,-2432.0,8448.0
6.835,-11968.0,-2368.0,8512.0
6.8375,-11968.0,-2368.0,8512.0
6.84,-11968.0,-2304.0,8448.0
6.8425,-11904.0,-2240.0,8512.0
6.845,-11968.0,-2240.0,8512.0
6.8475,-11968.0,-2176.0,8512.0
6.85,-11968.0,-2176.0,8448.0
6.8525,-11968.0,-2176.0,8448.0
6.855,-12032.0,-2112.0,8512.0
6.8575,-12096.0,-2112.0,8576.0
6.86,-12096.0,-2176.0,8576.0
6.8625,-12224.0,-2176.0,8576.0
6.865,-12224.0,-2112.0,8576.0
6.8675,-12352.0,-2176.0,8576.0
6.87,-12416.0,-2176.0,8576.0
6.8725,-12480.0,-2176.0,8640.0
6.875,-12480.0,-2176.0,8640.0
6.8775,-12608.0,-2176.0,8640.0
6.88,-12672.0,-2240.0,8576.0
6.8825,-12736.0,-2304.0,8576.0
6.885,-12736.0,-2368.0,8704.0
6.8875,-12672.0,-2368.0,8640.0
6.89,-12608.0,-2368.0,8512.0
6.8925,-12608.0,-2368.0,8704.0
6.895,-12672.0,-2432.0,8640.0
6.8975,-12608.0,-2496.0,8704.0
6.9,-12544.0,-2432.0,8704.0
6.9025,-12480.0,-2496.0,8640.0
6.905,-12480.0,-2496.0,8640.0
6.9075,-12416.0,-2560.0,8576.0
6.91,-12416.0,-2560.0,8512.0
6.9125,-12416.0,-2560.0,8512.0
6.915,-12480.0,-2560.0,8448.0
6.9175,-12416.0,-2624.0,8448.0
6.92,-12416.0,-2624.0,8384.0
6.9225,-12416.0,-2624.0,8320.0
6.925,-12416.0,-2560.0,8320.0
6.9275,-12416.0,-2560.0,8256.0
6.93,-12416.0,-2624.0,8320.0
6.9325,-12416.0,-2624.0,8256.0
6.935,-12416.0,-2560.0,8256.0
6.9375,-12480.0,-2496.0,8256.0
6.94,-12544.0,-2624.0,8256.0
6.9425,-12544.0,-2624.0,8256.0
6.945,-12608.0,-2624.0,8256.0
6.9475,-12672.0,-2688.0,8256.0
6.95,-12736.0,-2688.0,8256.0
6.9525,-12800.0,-2688.0,8256.0
6.955,-12864.0,-2688.0,8256.0
6.9575,-12864.0,-2752.0,8256.0
6.96,-12864.0,-2752.0,8256.0
6.9625,-12928.0,-2688.0,8256.0
6.965,-12992.0,-2688.0,8320.0
6.9675,-12928.0,-2688.0,8320.0
6.97,-12928.0,-2752.0,8192.0
6.9725,-12928.0,-2752.0,8256.0
6.975,-12864.0,-2816.0,8320.0
6.9775,-12864.0,-2688.0,8256.0
6.98,-12736.0,-2560.0,8128.0
6.9825,-12672.0,-2560.0,8192.0
6.985,-12672.0,-2560.0,8192.0
6.9875,-12608.0,-2560.0,8256.0
6.99,-12544.0,-2560.0,8192.0
6.9925,-12480.0,-2624.0,8128.0
6.995,-12416.0,-2560.0,8128.0
6.9975,-12352.0,-2496.0,8128.0
7.0,-12352.0,-2560.0,8064.0
7.0025,-12352.0,-2560.0,8128.0
7.005,-12288.0,-2560.0,8128.0
7.0075,-12224.0,-2624.0,8064.0
7.01,-12224.0,-2560.0,8000.0
7.0125,-12224.0,-2560.0,8000.0
7.015,-12160.0,-2560.0,8000.0
7.0175,-12160.0,-2560.0,8064.0
7.02,-12096.0,-2496.0,8064.0
7.0225,-12160.0,-2432.0,8064.0
7.025,-12096.0,-2368.0,8128.0
7.0275,-12096.0,-2304.0,8128.0
7.03,-12096.0,-2304.0,8192.0
7.0325,-12032.0,-2304.0,8256.0
7.035,-12032.0,-2368.0,8192.0
7.0375,-11968.0,-2368.0,8128.0
7.04,-11904.0,-2304.0,8192.0
7.0425,-11776.0,-2368.0,8192.0
7.045,-11712.0,-2304.0,8256.0
7.0475,-11776.0,-2304.0,8192.0
7.05,-11712.0,-2240.0,8256.0
7.0525,-11648.0,-2176.0,8256.0
7.055,-11584.0,-2176.0,8256.0
7.0575,-11520.0,-2176.0,8128.0
7.06,-11520.0,-2176.0,8064.0
7.0625,-11456.0,-2176.0,8256.0
7.065,-11392.0,-2048.0,8192.0
7.0675,-11328.0,-2048.0,8128.0
7.07,-11328.0,-2048.0,8064.0
7.0725,-11264.0,-2048.0,8064.0
7.075,-11200.0,-1984.0,8000.0
7.0775,-11200.0,-1984.0,8000.0
7.08,-11200.0,-1920.0,8000.0
7.0825,-11200.0,-1984.0,8000.0
7.085,-11200.0,-1984.0,8064.0
7.0875,-11200.0,-1856.0,8064.0
7.09,-11200.0,-1920.0,8128.0
7.0925,-11264.0,-1856.0,8192.0
7.095,-11392.0,-1856.0,8256.0
7.0975,-11392.0,-1792.0,8320.0
7.1,-11520.0,-1856.0,8320.0
7.1025,-11520.0,-1792.0,8384.0
7.105,-11584.0,-1792.0,8384.0
7.1075,-11584.0,-1728.0,8448.0
7.11,-11648.0,-1856.0,8448.0
7.1125,-11712.0,-1856.0,8384.0
7.115,-11712.0,-1920.0,8512.0
7.1175,-11776.0,-1984.0,8512.0
7.12,-11904.0,-2048.0,8512.0
7.1225,-11904.0,-2048.0,8512.0
7.125,-12032.0,-2048.0,8512.0
7.1275,-12096.0,-2112.0,8512.0
7.13,-12288.0,-2112.0,8576.0
7.1325,-12352.0,-2112.0,8576.0
7.135,-12544.0,-2112.0,8576.0
7.1375,-12736.0,-2048.0,8704.0
7.14,-12864.0,-2048.0,8768.0
7.1425,-12928.0,-2048.0,8768.0
7.145,-13056.0,-2048.0,8768.0
7.1475,-13120.0,-1984.0,8896.0
7.15,-13120.0,-1920.0,9024.0
7.1525,-13248.0,-1856.0,9024.0
7.155,-13248.0,-1856.0,9024.0
7.1575,-13312.0,-1920.0,9088.0
7.16,-13376.0,-1984.0,9088.0
7.1625,-13440.0,-1920.0,9152.0
7.165,-13440.0,-2048.0,9152.0
7.1675,-13504.0,-2048.0,9152.0
7.17,-13504.0,-2112.0,9216.0
7.1725,-13568.0,-2112.0,9216.0
7.175,-13632.0,-2176.0,9216.0
7.1775,-13696.0,-2176.0,9216.0
7.18,-13760.0,-2176.0,9280.0
7.1825,-13824.0,-2240.0,9344.0
7.185,-13888.0,-2240.0,9280.0
7.1875,-13888.0,-2240.0,9344.0
7.19,-13952.0,-2304.0,9344.0
7.1925,-13952.0,-2240.0,9344.0
7.195,-13952.0,-2304.0,9408.0
7.1975,-13952.0,-2304.0,9408.0
7.2,-13952.0,-2304.0,9536.0
7.2025,-14016.0,-2368.0,9664.0
7.205,-14016.0,-2368.0,9664.0
7.2075,-14016.0,-2304.0,9664.0
7.21,-13952.0,-2240.0,9600.0
7.2125,-14080.0,-2240.0,9728.0
7.215,-14144.0,-2368.0,9792.0
7.2175,-14208.0,-2304.0,9792.0
7.22,-14208.0,-2304.0,9920.0
7.2225,-14144.0,-2240.0,9856.0
7.225,-14144.0,-2304.0,9920.0
7.2275,-14272.0,-2304.0,9856.0
7.23,-14272.0,-2304.0,9920.0
7.2325,-14336.0,-2304.0,9984.0
7.235,-14400.0,-2304.0,9984.0
7.2375,-14400.0,-2368.0,9984.0
7.24,-14464.0,-2304.0,9984.0
7.2425,-14464.0,-2368.0,10048.0
7.245,-14528.0,-2368.0,10112.0
7.2475,-14528.0,-2368.0,10112.0
7.25,-14592.0,-2304.0,10176.0
7.2525,-14592.0,-2240.0,10176.0
7.255,-14528.0,-2240.0,10112.0
7.2575,-14592.0,-2176.0,10240.0
7.26,-14656.0,-2176.0,10240.0
7.2625,-14656.0,-2176.0,10240.0
7.265,-14656.0,-2176.0,10176.0
7.2675,-14656.0,-2240.0,10240.0
7.27,-14656.0,-2176.0,10176.0
7.2725,-14656.0,-2240.0,10176.0
7.275,-14592.0,-2176.0,10112.0
7.2775,-14592.0,-2176.0,10112.0
7.28,-14592.0,-2240.0,10176.0
7.2825,-14528.0,-2176.0,10176.0
7.285,-14464.0,-2240.0,9984.0
7.2875,-14528.0,-2176.0,9984.0
7.29,-14464.0,-2176.0,9856.0
7.2925,-14464.0,-2176.0,9728.0
7.295,-14528.0,-2112.0,9728.0
7.2975,-14464.0,-2112.0,9792.0
7.3,-14400.0,-2048.0,9728.0
7.3025,-14272.0,-2048.0,9600.0
7.305,-14336.0,-2048.0,9664.0
7.3075,-14336.0,-2048.0,9600.0
7.31,-14272.0,-2048.0,9664.0
7.3125,-14208.0,-2048.0,9600.0
7.315,-14208.0,-2048.0,9600.0
7.3175,-14144.0,-1984.0,9600.0
7.32,-14080.0,-1984.0,9600.0
7.3225,-14080.0,-1984.0,9536.0
7.325,-14080.0,-1984.0,9536.0
7.3275,-14080.0,-2048.0,9536.0
7.33,-14016.0,-1984.0,9408.0
7.3325,-14016.0,-1920.0,9472.0
7.335,-13952.0,-1920.0,9408.0
7.3375,-13952.0,-1920.0,9408.0
7.34,-14016.0,-1920.0,9344.0
7.3425,-14016.0,-1856.0,9344.0
7.345,-14016.0,-1856.0,9344.0
7.3475,-14016.0,-1856.0,9344.0
7.35,-13952.0,-1856.0,9344.0
7.3525,-14016.0,-1856.0,9408.0
7.355,-14016.0,-1856.0,9408.0
7.3575,-13952.0,-1856.0,9408.0
7.36,-14016.0,-1984.0,9408.0
7.3625,-14016.0,-1920.0,9536.0
7.365,-14016.0,-1856.0,9472.0
7.3675,-13952.0,-1792.0,9472.0
7.37,-13888.0,-1728.0,9344.0
7.3725,-13952.0,-1664.0,9472.0
7.375,-13952.0,-1728.0,9536.0
7.3775,-13888.0,-1664.0,9536.0
7.38,-13824.0,-1664.0,9408.0
7.3825,-13760.0,-1664.0,9280.0
7.385,-13760.0,-1600.0,9280.0
7.3875,-13824.0,-1600.0,9216.0
7.39,-13760.0,-1600.0,9216.0
7.3925,-13696.0,-1600.0,9344.0
7.395,-13632.0,-1536.0,9280.0
7.3975,-13568.0,-1472.0,9280.0
7.4,-13632.0,-1472.0,9280.0
7.4025,-13632.0,-1408.0,9344.0
7.405,-13568.0,-1408.0,9344.0
7.4075,-13568.0,-1408.0,9344.0
7.41,-13504.0,-1344.0,9344.0
7.4125,-13504.0,-1344.0,9344.0
7.415,-13440.0,-1344.0,9408.0
7.4175,-13440.0,-1344.0,9344.0
7.42,-13440.0,-1344.0,9280.0
7.4225,-13440.0,-1280.0,9280.0
7.425,-13440.0,-1216.0,9280.0
7.4275,-13440.0,-1152.0,9280.0
7.43,-13440.0,-1152.0,9216.0
7.4325,-13440.0,-1152.0,9152.0
7.435,-13376.0,-1152.0,9216.0
7.4375,-13440.0,-1152.0,9152.0
7.44,-13376.0,-1216.0,9152.0
7.4425,-13440.0,-1216.0,9152.0
7.445,-13376.0,-1344.0,9088.0
7.4475,-13376.0,-1344.0,9024.0
7.45,-13504.0,-1408.0,9152.0
7.4525,-13440.0,-1472.0,9152.0
7.455,-13440.0,-1536.0,9216.0
7.4575,-13504.0,-1536.0,9216.0
7.46,-13568.0,-1600.0,9216.0
7.4625,-13696.0,-1600.0,9280.0
7.465,-13760.0,-1664.0,9344.0
7.4675,-13696.0,-1536.0,9408.0
7.47,-13760.0,-1536.0,9408.0
7.4725,-13760.0,-1600.0,9536.0
7.475,-13824.0,-1600.0,9664.0
7.4775,-13760.0,-1536.0,9728.0
7.48,-13760.0,-1472.0,9728.0
7.4825,-13696.0,-1536.0,9856.0
7.485,-13696.0,-1472.0,9920.0
7.4875,-13696.0,-1536.0,9920.0
7.49,-13696.0,-1536.0,10048.0
7.4925,-13632.0,-1600.0,10048.0
7.495,-13696.0,-1536.0,10112.0
7.4975,-13760.0,-1536.0,10048.0
7.5,-13696.0,-1536.0,9984.0
7.5025,-13696.0,-1472.0,9984.0
7.505,-13696.0,-1536.0,9984.0
7.5075,-13696.0,-1472.0,9920.0
7.51,-13696.0,-1472.0,9920.0
7.5125,-13632.0,-1472.0,9920.0
7.515,-13632.0,-1472.0,9856.0
7.5175,-13568.0,-1408.0,9792.0
7.52,-13504.0,-1408.0,9792.0
7.5225,-13504.0,-1344.0,9792.0
7.525,-13440.0,-1280.0,9600.0
7.5275,-13504.0,-1280.0,9728.0
7.53,-13568.0,-1280.0,9856.0
7.5325,-13568.0,-1280.0,9920.0
7.535,-13568.0,-1280.0,9984.0
7.5375,-13440.0,-1216.0,9920.0
7.54,-13568.0,-1280.0,9984.0
7.5425,-13568.0,-1280.0,10048.0
7.545,-13632.0,-1152.0,10176.0
7.5475,-13632.0,-1152.0,10176.0
7.55,-13504.0,-1088.0,10240.0
7.5525,-13504.0,-1088.0,10304.0
7.555,-13504.0,-1088.0,10304.0
7.5575,-13504.0,-1088.0,10304.0
7.56,-13504.0,-1088.0,10304.0
7.5625,-13440.0,-1088.0,10304.0
7.565,-13440.0,-1024.0,10304.0
7.5675,-13376.0,-1024.0,10368.0
7.57,-13376.0,-1024.0,10368.0
7.5725,-13376.0,-1024.0,10496.0
7.575,-13312.0,-1024.0,10432.0
7.5775,-13312.0,-1024.0,10496.0
7.58,-13312.0,-1024.0,10496.0
7.5825,-13248.0,-960.0,10496.0
7.585,-13184.0,-896.0,10560.0
7.5875,-13248.0,-960.0,10624.0
7.59,-13248.0,-896.0,10688.0
7.5925,-13248.0,-896.0,10624.0
7.595,-13312.0,-960.0,10688.0
7.5975,-13376.0,-960.0,10752.0
7.6,-13376.0,-960.0,10752.0
7.6025,-13312.0,-896.0,10816.0
7.605,-13376.0,-832.0,10752.0
7.6075,-13440.0,-832.0,10880.0
7.61,-13504.0,-832.0,10880.0
7.6125,-13440.0,-832.0,10880.0
7.615,-13312.0,-768.0,10816.0
7.6175,-13440.0,-768.0,10752.0
7.62,-13504.0,-768.0,10816.0
7.6225,-13504.0,-832.0,10752.0
7.625,-13568.0,-832.0,10752.0
7.6275,-13504.0,-832.0,10560.0
7.63,-13504.0,-832.0,10624.0
7.6325,-13504.0,-768.0,10688.0
7.635,-13568.0,-768.0,10688.0
7.6375,-13632.0,-768.0,10688.0
7.64,-13632.0,-768.0,10752.0
7.6425,-13632.0,-704.0,10752.0
7.645,-13696.0,-704.0,10880.0
7.6475,-13696.0,-768.0,10880.0
7.65,-13696.0,-704.0,10816.0
7.6525,-13760.0,-832.0,10816.0
7.655,-13760.0,-896.0,10816.0
7.6575,-13760.0,-960.0,10816.0
7.66,-13760.0,-1088.0,10880.0
7.6625,-13824.0,-1088.0,10816.0
7.665,-13888.0,-1216.0,10816.0
7.6675,-13952.0,-1216.0,10880.0
7.67,-13952.0,-1216.0,10880.0
7.6725,-13952.0,-1216.0,10880.0
7.675,-13888.0,-1216.0,10944.0
7.6775,-13824.0,-1216.0,10944.0
7.68,-13888.0,-1216.0,10880.0
7.6825,-13888.0,-1152.0,10944.0
7.685,-13888.0,-1088.0,10880.0
7.6875,-13888.0,-1152.0,10816.0
7.69,-13888.0,-1024.0,10688.0
7.6925,-13952.0,-1024.0,10624.0
7.695,-13952.0,-1024.0,10688.0
7.6975,-13824.0,-1024.0,10624.0
7.7,-13760.0,-1024.0,10432.0
7.7025,-13824.0,-960.0,10496.0
7.705,-13888.0,-1024.0,10560.0
7.7075,-13888.0,-1088.0,10496.0
7.71,-13888.0,-1152.0,10496.0
7.7125,-13888.0,-1152.0,10560.0
7.715,-13952.0,-1152.0,10560.0
7.7175,-13952.0,-1152.0,10496.0
7.72,-13952.0,-1152.0,10496.0
7.7225,-13952.0,-1152.0,10432.0
7.725,-14016.0,-1152.0,10496.0
7.7275,-14016.0,-1152.0,10560.0
7.73,-14016.0,-1152.0,10496.0
7.7325,-13952.0,-1152.0,10432.0
7.735,-13952.0,-1216.0,10432.0
7.7375,-13952.0,-1216.0,10432.0
7.74,-13888.0,-1216.0,10432.0
7.7425,-13824.0,-1216.0,10368.0
7.745,-13824.0,-1280.0,10368.0
7.7475,-13824.0,-1216.0,10304.0
7.75,-13696.0,-1152.0,10240.0
7.7525,-13696.0,-1152.0,10176.0
7.755,-13568.0,-1152.0,10112.0
7.7575,-13504.0,-1088.0,10112.0
7.76,-13504.0,-1088.0,10176.0
7.7625,-13376.0,-1024.0,10176.0
7.765,-13312.0,-960.0,10176.0
7.7675,-13312.0,-896.0,10176.0
7.77,-13376.0,-832.0,10176.0
7.7725,-13376.0,-832.0,10304.0
7.775,-13376.0,-832.0,10240.0
7.7775,-13312.0,-832.0,10176.0
7.78,-13312.0,-832.0,10240.0
7.7825,-13312.0,-832.0,10304.0
7.785,-13376.0,-896.0,10368.0
7.7875,-13312.0,-896.0,10304.0
7.79,-13248.0,-896.0,10304.0
7.7925,-13184.0,-832.0,10240.0
7.795,-13120.0,-832.0,10176.0
7.7975,-13120.0,-832.0,10240.0
7.8,-13056.0,-832.0,10240.0
7.8025,-13056.0,-896.0,10240.0
7.805,-13056.0,-960.0,10176.0
7.8075,-13056.0,-960.0,10176.0
7.81,-13056.0,-1024.0,10240.0
7.8125,-13056.0,-1024.0,10176.0
7.815,-13120.0,-1088.0,10048.0
7.8175,-13120.0,-1152.0,10112.0
7.82,-13120.0,-1216.0,10176.0
7.8225,-13120.0,-1216.0,10176.0
7.825,-13120.0,-1152.0,10176.0
7.8275,-13056.0,-1280.0,10240.0
7.83,-13056.0,-1216.0,10240.0
7.8325,-13056.0,-1216.0,10240.0
7.835,-13056.0,-1216.0,10240.0
7.8375,-13056.0,-1280.0,10240.0
7.84,-13120.0,-1280.0,10304.0
7.8425,-12992.0,-1280.0,10304.0
7.845,-12992.0,-1216.0,10304.0
7.8475,-12992.0,-1280.0,10240.0
7.85,-12928.0,-1216.0,10240.0
7.8525,-12928.0,-1216.0,10240.0
7.855,-12928.0,-1216.0,10368.0
7.8575,-12928.0,-1088.0,10496.0
7.86,-12928.0,-1024.0,10368.0
7.8625,-12928.0,-960.0,10304.0
7.865,-12928.0,-1024.0,10368.0
7.8675,-12864.0,-960.0,10304.0
7.87,-12928.0,-960.0,10304.0
7.8725,-12992.0,-960.0,10368.0
7.875,-12992.0,-896.0,10304.0
7.8775,-12928.0,-960.0,10240.0
7.88,-12864.0,-1024.0,10304.0
7.8825,-12864.0,-960.0,10304.0
7.885,-12864.0,-960.0,10304.0
7.8875,-12800.0,-896.0,10304.0
7.89,-12800.0,-896.0,10304.0
7.8925,-12736.0,-832.0,10176.0
7.895,-12800.0,-832.0,10176.0
7.8975,-12736.0,-832.0,10240.0
7.9,-12800.0,-768.0,10304.0
7.9025,-12736.0,-768.0,10368.0
7.905,-12864.0,-768.0,10432.0
7.9075,-12800.0,-704.0,10432.0
7.91,-12800.0,-768.0,10304.0
7.9125,-12864.0,-768.0,10432.0
7.915,-12864.0,-768.0,10432.0
7.9175,-12928.0,-832.0,10432.0
7.92,-13056.0,-832.0,10496.0
7.9225,-13056.0,-896.0,10624.0
7.925,-12992.0,-896.0,10560.0
7.9275,-12928.0,-960.0,10560.0
7.93,-12864.0,-832.0,10624.0
7.9325,-12864.0,-832.0,10688.0
7.935,-12928.0,-896.0,10880.0
7.9375,-12928.0,-832.0,10816.0
7.94,-12864.0,-768.0,10816.0
7.9425,-12864.0,-768.0,10880.0
7.945,-12800.0,-768.0,10880.0
7.9475,-12800.0,-768.0,10880.0
7.95,-12800.0,-704.0,10816.0
7.9525,-12800.0,-704.0,10816.0
7.955,-12736.0,-768.0,10688.0
7.9575,-12672.0,-704.0,10624.0
7.96,-12672.0,-768.0,10688.0
7.9625,-12608.0,-704.0,10624.0
7.965,-12608.0,-704.0,10560.0
7.9675,-12608.0,-704.0,10496.0
7.97,-12544.0,-704.0,10560.0
7.9725,-12608.0,-768.0,10560.0
7.975,-12608.0,-768.0,10560.0
7.9775,-12608.0,-768.0,10496.0
7.98,-12608.0,-832.0,10560.0
7.9825,-12608.0,-768.0,10560.0
7.985,-12608.0,-768.0,10624.0
7.9875,-12672.0,-832.0,10624.0
7.99,-12608.0,-768.0,10688.0
7.9925,-12608.0,-768.0,10752.0
7.995,-12608.0,-704.0,10752.0
7.9975,-12544.0,-640.0,10816.0
8.0,-12672.0,-704.0,10816.0
8.0025,-12672.0,-704.0,10816.0
8.005,-12608.0,-640.0,10688.0
8.0075,-12544.0,-704.0,10688.0
8.01,-12544.0,-704.0,10688.0
8.0125,-12544.0,-768.0,10752.0
8.015,-12608.0,-704.0,10688.0
8.0175,-12480.0,-704.0,10496.0
8.02,-12480.0,-704.0,10560.0
8.0225,-12544.0,-704.0,10560.0
8.025,-12544.0,-704.0,10624.0
8.0275,-12544.0,-768.0,10624.0
8.03,-12544.0,-704.0,10688.0
8.0325,-12544.0,-704.0,10688.0
8.035,-12544.0,-704.0,10752.0
8.0375,-12544.0,-640.0,10816.0
8.04,-12608.0,-576.0,10880.0
8.0425,-12608.0,-640.0,10944.0
8.045,-12544.0,-576.0,11008.0
8.0475,-12544.0,-640.0,11008.0
8.05,-12480.0,-576.0,10944.0
8.0525,-12480.0,-640.0,10944.0
8.055,-12480.0,-704.0,10944.0
8.0575,-12416.0,-640.0,10944.0
8.06,-12352.0,-704.0,10880.0
8.0625,-12352.0,-768.0,10816.0
8.065,-12352.0,-768.0,10816.0
8.0675,-12352.0,-832.0,10816.0
8.07,-12416.0,-832.0,10816.0
8.0725,-12416.0,-832.0,10816.0
8.075,-12416.0,-832.0,10816.0
8.0775,-12352.0,-832.0,10752.0
8.08,-12416.0,-832.0,10880.0
8.0825,-12416.0,-832.0,10816.0
8.085,-12416.0,-832.0,10752.0
8.0875,-12480.0,-832.0,10944.0
8.09,-12352.0,-832.0,10944.0
8.0925,-12416.0,-768.0,11072.0
8.095,-12352.0,-768.0,11072.0
8.0975,-12416.0,-768.0,11200.0
8.1,-12416.0,-704.0,11072.0
8.1025,-12352.0,-768.0,11136.0
8.105,-12416.0,-768.0,11136.0
8.1075,-12416.0,-704.0,11136.0
8.11,-12480.0,-640.0,11200.0
8.1125,-12480.0,-704.0,11264.0
8.115,-12480.0,-704.0,11264.0
8.1175,-12480.0,-704.0,11264.0
8.12,-12480.0,-704.0,11200.0
8.1225,-12544.0,-704.0,11200.0
8.125,-12608.0,-768.0,11264.0
8.1275,-12672.0,-832.0,11328.0
8.13,-12672.0,-896.0,11264.0
8.1325,-12672.0,-896.0,11328.0
8.135,-12736.0,-832.0,11328.0
8.1375,-12672.0,-896.0,11328.0
8.14,-12672.0,-832.0,11392.0
8.1425,-12672.0,-832.0,11328.0
8.145,-12736.0,-832.0,11456.0
8.1475,-12736.0,-832.0,11520.0
8.15,-12672.0,-768.0,11456.0
8.1525,-12736.0,-832.0,11520.0
8.155,-12800.0,-832.0,11520.0
8.1575,-12800.0,-896.0,11584.0
8.16,-12736.0,-960.0,11712.0
8.1625,-12800.0,-960.0,11776.0
8.165,-12864.0,-896.0,11840.0
8.1675,-12800.0,-832.0,11776.0
8.17,-12672.0,-768.0,11648.0
8.1725,-12736.0,-768.0,11648.0
8.175,-12800.0,-832.0,11712.0
8.1775,-12800.0,-768.0,11776.0
8.18,-12800.0,-768.0,11648.0
8.1825,-12800.0,-832.0,11648.0
8.185,-12928.0,-896.0,11712.0
8.1875,-12928.0,-896.0,11648.0
8.19,-12992.0,-960.0,11712.0
8.1925,-13056.0,-896.0,11648.0
8.195,-13056.0,-960.0,11584.0
8.1975,-13120.0,-896.0,11648.0
8.2,-13184.0,-896.0,11584.0
8.2025,-13120.0,-832.0,11648.0
8.205,-13120.0,-832.0,11648.0
8.2075,-13184.0,-768.0,11584.0
8.21,-13248.0,-704.0,11648.0
8.2125,-13248.0,-640.0,11712.0
8.215,-13184.0,-576.0,11840.0
8.2175,-13248.0,-512.0,11776.0
8.22,-13312.0,-512.0,11776.0
8.2225,-13312.0,-512.0,11840.0
8.225,-13312.0,-512.0,11840.0
8.2275,-13312.0,-576.0,11840.0
8.23,-13248.0,-576.0,11776.0
8.2325,-13312.0,-576.0,11840.0
8.235,-13376.0,-576.0,11840.0
8.2375,-13376.0,-576.0,11840.0
8.24,-13376.0,-640.0,12032.0
8.2425,-13376.0,-704.0,12032.0
8.245,-13376.0,-704.0,11968.0
8.2475,-13376.0,-704.0,12096.0
8.25,-13440.0,-768.0,12160.0
8.2525,-13504.0,-768.0,12224.0
8.255,-13568.0,-832.0,12288.0
8.2575,-13568.0,-832.0,12288.0
8.26,-13568.0,-768.0,12288.0
8.2625,-13568.0,-768.0,12160.0
8.265,-13632.0,-704.0,12288.0
8.2675,-13632.0,-768.0,12288.0
8.27,-13632.0,-704.0,12224.0
8.2725,-13632.0,-640.0,12224.0
8.275,-13632.0,-640.0,12224.0
8.2775,-13696.0,-704.0,12224.0
8.28,-13632.0,-704.0,12224.0
8.2825,-13568.0,-704.0,12096.0
8.285,-13568.0,-704.0,12160.0
8.2875,-13568.0,-768.0,12096.0
8.29,-13504.0,-768.0,12032.0
8.2925,-13504.0,-832.0,12032.0
8.295,-13376.0,-768.0,12032.0
8.2975,-13376.0,-832.0,11968.0
8.3,-13312.0,-768.0,11904.0
8.3025,-13376.0,-768.0,11904.0
8.305,-13376.0,-832.0,11968.0
8.3075,-13440.0,-832.0,11968.0
8.31,-13440.0,-896.0,12032.0
8.3125,-13440.0,-896.0,11968.0
8.315,-13440.0,-960.0,11968.0
8.3175,-13440.0,-896.0,12032.0
8.32,-13504.0,-1024.0,12096.0
8.3225,-13376.0,-896.0,12160.0
8.325,-13312.0,-896.0,12096.0
8.3275,-13376.0,-896.0,12224.0
8.33,-13376.0,-832.0,12288.0
8.3325,-13312.0,-768.0,12288.0
8.335,-13376.0,-704.0,12416.0
8.3375,-13376.0,-704.0,12480.0
8.34,-13376.0,-768.0,12608.0
8.3425,-13312.0,-704.0,12608.0
8.345,-13312.0,-704.0,12544.0
8.3475,-13312.0,-704.0,12672.0
8.35,-13312.0,-704.0,12608.0
8.3525,-13312.0,-704.0,12608.0
8.355,-13248.0,-640.0,12544.0
8.3575,-13184.0,-704.0,12608.0
8.36,-13120.0,-704.0,12544.0
8.3625,-13120.0,-704.0,12608.0
8.365,-13120.0,-704.0,12672.0
8.3675,-13056.0,-704.0,12736.0
8.37,-13056.0,-768.0,12672.0
8.3725,-13056.0,-768.0,12672.0
8.375,-12992.0,-832.0,12672.0
8.3775,-12992.0,-832.0,12672.0
8.38,-12992.0,-896.0,12672.0
8.3825,-12992.0,-896.0,12608.0
8.385,-13056.0,-1024.0,12608.0
8.3875,-12928.0,-1024.0,12480.0
8.39,-12928.0,-1024.0,12480.0
8.3925,-12928.0,-1088.0,12416.0
8.395,-12992.0,-1088.0,12416.0
8.3975,-12992.0,-1088.0,12416.0
8.4,-12992.0,-1152.0,12416.0
8.4025,-12928.0,-1152.0,12416.0
8.405,-12928.0,-1088.0,12352.0
8.4075,-12864.0,-1024.0,12352.0
8.41,-12800.0,-960.0,12224.0
8.4125,-12864.0,-1024.0,12288.0
8.415,-12928.0,-1024.0,12352.0
8.4175,-12864.0,-1024.0,12352.0
8.42,-12800.0,-1024.0,12352.0
8.4225,-12800.0,-1024.0,12352.0
8.425,-12800.0,-1024.0,12352.0
8.4275,-12800.0,-1024.0,12416.0
8.43,-12736.0,-1024.0,12352.0
8.4325,-12736.0,-1024.0,12352.0
8.435,-12736.0,-1024.0,12416.0
8.4375,-12736.0,-1024.0,12416.0
8.44,-12800.0,-1024.0,12416.0
8.4425,-12800.0,-1024.0,12480.0
8.445,-12864.0,-1088.0,12480.0
8.4475,-12928.0,-1024.0,12416.0
8.45,-12992.0,-1024.0,12480.0
8.4525,-12992.0,-960.0,12416.0
8.455,-12928.0,-1024.0,12416.0
8.4575,-12992.0,-1024.0,12480.0
8.46,-12992.0,-1088.0,12416.0
8.4625,-13056.0,-1088.0,12416.0
8.465,-13056.0,-1152.0,12480.0
8.4675,-13056.0,-1152.0,12416.0
8.47,-13120.0,-1152.0,12416.0
8.4725,-13120.0,-1152.0,12416.0
8.475,-13056.0,-1216.0,12416.0
8.4775,-13056.0,-1216.0,12352.0
8.48,-13184.0,-1216.0,12288.0
8.4825,-13248.0,-1216.0,12224.0
8.485,-13312.0,-1216.0,12352.0
8.4875,-13248.0,-1216.0,12416.0
8.49,-13184.0,-1216.0,12416.0
8.4925,-13248.0,-1216.0,12416.0
8.495,-13312.0,-1152.0,12416.0
8.4975,-13376.0,-1152.0,12480.0
8.5,-13376.0,-1152.0,12544.0
8.5025,-13440.0,-1216.0,12480.0
8.505,-13376.0,-1152.0,12416.0
8.5075,-13376.0,-1216.0,12416.0
8.51,-13440.0,-1152.0,12416.0
8.5125,-13440.0,-1216.0,12480.0
8.515,-13440.0,-1216.0,12416.0
8.5175,-13504.0,-1216.0,12480.0
8.52,-13568.0,-1216.0,12480.0
8.5225,-13632.0,-1216.0,12416.0
8.525,-13696.0,-1344.0,12480.0
8.5275,-13696.0,-1280.0,12480.0
8.53,-13760.0,-1408.0,12416.0
8.5325,-13760.0,-1408.0,12480.0
8.535,-13824.0,-1344.0,12480.0
8.5375,-13824.0,-1344.0,12480.0
8.54,-13824.0,-1408.0,12416.0
8.5425,-13888.0,-1408.0,12480.0
8.545,-13888.0,-1472.0,12416.0
8.5475,-13888.0,-1472.0,12352.0
8.55,-13824.0,-1408.0,12352.0
8.5525,-13824.0,-1472.0,12352.0
8.555,-13888.0,-1472.0,12352.0
8.5575,-13888.0,-1472.0,12352.0
8.56,-13952.0,-1536.0,12480.0
8.5625,-13952.0,-1536.0,12416.0
8.565,-13888.0,-1408.0,12416.0
8.5675,-13952.0,-1472.0,12416.0
8.57,-13952.0,-1472.0,12480.0
8.5725,-13952.0,-1536.0,12480.0
8.575,-13952.0,-1408.0,12480.0
8.5775,-13888.0,-1408.0,12416.0
8.58,-13824.0,-1408.0,12416.0
8.5825,-13888.0,-1344.0,12608.0
8.585,-13824.0,-1280.0,12544.0
8.5875,-13824.0,-1280.0,12480.0
8.59,-13824.0,-1280.0,12416.0
8.5925,-13824.0,-1280.0,12480.0
8.595,-13760.0,-1280.0,12416.0
8.5975,-13760.0,-1280.0,12416.0
8.6,-13760.0,-1216.0,12288.0
8.6025,-13696.0,-1152.0,12288.0
8.605,-13696.0,-1024.0,12288.0
8.6075,-13696.0,-1088.0,12288.0
8.61,-13632.0,-1088.0,12224.0
8.6125,-13696.0,-1024.0,12288.0
8.615,-13632.0,-1024.0,12288.0
8.6175,-13632.0,-1024.0,12224.0
8.62,-13696.0,-1088.0,12096.0
8.6225,-13568.0,-1152.0,12160.0
8.625,-13568.0,-1216.0,12160.0
8.6275,-13568.0,-1216.0,12160.0
8.63,-13632.0,-1216.0,12160.0
8.6325,-13696.0,-1152.0,12096.0
8.635,-13696.0,-1216.0,12224.0
8.6375,-13696.0,-1216.0,12160.0
8.64,-13760.0,-1216.0,12288.0
8.6425,-13696.0,-1216.0,12160.0
8.645,-13696.0,-1088.0,12160.0
8.6475,-13696.0,-1152.0,12160.0
8.65,-13760.0,-1216.0,12160.0
8.6525,-13760.0,-1216.0,12096.0
8.655,-13696.0,-1216.0,12096.0
8.6575,-13568.0,-1280.0,12032.0
8.66,-13632.0,-1280.0,12032.0
8.6625,-13568.0,-1280.0,11904.0
8.665,-13632.0,-1344.0,11840.0
8.6675,-13504.0,-1408.0,11712.0
8.67,-13504.0,-1344.0,11584.0
8.6725,-13440.0,-1344.0,11392.0
8.675,-13440.0,-1344.0,11328.0
8.6775,-13376.0,-1344.0,11264.0
8.68,-13312.0,-1280.0,11072.0
8.6825,-13312.0,-1280.0,11136.0
8.685,-13376.0,-1216.0,11136.0
8.6875,-13376.0,-1280.0,11136.0
8.69,-13312.0,-1280.0,11136.0
8.6925,-13248.0,-1280.0,11072.0
8.695,-13184.0,-1408.0,11136.0
8.6975,-13184.0,-1408.0,11200.0
8.7,-13184.0,-1408.0,11136.0
8.7025,-13120.0,-1344.0,11200.0
8.705,-13184.0,-1472.0,11264.0
8.7075,-13120.0,-1408.0,11264.0
8.71,-13184.0,-1344.0,11264.0
8.7125,-13248.0,-1344.0,11264.0
8.715,-13312.0,-1280.0,11328.0
8.7175,-13312.0,-1280.0,11328.0
8.72,-13312.0,-1216.0,11328.0
8.7225,-13312.0,-1152.0,11264.0
8.725,-13248.0,-1152.0,11136.0
8.7275,-13248.0,-1216.0,11136.0
8.73,-13312.0,-1216.0,11136.0
8.7325,-13376.0,-1216.0,11200.0
8.735,-13376.0,-1152.0,11136.0
8.7375,-13376.0,-1216.0,11200.0
8.74,-13376.0,-1088.0,11136.0
8.7425,-13376.0,-1024.0,11136.0
8.745,-13440.0,-960.0,11200.0
8.7475,-13376.0,-896.0,11072.0
8.75,-13376.0,-832.0,11200.0
8.7525,-13376.0,-832.0,11264.0
8.755,-13440.0,-768.0,11328.0
8.7575,-13440.0,-768.0,11328.0
8.76,-13504.0,-768.0,11264.0
8.7625,-13504.0,-768.0,11328.0
8.765,-13504.0,-832.0,11328.0
8.7675,-13568.0,-896.0,11264.0
8.77,-13632.0,-896.0,11200.0
8.7725,-13632.0,-896.0,11200.0
8.775,-13696.0,-960.0,11328.0
8.7775,-13760.0,-960.0,11328.0
8.78,-13760.0,-1024.0,11392.0
8.7825,-13760.0,-1024.0,11328.0
8.785,-13760.0,-1088.0,11328.0
8.7875,-13824.0,-1152.0,11328.0
8.79,-13888.0,-1152.0,11328.0
8.7925,-13952.0,-1152.0,11392.0
8.795,-13952.0,-1216.0,11392.0
8.7975,-14080.0,-1280.0,11456.0
8.8,-14272.0,-1280.0,11456.0
8.8025,-14144.0,-1216.0,11392.0
8.805,-14144.0,-1216.0,11264.0
8.8075,-14080.0,-1280.0,11200.0
8.81,-14144.0,-1344.0,11200.0
8.8125,-14144.0,-1408.0,11200.0
8.815,-14144.0,-1344.0,11136.0
8.8175,-14144.0,-1344.0,11136.0
8.82,-14208.0,-1408.0,11136.0
8.8225,-14208.0,-1472.0,11136.0
8.825,-14208.0,-1536.0,11200.0
8.8275,-14080.0,-1536.0,11200.0
8.83,-14080.0,-1536.0,11200.0
8.8325,-14080.0,-1600.0,11200.0
8.835,-14080.0,-1664.0,11264.0
8.8375,-14144.0,-1664.0,11200.0
8.84,-14144.0,-1664.0,11136.0
8.8425,-14144.0,-1664.0,11136.0
8.845,-14208.0,-1600.0,11200.0
8.8475,-14144.0,-1536.0,11264.0
8.85,-14208.0,-1536.0,11200.0
8.8525,-14208.0,-1408.0,11200.0
8.855,-14144.0,-1344.0,11264.0
8.8575,-14080.0,-1344.0,11328.0
8.86,-14080.0,-1280.0,11328.0
8.8625,-14144.0,-1344.0,11328.0
8.865,-14208.0,-1408.0,11328.0
8.8675,-14272.0,-1472.0,11328.0
8.87,-14272.0,-1472.0,11328.0
8.8725,-14272.0,-1536.0,11200.0
8.875,-14272.0,-1664.0,11264.0
8.8775,-14272.0,-1728.0,11264.0
8.88,-14336.0,-1728.0,11456.0
8.8825,-14336.0,-1792.0,11264.0
8.885,-14272.0,-1664.0,11136.0
8.8875,-14272.0,-1664.0,11200.0
8.89,-14336.0,-1664.0,11328.0
8.8925,-14400.0,-1792.0,11328.0
8.895,-14400.0,-1792.0,11328.0
8.8975,-14400.0,-1728.0,11200.0
8.9,-14336.0,-1856.0,11264.0
8.9025,-14272.0,-1856.0,11136.0
8.905,-14336.0,-1856.0,11200.0
8.9075,-14336.0,-1920.0,11136.0
8.91,-14400.0,-1920.0,11200.0
8.9125,-14400.0,-2048.0,11200.0
8.915,-14464.0,-2048.0,11200.0
8.9175,-14528.0,-2112.0,11200.0
8.92,-14528.0,-2112.0,11136.0
8.9225,-14528.0,-2176.0,11072.0
8.925,-14528.0,-2176.0,11008.0
8.9275,-14528.0,-2176.0,11008.0
8.93,-14528.0,-2112.0,10944.0
8.9325,-14528.0,-2048.0,10880.0
8.935,-14528.0,-2048.0,10880.0
8.9375,-14464.0,-2112.0,10816.0
8.94,-14528.0,-2048.0,10880.0
8.9425,-14464.0,-2048.0,10880.0
8.945,-14464.0,-2048.0,10816.0
8.9475,-14464.0,-2048.0,10880.0
8.95,-14464.0,-2048.0,10944.0
8.9525,-14464.0,-2112.0,11008.0
8.955,-14400.0,-2176.0,11008.0
8.9575,-14400.0,-2176.0,11008.0
8.96,-14336.0,-2240.0,11008.0
8.9625,-14272.0,-2240.0,10880.0
8.965,-14208.0,-2112.0,10944.0
8.9675,-14144.0,-2176.0,10944.0
8.97,-14144.0,-2112.0,10880.0
8.9725,-14080.0,-2112.0,10880.0
8.975,-14016.0,-2112.0,10944.0
8.9775,-14016.0,-2048.0,11008.0
8.98,-13888.0,-1984.0,10816.0
8.9825,-13824.0,-1984.0,10624.0
8.985,-13760.0,-2048.0,10624.0
8.9875,-13632.0,-1984.0,10560.0
8.99,-13696.0,-1984.0,10496.0
8.9925,-13632.0,-1984.0,10496.0
8.995,-13568.0,-1984.0,10496.0
8.9975,-13568.0,-1984.0,10432.0
9.0,-13504.0,-1984.0,10432.0
9.0025,-13504.0,-2048.0,10304.0
9.005,-13440.0,-2048.0,10240.0
9.0075,-13440.0,-2048.0,10176.0
9.01,-13376.0,-2048.0,10176.0
9.0125,-13376.0,-2112.0,10112.0
9.015,-13312.0,-2176.0,10048.0
9.0175,-13312.0,-2176.0,9984.0
9.02,-13376.0,-2240.0,10048.0
9.0225,-13312.0,-2176.0,9984.0
9.025,-13248.0,-2176.0,9856.0
9.0275,-13184.0,-2176.0,9792.0
9.03,-13120.0,-2112.0,9664.0
9.0325,-13120.0,-2176.0,9664.0
9.035,-13056.0,-2112.0,9664.0
9.0375,-12992.0,-2112.0,9664.0
9.04,-12928.0,-2112.0,9728.0
9.0425,-12800.0,-1984.0,9600.0
9.045,-12736.0,-1984.0,9600.0
9.0475,-12608.0,-1920.0,9536.0
9.05,-12544.0,-1920.0,9600.0
9.0525,-12544.0,-1856.0,9472.0
9.055,-12608.0,-1920.0,9600.0
9.0575,-12608.0,-1984.0,9600.0
9.06,-12544.0,-1920.0,9600.0
9.0625,-12480.0,-1920.0,9472.0
9.065,-12480.0,-1920.0,9472.0
9.0675,-12480.0,-1920.0,9472.0
9.07,-12416.0,-1856.0,9472.0
9.0725,-12352.0,-1856.0,9408.0
9.075,-12352.0,-1792.0,9280.0
9.0775,-12352.0,-1792.0,9344.0
9.08,-12352.0,-1792.0,9344.0
9.0825,-12352.0,-1792.0,9344.0
9.085,-12352.0,-1728.0,9280.0
9.0875,-12288.0,-1792.0,9216.0
9.09,-12288.0,-1856.0,9280.0
9.0925,-12352.0,-1856.0,9280.0
9.095,-12352.0,-1856.0,9280.0
9.0975,-12416.0,-1856.0,9216.0
9.1,-12480.0,-1920.0,9280.0
9.1025,-12544.0,-1984.0,9280.0
9.105,-12544.0,-2048.0,9280.0
9.1075,-12608.0,-2112.0,9280.0
9.11,-12608.0,-2112.0,9344.0
9.1125,-12608.0,-2048.0,9408.0
9.115,-12608.0,-2048.0,9408.0
9.1175,-12672.0,-2112.0,9408.0
9.12,-12672.0,-2176.0,9472.0
9.1225,-12736.0,-2112.0,9472.0
9.125,-12736.0,-2176.0,9536.0
9.1275,-12672.0,-2240.0,9344.0
9.13,-12608.0,-2240.0,9216.0
9.1325,-12544.0,-2240.0,9152.0
9.135,-12608.0,-2240.0,9280.0
9.1375,-12672.0,-2304.0,9344.0
9.14,-12608.0,-2304.0,9280.0
9.1425,-12608.0,-2240.0,9216.0
9.145,-12672.0,-2176.0,9280.0
9.1475,-12672.0,-2240.0,9280.0
9.15,-12608.0,-2240.0,9344.0
9.1525,-12608.0,-2304.0,9408.0
9.155,-12544.0,-2304.0,9536.0
9.1575,-12608.0,-2368.0,9536.0
9.16,-12544.0,-2304.0,9472.0
9.1625,-12544.0,-2304.0,9472.0
9.165,-12544.0,-2368.0,9472.0
9.1675,-12544.0,-2368.0,9536.0
9.17,-12544.0,-2304.0,9600.0
9.1725,-12544.0,-2240.0,9536.0
9.175,-12544.0,-2240.0,9536.0
9.1775,-12544.0,-2240.0,9536.0
9.18,-12544.0,-2240.0,9536.0
9.1825,-12608.0,-2240.0,9472.0
9.185,-12608.0,-2176.0,9472.0
9.1875,-12608.0,-2176.0,9472.0
9.19,-12544.0,-2112.0,9472.0
9.1925,-12544.0,-2048.0,9408.0
9.195,-12544.0,-2112.0,9472.0
9.1975,-12608.0,-2112.0,9472.0
9.2,-12608.0,-2112.0,9536.0
9.2025,-12544.0,-2112.0,9408.0
9.205,-12480.0,-2112.0,9344.0
9.2075,-12480.0,-2176.0,9344.0
9.21,-12544.0,-2176.0,9344.0
9.2125,-12608.0,-2240.0,9344.0
9.215,-12608.0,-2368.0,9280.0
9.2175,-12608.0,-2368.0,9216.0
9.22,-12672.0,-2432.0,9280.0
9.2225,-12608.0,-2432.0,9216.0
9.225,-12544.0,-2432.0,9216.0
9.2275,-12608.0,-2432.0,9216.0
9.23,-12672.0,-2432.0,9152.0
9.2325,-12736.0,-2496.0,9152.0
9.235,-12736.0,-2496.0,9152.0
9.2375,-12736.0,-2432.0,9024.0
9.24,-12736.0,-2432.0,9088.0
9.2425,-12672.0,-2368.0,9088.0
9.245,-12672.0,-2432.0,9152.0
9.2475,-12736.0,-2496.0,9152.0
9.25,-12736.0,-2432.0,9152.0
9.2525,-12800.0,-2368.0,9280.0
9.255,-12864.0,-2368.0,9280.0
9.2575,-12864.0,-2368.0,9344.0
9.26,-12800.0,-2368.0,9344.0
9.2625,-12800.0,-2368.0,9472.0
9.265,-12800.0,-2368.0,9536.0
9.2675,-12864.0,-2432.0,9600.0
9.27,-12864.0,-2432.0,9600.0
9.2725,-12800.0,-2368.0,9600.0
9.275,-12800.0,-2496.0,9600.0
9.2775,-12800.0,-2496.0,9600.0
9.28,-12800.0,-2496.0,9600.0
9.2825,-12736.0,-2432.0,9600.0
9.285,-12672.0,-2432.0,9472.0
9.2875,-12672.0,-2368.0,9472.0
9.29,-12608.0,-2432.0,9472.0
9.2925,-12608.0,-2432.0,9536.0
9.295,-12608.0,-2432.0,9408.0
9.2975,-12544.0,-2432.0,9344.0
9.3,-12544.0,-2368.0,9280.0
9.3025,-12608.0,-2432.0,9280.0
9.305,-12608.0,-2496.0,9216.0
9.3075,-12544.0,-2560.0,9280.0
9.31,-12544.0,-2560.0,9216.0
9.3125,-12544.0,-2624.0,9216.0
9.315,-12608.0,-2624.0,9216.0
9.3175,-12608.0,-2624.0,9216.0
9.32,-12544.0,-2688.0,9152.0
9.3225,-12544.0,-2688.0,9152.0
9.325,-12544.0,-2624.0,9152.0
9.3275,-12544.0,-2624.0,9152.0
9.33,-12480.0,-2624.0,9024.0
9.3325,-12416.0,-2688.0,9024.0
9.335,-12480.0,-2752.0,9024.0
9.3375,-12544.0,-2752.0,9024.0
9.34,-12480.0,-2752.0,9024.0
9.3425,-12416.0,-2816.0,9024.0
9.345,-12416.0,-2816.0,8960.0
9.3475,-12352.0,-2816.0,9024.0
9.35,-12352.0,-2816.0,8960.0
9.3525,-12288.0,-2752.0,8960.0
9.355,-12224.0,-2752.0,9088.0
9.3575,-12288.0,-2752.0,9088.0
9.36,-12288.0,-2688.0,9152.0
9.3625,-12224.0,-2752.0,9152.0
9.365,-12160.0,-2752.0,9088.0
9.3675,-12224.0,-2688.0,9216.0
9.37,-12288.0,-2752.0,9152.0
9.3725,-12288.0,-2816.0,9152.0
9.375,-12288.0,-2816.0,9216.0
9.3775,-12224.0,-2816.0,9024.0
9.38,-12352.0,-2880.0,9024.0
9.3825,-12416.0,-2944.0,9024.0
9.385,-12352.0,-2944.0,9216.0
9.3875,-12352.0,-2944.0,9280.0
9.39,-12416.0,-3072.0,9152.0
9.3925,-12416.0,-3008.0,9088.0
9.395,-12416.0,-2944.0,9088.0
9.3975,-12480.0,-3008.0,9088.0
9.4,-12480.0,-3008.0,9088.0
9.4025,-12480.0,-3008.0,9088.0
9.405,-12416.0,-3008.0,9152.0
9.4075,-12480.0,-2944.0,9216.0
9.41,-12480.0,-3008.0,9152.0
9.4125,-12480.0,-3008.0,9216.0
9.415,-12480.0,-3008.0,9088.0
9.4175,-12480.0,-2880.0,9152.0
9.42,-12544.0,-2880.0,9216.0
9.4225,-12544.0,-2944.0,9216.0
9.425,-12480.0,-2944.0,9280.0
9.4275,-12544.0,-2944.0,9344.0
9.43,-12608.0,-2944.0,9280.0
9.4325,-12608.0,-2944.0,9344.0
9.435,-12608.0,-2944.0,9280.0
9.4375,-12608.0,-2944.0,9216.0
9.44,-12672.0,-3072.0,9216.0
9.4425,-12544.0,-3008.0,9152.0
9.445,-12480.0,-3008.0,9088.0
9.4475,-12544.0,-3072.0,9024.0
9.45,-12544.0,-3072.0,9024.0
9.4525,-12544.0,-3072.0,9088.0
9.455,-12480.0,-3008.0,9024.0
9.4575,-12416.0,-3072.0,8960.0
9.46,-12480.0,-3072.0,8960.0
9.4625,-12480.0,-3072.0,9088.0
9.465,-12480.0,-3008.0,9024.0
9.4675,-12480.0,-2944.0,8960.0
9.47,-12416.0,-2944.0,8960.0
9.4725,-12416.0,-2944.0,8832.0
9.475,-12352.0,-2944.0,8896.0
9.4775,-12352.0,-2880.0,8832.0
9.48,-12288.0,-2880.0,8832.0
9.4825,-12224.0,-2816.0,8832.0
9.485,-12224.0,-2816.0,8832.0
9.4875,-12224.0,-2880.0,8832.0
9.49,-12224.0,-2880.0,8832.0
9.4925,-12160.0,-2880.0,8768.0
9.495,-12160.0,-2944.0,8832.0
9.4975,-12224.0,-2944.0,8832.0
9.5,-12224.0,-2880.0,8832.0
9.5025,-12288.0,-2880.0,8832.0
9.505,-12224.0,-2880.0,8832.0
9.5075,-12224.0,-2816.0,8896.0
9.51,-12288.0,-2816.0,8960.0
9.5125,-12224.0,-2752.0,8960.0
9.515,-12224.0,-2816.0,9024.0
9.5175,-12288.0,-2880.0,9024.0
9.52,-12352.0,-2944.0,9152.0
9.5225,-12352.0,-2944.0,9024.0
9.525,-12224.0,-2944.0,9024.0
9.5275,-12352.0,-3008.0,9024.0
9.53,-12288.0,-3008.0,9088.0
9.5325,-12352.0,-3072.0,9152.0
9.535,-12288.0,-3008.0,9024.0
9.5375,-12224.0,-3008.0,8960.0
9.54,-12224.0,-3072.0,8896.0
9.5425,-12224.0,-3136.0,8896.0
9.545,-12224.0,-3072.0,9024.0
9.5475,-12160.0,-3200.0,9024.0
9.55,-12160.0,-3136.0,9024.0
9.5525,-12160.0,-3136.0,8960.0
9.555,-12096.0,-3200.0,8960.0
9.5575,-12032.0,-3200.0,8960.0
9.56,-12032.0,-3136.0,8960.0
9.5625,-12032.0,-3200.0,8960.0
9.565,-11968.0,-3200.0,8896.0
9.5675,-11968.0,-3200.0,8832.0
9.57,-11904.0,-3264.0,8832.0
9.5725,-11904.0,-3200.0,8832.0
9.575,-11904.0,-3200.0,8896.0
9.5775,-11904.0,-3200.0,8832.0
9.58,-11840.0,-3200.0,8896.0
9.5825,-11840.0,-3264.0,8896.0
9.585,-11904.0,-3200.0,8960.0
9.5875,-11904.0,-3072.0,8960.0
9.59,-11840.0,-3136.0,9024.0
9.5925,-11776.0,-3072.0,9088.0
9.595,-11776.0,-3008.0,9088.0
9.5975,-11712.0,-3008.0,9088.0
9.6,-11776.0,-3008.0,9088.0
9.6025,-11712.0,-2944.0,9024.0
9.605,-11648.0,-2880.0,8960.0
9.6075,-11584.0,-2944.0,9024.0
9.61,-11584.0,-3008.0,9024.0
9.6125,-11648.0,-2944.0,9024.0
9.615,-11584.0,-2880.0,8960.0
9.6175,-11520.0,-2880.0,8896.0
9.62,-11520.0,-2880.0,8832.0
9.6225,-11520.0,-2880.0,8896.0
9.625,-11456.0,-2944.0,8960.0
9.6275,-11584.0,-2944.0,9024.0
9.63,-11584.0,-3072.0,8960.0
9.6325,-11584.0,-3072.0,8832.0
9.635,-11648.0,-3072.0,8896.0
9.6375,-11584.0,-3072.0,8896.0
9.64,-11648.0,-3136.0,8960.0
9.6425,-11648.0,-3200.0,8960.0
9.645,-11648.0,-3200.0,8896.0
9.6475,-11776.0,-3264.0,8896.0
9.65,-11776.0,-3264.0,8896.0
9.6525,-11776.0,-3328.0,8960.0
9.655,-11776.0,-3392.0,8960.0
9.6575,-11904.0,-3456.0,8960.0
9.66,-11904.0,-3456.0,8960.0
9.6625,-11968.0,-3392.0,8896.0
9.665,-11968.0,-3392.0,8960.0
9.6675,-12032.0,-3328.0,9024.0
9.67,-12032.0,-3392.0,9024.0
9.6725,-12032.0,-3328.0,9024.0
9.675,-12032.0,-3264.0,9024.0
9.6775,-12032.0,-3264.0,9024.0
9.68,-12096.0,-3328.0,9152.0
9.6825,-12096.0,-3392.0,9152.0
9.685,-12096.0,-3328.0,9088.0
9.6875,-12096.0,-3328.0,9088.0
9.69,-12096.0,-3328.0,9088.0
9.6925,-12096.0,-3328.0,9024.0
9.695,-12032.0,-3328.0,8960.0
9.6975,-12032.0,-3264.0,8960.0
9.7,-12032.0,-3264.0,8960.0
9.7025,-12096.0,-3264.0,8960.0
9.705,-12096.0,-3328.0,9088.0
9.7075,-12096.0,-3328.0,9024.0
9.71,-12096.0,-3392.0,8960.0
9.7125,-12032.0,-3456.0,8960.0
9.715,-12096.0,-3456.0,8896.0
9.7175,-12096.0,-3456.0,8896.0
9.72,-12096.0,-3520.0,8896.0
9.7225,-12096.0,-3520.0,8960.0
9.725,-12096.0,-3520.0,9024.0
9.7275,-12096.0,-3456.0,9024.0
9.73,-12096.0,-3328.0,9024.0
9.7325,-12096.0,-3328.0,9024.0
9.735,-12032.0,-3392.0,9024.0
9.7375,-12032.0,-3328.0,9088.0
9.74,-12032.0,-3264.0,9024.0
9.7425,-12096.0,-3264.0,9024.0
9.745,-12096.0,-3328.0,8960.0
9.7475,-12032.0,-3328.0,9024.0
9.75,-12032.0,-3328.0,9024.0
9.7525,-11968.0,-3264.0,9024.0
9.755,-11904.0,-3264.0,8960.0
9.7575,-11840.0,-3200.0,8960.0
9.76,-11840.0,-3264.0,8960.0
9.7625,-11776.0,-3200.0,8960.0
9.765,-11712.0,-3200.0,9024.0
9.7675,-11648.0,-3136.0,9088.0
9.77,-11648.0,-3136.0,8896.0
9.7725,-11648.0,-3200.0,8896.0
9.775,-11712.0,-3200.0,8960.0
9.7775,-11776.0,-3264.0,9024.0
9.78,-11712.0,-3264.0,9024.0
9.7825,-11712.0,-3136.0,9024.0
9.785,-11712.0,-3200.0,9088.0
9.7875,-11776.0,-3264.0,9152.0
9.79,-11776.0,-3200.0,9152.0
9.7925,-11776.0,-3200.0,9216.0
9.795,-11904.0,-3264.0,9216.0
9.7975,-11840.0,-3264.0,9216.0
9.8,-11904.0,-3264.0,9344.0
9.8025,-11968.0,-3328.0,9280.0
9.805,-11968.0,-3328.0,9280.0
9.8075,-12032.0,-3392.0,9280.0
9.81,-12096.0,-3392.0,9344.0
9.8125,-12096.0,-3456.0,9280.0
9.815,-12096.0,-3456.0,9280.0
9.8175,-12096.0,-3456.0,9216.0
9.82,-12224.0,-3456.0,9344.0
9.8225,-12224.0,-3520.0,9344.0
9.825,-12288.0,-3392.0,9344.0
9.8275,-12288.0,-3456.0,9408.0
9.83,-12352.0,-3456.0,9344.0
9.8325,-12352.0,-3520.0,9408.0
9.835,-12480.0,-3520.0,9472.0
9.8375,-12480.0,-3520.0,9472.0
9.84,-12416.0,-3648.0,9344.0
9.8425,-12480.0,-3584.0,9408.0
9.845,-12480.0,-3584.0,9472.0
9.8475,-12480.0,-3712.0,9536.0
9.85,-12480.0,-3648.0,9536.0
9.8525,-12544.0,-3648.0,9472.0
9.855,-12544.0,-3584.0,9600.0
9.8575,-12608.0,-3712.0,9664.0
9.86,-12608.0,-3776.0,9728.0
9.8625,-12608.0,-3712.0,9600.0
9.865,-12672.0,-3776.0,9600.0
9.8675,-12672.0,-3840.0,9536.0
9.87,-12672.0,-3840.0,9472.0
