time_stamp,acc_x,acc_y,acc_z
0.0,-15744.0,-3264.0,4096.0
0.0025,-15744.0,-3264.0,4032.0
0.005,-15744.0,-3200.0,4032.0
0.0075,-15680.0,-3200.0,4032.0
0.01,-15744.0,-3328.0,4160.0
0.0125,-15744.0,-3264.0,4096.0
0.015,-15808.0,-3200.0,4032.0
0.0175,-15808.0,-3264.0,4032.0
0.02,-15744.0,-3200.0,4096.0
0.0225,-15808.0,-3200.0,4096.0
0.025,-15744.0,-3200.0,4032.0
0.0275,-15744.0,-3136.0,3968.0
0.03,-15744.0,-3200.0,3968.0
0.0325,-15808.0,-3200.0,4096.0
0.035,-15808.0,-3200.0,4096.0
0.0375,-15744.0,-3264.0,4032.0
0.04,-15744.0,-3200.0,4032.0
0.0425,-15744.0,-3200.0,4032.0
0.045,-15808.0,-3200.0,4032.0
0.0475,-15744.0,-3200.0,4032.0
0.05,-15744.0,-3200.0,4032.0
0.0525,-15744.0,-3200.0,4032.0
0.055,-15744.0,-3200.0,4096.0
0.0575,-15744.0,-3200.0,4096.0
0.06,-15744.0,-3200.0,4032.0
0.0625,-15680.0,-3136.0,4032.0
0.065,-15744.0,-3264.0,3968.0
0.0675,-15680.0,-3200.0,4032.0
0.07,-15616.0,-3200.0,4032.0
0.0725,-15616.0,-3200.0,4032.0
0.075,-15616.0,-3264.0,4096.0
0.0775,-15680.0,-3264.0,4032.0
0.08,-15744.0,-3328.0,4096.0
0.0825,-15744.0,-3264.0,4096.0
0.085,-15680.0,-3264.0,4032.0
0.0875,-15616.0,-3264.0,3968.0
0.09,-15616.0,-3264.0,3968.0
0.0925,-15680.0,-3200.0,4096.0
0.095,-15680.0,-3200.0,4096.0
0.0975,-15616.0,-3200.0,3968.0
0.1,-15616.0,-3200.0,3968.0
0.1025,-15616.0,-3200.0,3968.0
0.105,-15616.0,-3264.0,4032.0
0.1075,-15680.0,-3264.0,3968.0
0.11,-15744.0,-3200.0,3968.0
0.1125,-15744.0,-3072.0,4032.0
0.115,-15744.0,-3136.0,4032.0
0.1175,-15808.0,-3136.0,4032.0
0.12,-15744.0,-3200.0,4032.0
0.1225,-15744.0,-3200.0,3968.0
0.125,-15808.0,-3200.0,4032.0
0.1275,-15808.0,-3200.0,3968.0
0.13,-15808.0,-3200.0,3968.0
0.1325,-15808.0,-3200.0,3968.0
0.135,-15808.0,-3200.0,3968.0
0.1375,-15872.0,-3200.0,4032.0
0.14,-15808.0,-3200.0,3904.0
0.1425,-15808.0,-3200.0,3968.0
0.145,-15808.0,-3200.0,3968.0
0.1475,-15808.0,-3200.0,4032.0
0.15,-15872.0,-3264.0,3968.0
0.1525,-15872.0,-3200.0,3968.0
0.155,-15872.0,-3264.0,4032.0
0.1575,-15936.0,-3328.0,4032.0
0.16,-16000.0,-3328.0,4160.0
0.1625,-16064.0,-3392.0,4160.0
0.165,-16000.0,-3328.0,3968.0
0.1675,-16064.0,-3328.0,3968.0
0.17,-16064.0,-3328.0,4032.0
0.1725,-16064.0,-3328.0,4096.0
0.175,-16000.0,-3264.0,4032.0
0.1775,-16000.0,-3200.0,4032.0
0.18,-15936.0,-3264.0,4096.0
0.1825,-15936.0,-3264.0,4224.0
0.185,-15936.0,-3200.0,4160.0
0.1875,-15872.0,-3200.0,4032.0
0.19,-15808.0,-3264.0,4160.0
0.1925,-15872.0,-3264.0,4160.0
0.195,-15872.0,-3200.0,4160.0
0.1975,-15808.0,-3200.0,4096.0
0.2,-15808.0,-3200.0,4160.0
0.2025,-15808.0,-3200.0,4160.0
0.205,-15808.0,-3264.0,4160.0
0.2075,-15808.0,-3200.0,4096.0
0.21,-15808.0,-3136.0,4096.0
0.2125,-15744.0,-3200.0,4096.0
0.215,-15744.0,-3200.0,4096.0
0.2175,-15744.0,-3200.0,4032.0
0.22,-15680.0,-3200.0,4032.0
0.2225,-15680.0,-3200.0,4096.0
0.225,-15680.0,-3200.0,4096.0
0.2275,-15680.0,-3200.0,4096.0
0.23,-15680.0,-3136.0,4096.0
0.2325,-15616.0,-3136.0,4096.0
0.235,-15616.0,-3072.0,4096.0
0.2375,-15680.0,-3072.0,4096.0
0.24,-15680.0,-3136.0,4032.0
0.2425,-15680.0,-3200.0,4096.0
0.245,-15680.0,-3136.0,4160.0
0.2475,-15680.0,-3136.0,4160.0
0.25,-15616.0,-3072.0,4032.0
0.2525,-15680.0,-3136.0,4032.0
0.255,-15680.0,-3136.0,4160.0
0.2575,-15680.0,-3136.0,4160.0
0.26,-15680.0,-3136.0,4224.0
0.2625,-15616.0,-3200.0,4224.0
0.265,-15616.0,-3136.0,4160.0
0.2675,-15680.0,-3136.0,4288.0
0.27,-15680.0,-3200.0,4224.0
0.2725,-15744.0,-3200.0,4288.0
0.275,-15744.0,-3200.0,4224.0
0.2775,-15808.0,-3136.0,4160.0
0.28,-15744.0,-3136.0,4160.0
0.2825,-15744.0,-3200.0,4096.0
0.285,-15744.0,-3136.0,4160.0
0.2875,-15744.0,-3136.0,4160.0
0.29,-15744.0,-3200.0,4160.0
0.2925,-15808.0,-3200.0,4160.0
0.295,-15872.0,-3200.0,4160.0
0.2975,-15936.0,-3200.0,4160.0
0.3,-15872.0,-3136.0,4224.0
0.3025,-15872.0,-3136.0,4160.0
0.305,-15872.0,-3136.0,4096.0
0.3075,-15872.0,-3136.0,4096.0
0.31,-15872.0,-3136.0,4160.0
0.3125,-15936.0,-3136.0,4096.0
0.315,-15936.0,-3200.0,4096.0
0.3175,-15872.0,-3136.0,4096.0
0.32,-15936.0,-3200.0,4096.0
0.3225,-16000.0,-3200.0,4096.0
0.325,-15872.0,-3136.0,4032.0
0.3275,-15936.0,-3136.0,4032.0
0.33,-16000.0,-3136.0,4032.0
0.3325,-16000.0,-3200.0,4160.0
0.335,-16000.0,-3200.0,4224.0
0.3375,-15936.0,-3200.0,4032.0
0.34,-15872.0,-3264.0,4032.0
0.3425,-16000.0,-3264.0,4224.0
0.345,-15936.0,-3264.0,4224.0
0.3475,-16000.0,-3264.0,4224.0
0.35,-16000.0,-3200.0,4160.0
0.3525,-16000.0,-3200.0,4096.0
0.355,-15936.0,-3264.0,4096.0
0.3575,-16000.0,-3264.0,4096.0
0.36,-16000.0,-3200.0,4160.0
0.3625,-16000.0,-3264.0,4160.0
0.365,-16000.0,-3200.0,4224.0
0.3675,-16000.0,-3200.0,4224.0
0.37,-15936.0,-3264.0,4160.0
0.3725,-15936.0,-3200.0,4160.0
0.375,-15936.0,-3200.0,4224.0
0.3775,-15936.0,-3200.0,4224.0
0.38,-15872.0,-3200.0,4224.0
0.3825,-15936.0,-3136.0,4224.0
0.385,-15936.0,-3200.0,4160.0
0.3875,-15936.0,-3200.0,4160.0
0.39,-15872.0,-3200.0,4224.0
0.3925,-15872.0,-3200.0,4224.0
0.395,-15872.0,-3264.0,4160.0
0.3975,-15808.0,-3200.0,4160.0
0.4,-15936.0,-3264.0,4160.0
0.4025,-15936.0,-3072.0,4160.0
0.405,-15872.0,-3136.0,4224.0
0.4075,-15872.0,-3136.0,4224.0
0.41,-15744.0,-3136.0,4032.0
0.4125,-15744.0,-3136.0,4096.0
0.415,-15872.0,-3136.0,4160.0
0.4175,-15808.0,-3200.0,4288.0
0.42,-15808.0,-3136.0,4224.0
0.4225,-15744.0,-3072.0,4096.0
0.425,-15808.0,-3072.0,4096.0
0.4275,-15744.0,-3136.0,4096.0
0.43,-15808.0,-3136.0,4160.0
0.4325,-15808.0,-3136.0,4160.0
0.435,-15808.0,-3136.0,4160.0
0.4375,-15808.0,-3136.0,4160.0
0.44,-15744.0,-3136.0,4160.0
0.4425,-15744.0,-3136.0,4160.0
0.445,-15744.0,-3136.0,4160.0
0.4475,-15808.0,-3136.0,4160.0
0.45,-15744.0,-3136.0,4160.0
0.4525,-15744.0,-3072.0,4160.0
0.455,-15744.0,-3136.0,4160.0
0.4575,-15744.0,-3136.0,4096.0
0.46,-15744.0,-3136.0,4096.0
0.4625,-15808.0,-3136.0,4160.0
0.465,-15808.0,-3136.0,4096.0
0.4675,-15808.0,-3136.0,4096.0
0.47,-15808.0,-3136.0,4224.0
0.4725,-15744.0,-3200.0,4224.0
0.475,-15808.0,-3136.0,4160.0
0.4775,-15808.0,-3200.0,4160.0
0.48,-15808.0,-3200.0,4096.0
0.4825,-15808.0,-3136.0,4032.0
0.485,-15872.0,-3200.0,4224.0
0.4875,-15872.0,-3200.0,4160.0
0.49,-15872.0,-3072.0,4160.0
0.4925,-15808.0,-3072.0,4096.0
0.495,-15808.0,-3136.0,4160.0
0.4975,-15872.0,-3200.0,4224.0
0.5,-15872.0,-3200.0,4224.0
0.5025,-15872.0,-3200.0,4096.0
0.505,-15872.0,-3200.0,4096.0
0.5075,-15808.0,-3200.0,4160.0
0.51,-15808.0,-3072.0,4160.0
0.5125,-15808.0,-3136.0,4160.0
0.515,-15808.0,-3072.0,4160.0
0.5175,-15808.0,-3072.0,4160.0
0.52,-15808.0,-3136.0,4160.0
0.5225,-15808.0,-3072.0,4032.0
0.525,-15872.0,-3136.0,4096.0
0.5275,-15808.0,-3136.0,4160.0
0.53,-15872.0,-3200.0,4096.0
0.5325,-15872.0,-3200.0,4096.0
0.535,-15808.0,-3200.0,4032.0
0.5375,-15744.0,-3200.0,4096.0
0.54,-15808.0,-3136.0,4032.0
0.5425,-15808.0,-3136.0,4032.0
0.545,-15808.0,-3200.0,4032.0
0.5475,-15808.0,-3200.0,4032.0
0.55,-15872.0,-3200.0,4096.0
0.5525,-15808.0,-3200.0,4032.0
0.555,-15808.0,-3200.0,4032.0
0.5575,-15808.0,-3200.0,4032.0
0.56,-15872.0,-3264.0,4160.0
0.5625,-15936.0,-3200.0,4160.0
0.565,-15808.0,-3264.0,4032.0
0.5675,-15808.0,-3200.0,3968.0
0.57,-15808.0,-3200.0,4032.0
0.5725,-15808.0,-3264.0,4096.0
0.575,-15808.0,-3264.0,4160.0
0.5775,-15808.0,-3200.0,4096.0
0.58,-15744.0,-3136.0,3968.0
0.5825,-15808.0,-3200.0,3968.0
0.585,-15808.0,-3264.0,4032.0
0.5875,-15744.0,-3136.0,4032.0
0.59,-15744.0,-3136.0,4032.0
0.5925,-15808.0,-3136.0,4032.0
0.595,-15744.0,-3136.0,4032.0
0.5975,-15744.0,-3136.0,4032.0
0.6,-15808.0,-3136.0,3968.0
0.6025,-15872.0,-3136.0,3968.0
0.605,-15872.0,-3136.0,3968.0
0.6075,-15808.0,-3200.0,4032.0
0.61,-15872.0,-3200.0,4032.0
0.6125,-15872.0,-3264.0,4032.0
0.615,-15936.0,-3264.0,4032.0
0.6175,-15936.0,-3200.0,3968.0
0.62,-15936.0,-3136.0,3968.0
0.6225,-15936.0,-3200.0,3904.0
0.625,-15936.0,-3200.0,3904.0
0.6275,-15936.0,-3200.0,3968.0
0.63,-15936.0,-3136.0,3968.0
0.6325,-16000.0,-3136.0,3968.0
0.635,-16000.0,-3200.0,3904.0
0.6375,-15936.0,-3136.0,3904.0
0.64,-16128.0,-3264.0,3904.0
0.6425,-16064.0,-3200.0,3968.0
0.645,-16000.0,-3328.0,3968.0
0.6475,-15936.0,-3200.0,3904.0
0.65,-15936.0,-3264.0,3904.0
0.6525,-16000.0,-3264.0,3968.0
0.655,-16000.0,-3328.0,4096.0
0.6575,-15936.0,-3264.0,3968.0
0.66,-15936.0,-3264.0,3904.0
0.6625,-15936.0,-3200.0,4032.0
0.665,-15872.0,-3200.0,4032.0
0.6675,-15872.0,-3200.0,4096.0
0.67,-15872.0,-3200.0,4032.0
0.6725,-15872.0,-3200.0,4032.0
0.675,-15808.0,-3200.0,4032.0
0.6775,-15808.0,-3200.0,4096.0
0.68,-15808.0,-3200.0,4032.0
0.6825,-15872.0,-3200.0,4032.0
0.685,-15872.0,-3200.0,4032.0
0.6875,-15872.0,-3200.0,4032.0
0.69,-15808.0,-3200.0,4032.0
0.6925,-15808.0,-3136.0,3968.0
0.695,-15808.0,-3200.0,3904.0
0.6975,-15808.0,-3264.0,3904.0
0.7,-15744.0,-3264.0,3904.0
0.7025,-15680.0,-3200.0,3904.0
0.705,-15744.0,-3200.0,3904.0
0.7075,-15744.0,-3136.0,3904.0
0.71,-15680.0,-3136.0,3904.0
0.7125,-15680.0,-3200.0,3904.0
0.715,-15680.0,-3136.0,3840.0
0.7175,-15680.0,-3136.0,3904.0
0.72,-15680.0,-3136.0,4032.0
0.7225,-15680.0,-3136.0,4160.0
0.725,-15616.0,-3136.0,4032.0
0.7275,-15616.0,-3200.0,3904.0
0.73,-15680.0,-3136.0,3968.0
0.7325,-15744.0,-3200.0,4032.0
0.735,-15744.0,-3200.0,3968.0
0.7375,-15680.0,-3136.0,3904.0
0.74,-15680.0,-3200.0,3904.0
0.7425,-15744.0,-3264.0,3968.0
0.745,-15680.0,-3264.0,4032.0
0.7475,-15680.0,-3200.0,3968.0
0.75,-15680.0,-3200.0,3968.0
0.7525,-15680.0,-3200.0,4032.0
0.755,-15808.0,-3200.0,4032.0
0.7575,-15808.0,-3200.0,3968.0
0.76,-15808.0,-3200.0,3968.0
0.7625,-15808.0,-3200.0,4032.0
0.765,-15872.0,-3200.0,4032.0
0.7675,-15808.0,-3200.0,3968.0
0.77,-15872.0,-3136.0,3968.0
0.7725,-15872.0,-3136.0,3968.0
0.775,-15872.0,-3200.0,3968.0
0.7775,-15936.0,-3200.0,3968.0
0.78,-15872.0,-3200.0,3968.0
0.7825,-15872.0,-3136.0,3968.0
0.785,-15936.0,-3264.0,3904.0
0.7875,-15872.0,-3200.0,3968.0
0.79,-15872.0,-3200.0,3904.0
0.7925,-15872.0,-3136.0,3904.0
0.795,-15872.0,-3200.0,3968.0
0.7975,-15936.0,-3200.0,3968.0
0.8,-15936.0,-3200.0,4032.0
0.8025,-16064.0,-3264.0,3968.0
0.805,-16000.0,-3264.0,4032.0
0.8075,-15936.0,-3136.0,3904.0
0.81,-15936.0,-3200.0,3968.0
0.8125,-15936.0,-3200.0,4032.0
0.815,-15936.0,-3264.0,4032.0
0.8175,-16000.0,-3200.0,3968.0
0.82,-15936.0,-3264.0,3904.0
0.8225,-15936.0,-3200.0,3904.0
0.825,-15936.0,-3264.0,4032.0
0.8275,-15936.0,-3200.0,3968.0
0.83,-15936.0,-3200.0,3968.0
0.8325,-16000.0,-3264.0,4032.0
0.835,-15936.0,-3264.0,4032.0
0.8375,-15872.0,-3200.0,4032.0
0.84,-15872.0,-3264.0,3968.0
0.8425,-15872.0,-3200.0,3968.0
0.845,-15872.0,-3264.0,3968.0
0.8475,-15808.0,-3200.0,4032.0
0.85,-15808.0,-3200.0,3968.0
0.8525,-15808.0,-3200.0,4032.0
0.855,-15808.0,-3264.0,4032.0
0.8575,-15744.0,-3200.0,4096.0
0.86,-15744.0,-3200.0,4032.0
0.8625,-15744.0,-3200.0,3968.0
0.865,-15808.0,-3200.0,3968.0
0.8675,-15808.0,-3264.0,3968.0
0.87,-15808.0,-3200.0,3968.0
0.8725,-15808.0,-3200.0,3968.0
0.875,-15808.0,-3200.0,4032.0
0.8775,-15808.0,-3200.0,4096.0
0.88,-15872.0,-3264.0,4032.0
0.8825,-15808.0,-3200.0,4096.0
0.885,-15744.0,-3136.0,3968.0
0.8875,-15744.0,-3136.0,3904.0
0.89,-15744.0,-3200.0,3904.0
0.8925,-15808.0,-3200.0,4096.0
0.895,-15808.0,-3200.0,4096.0
0.8975,-15808.0,-3136.0,4096.0
0.9,-15744.0,-3072.0,4032.0
0.9025,-15808.0,-3200.0,4032.0
0.905,-15808.0,-3200.0,4032.0
0.9075,-15808.0,-3072.0,3968.0
0.91,-15872.0,-3136.0,4032.0
0.9125,-15808.0,-3136.0,4032.0
0.915,-15808.0,-3136.0,4032.0
0.9175,-15808.0,-3200.0,4032.0
0.92,-15808.0,-3136.0,4160.0
0.9225,-15808.0,-3072.0,4096.0
0.925,-15808.0,-3136.0,4096.0
0.9275,-15808.0,-3136.0,4096.0
0.93,-15808.0,-3136.0,4096.0
0.9325,-15808.0,-3136.0,4096.0
0.935,-15808.0,-3072.0,4032.0
0.9375,-15808.0,-3072.0,4032.0
0.94,-15744.0,-3136.0,4096.0
0.9425,-15744.0,-3136.0,4096.0
0.945,-15808.0,-3136.0,4160.0
0.9475,-15808.0,-3136.0,4096.0
0.95,-15808.0,-3136.0,4032.0
0.9525,-15808.0,-3136.0,3968.0
0.955,-15808.0,-3072.0,3968.0
0.9575,-15808.0,-3136.0,3968.0
0.96,-15872.0,-3136.0,3968.0
0.9625,-15936.0,-3200.0,4032.0
0.965,-15936.0,-3200.0,4096.0
0.9675,-15872.0,-3200.0,4160.0
0.97,-15872.0,-3136.0,4032.0
0.9725,-15808.0,-3136.0,3968.0
0.975,-15872.0,-3136.0,4096.0
0.9775,-15872.0,-3200.0,4160.0
0.98,-15872.0,-3200.0,4096.0
0.9825,-15872.0,-3200.0,4096.0
0.985,-15808.0,-3200.0,3968.0
0.9875,-15744.0,-3200.0,3968.0
0.99,-15808.0,-3136.0,4032.0
0.9925,-15808.0,-3200.0,4096.0
0.995,-15808.0,-3200.0,4032.0
0.9975,-15872.0,-3200.0,4032.0
1.0,-15872.0,-3136.0,4096.0
1.0025,-15872.0,-3136.0,4032.0
1.005,-15872.0,-3072.0,4032.0
1.0075,-15872.0,-3136.0,4032.0
1.01,-15808.0,-3200.0,4032.0
1.0125,-15808.0,-3200.0,4096.0
1.015,-15872.0,-3200.0,4032.0
1.0175,-15808.0,-3136.0,4032.0
1.02,-15808.0,-3200.0,4032.0
1.0225,-15808.0,-3200.0,4032.0
1.025,-15808.0,-3136.0,4032.0
1.0275,-15808.0,-3136.0,4096.0
1.03,-15808.0,-3200.0,4096.0
1.0325,-15744.0,-3264.0,4032.0
1.035,-15744.0,-3264.0,4032.0
1.0375,-15808.0,-3200.0,4032.0
1.04,-15808.0,-3136.0,4032.0
1.0425,-15808.0,-3200.0,4096.0
1.045,-15808.0,-3136.0,4032.0
1.0475,-15744.0,-3200.0,4032.0
1.05,-15744.0,-3136.0,3968.0
1.0525,-15744.0,-3136.0,4032.0
1.055,-15744.0,-3136.0,3904.0
1.0575,-15680.0,-3072.0,3904.0
1.06,-15744.0,-3136.0,3968.0
1.0625,-15808.0,-3200.0,4096.0
1.065,-15808.0,-3200.0,4096.0
1.0675,-15808.0,-3200.0,4160.0
1.07,-15872.0,-3200.0,4224.0
1.0725,-15808.0,-3200.0,4160.0
1.075,-15808.0,-3200.0,4160.0
1.0775,-15744.0,-3264.0,4160.0
1.08,-15808.0,-3264.0,4096.0
1.0825,-15744.0,-3200.0,4096.0
1.085,-15808.0,-3200.0,4032.0
1.0875,-15808.0,-3200.0,4032.0
1.09,-15872.0,-3136.0,4032.0
1.0925,-15872.0,-3200.0,3968.0
1.095,-15808.0,-3264.0,3968.0
1.0975,-15872.0,-3200.0,3968.0
1.1,-15872.0,-3264.0,4032.0
1.1025,-15872.0,-3200.0,3968.0
1.105,-15936.0,-3200.0,4032.0
1.1075,-15936.0,-3136.0,3968.0
1.11,-15872.0,-3200.0,4032.0
1.1125,-15936.0,-3200.0,3968.0
1.115,-15936.0,-3200.0,3968.0
1.1175,-16000.0,-3200.0,3904.0
1.12,-16000.0,-3264.0,4032.0
1.1225,-15936.0,-3200.0,4032.0
1.125,-15936.0,-3136.0,3840.0
1.1275,-16000.0,-3136.0,3840.0
1.13,-16000.0,-3200.0,3904.0
1.1325,-16064.0,-3200.0,4032.0
1.135,-16000.0,-3200.0,4032.0
1.1375,-15936.0,-3200.0,3968.0
1.14,-15936.0,-3200.0,3968.0
1.1425,-15936.0,-3200.0,4032.0
1.145,-16000.0,-3264.0,4096.0
1.1475,-15936.0,-3264.0,4096.0
1.15,-15872.0,-3264.0,4096.0
1.1525,-15936.0,-3200.0,4032.0
1.155,-15936.0,-3264.0,4096.0
1.1575,-15872.0,-3264.0,3968.0
1.16,-15872.0,-3264.0,4032.0
1.1625,-15872.0,-3200.0,4032.0
1.165,-15808.0,-3264.0,3968.0
1.1675,-15744.0,-3264.0,3968.0
1.17,-15808.0,-3264.0,3904.0
1.1725,-15808.0,-3200.0,3968.0
1.175,-15808.0,-3200.0,3968.0
1.1775,-15744.0,-3264.0,3904.0
1.18,-15744.0,-3264.0,3968.0
1.1825,-15744.0,-3264.0,3904.0
1.185,-15744.0,-3264.0,3904.0
1.1875,-15744.0,-3264.0,3904.0
1.19,-15744.0,-3264.0,3840.0
1.1925,-15680.0,-3264.0,3904.0
1.195,-15616.0,-3264.0,3904.0
1.1975,-15680.0,-3200.0,3904.0
1.2,-15680.0,-3200.0,3840.0
1.2025,-15680.0,-3200.0,3904.0
1.205,-15744.0,-3200.0,3968.0
1.2075,-15680.0,-3200.0,3904.0
1.21,-15616.0,-3200.0,3840.0
1.2125,-15616.0,-3264.0,3840.0
1.215,-15680.0,-3200.0,3904.0
1.2175,-15680.0,-3200.0,3968.0
1.22,-15680.0,-3200.0,3968.0
1.2225,-15616.0,-3136.0,3840.0
1.225,-15680.0,-3200.0,3904.0
1.2275,-15744.0,-3136.0,3968.0
1.23,-15744.0,-3200.0,3968.0
1.2325,-15744.0,-3200.0,3968.0
1.235,-15744.0,-3200.0,3904.0
1.2375,-15744.0,-3200.0,3904.0
1.24,-15808.0,-3264.0,3840.0
1.2425,-15872.0,-3200.0,3840.0
1.245,-15872.0,-3200.0,3776.0
1.2475,-15872.0,-3200.0,3840.0
1.25,-15936.0,-3200.0,3904.0
1.2525,-15872.0,-3200.0,3904.0
1.255,-15872.0,-3200.0,3840.0
1.2575,-15936.0,-3264.0,3776.0
1.26,-15936.0,-3264.0,3776.0
1.2625,-15872.0,-3200.0,3840.0
1.265,-15936.0,-3200.0,3840.0
1.2675,-15936.0,-3200.0,3840.0
1.27,-15936.0,-3264.0,3840.0
1.2725,-15936.0,-3264.0,3840.0
1.275,-15872.0,-3264.0,3840.0
1.2775,-15936.0,-3200.0,3840.0
1.28,-16000.0,-3264.0,3904.0
1.2825,-15936.0,-3200.0,3904.0
1.285,-15872.0,-3200.0,3840.0
1.2875,-15872.0,-3200.0,3712.0
1.29,-15872.0,-3264.0,3776.0
1.2925,-15936.0,-3264.0,3904.0
1.295,-16000.0,-3264.0,3968.0
1.2975,-16000.0,-3328.0,3968.0
1.3,-16000.0,-3264.0,3840.0
1.3025,-15936.0,-3328.0,3712.0
1.305,-15936.0,-3264.0,3712.0
1.3075,-15936.0,-3264.0,3712.0
1.31,-15936.0,-3328.0,3840.0
1.3125,-15936.0,-3328.0,3840.0
1.315,-15936.0,-3264.0,3840.0
1.3175,-15936.0,-3264.0,3840.0
1.32,-16000.0,-3328.0,3904.0
1.3225,-16064.0,-3264.0,3904.0
1.325,-16000.0,-3264.0,3840.0
1.3275,-15936.0,-3328.0,3840.0
1.33,-15936.0,-3328.0,3840.0
1.3325,-16000.0,-3328.0,3840.0
1.335,-15936.0,-3328.0,3904.0
1.3375,-16000.0,-3328.0,3840.0
1.34,-16000.0,-3264.0,3840.0
1.3425,-16000.0,-3328.0,3840.0
1.345,-15936.0,-3328.0,3840.0
1.3475,-15872.0,-3264.0,3840.0
1.35,-15872.0,-3328.0,3776.0
1.3525,-15808.0,-3264.0,3840.0
1.355,-15872.0,-3200.0,3840.0
1.3575,-15872.0,-3264.0,3840.0
1.36,-16000.0,-3200.0,3968.0
1.3625,-15872.0,-3264.0,3968.0
1.365,-15872.0,-3264.0,3968.0
1.3675,-15872.0,-3264.0,4032.0
1.37,-15936.0,-3264.0,4096.0
1.3725,-15936.0,-3200.0,4032.0
1.375,-15872.0,-3200.0,3904.0
1.3775,-15872.0,-3264.0,3968.0
1.38,-15936.0,-3264.0,4032.0
1.3825,-15872.0,-3264.0,4096.0
1.385,-15808.0,-3200.0,4032.0
1.3875,-15808.0,-3200.0,4032.0
1.39,-15808.0,-3200.0,4032.0
1.3925,-15872.0,-3200.0,4032.0
1.395,-15872.0,-3136.0,3968.0
1.3975,-15808.0,-3136.0,3968.0
1.4,-15872.0,-3200.0,3968.0
1.4025,-15872.0,-3200.0,3968.0
1.405,-15872.0,-3136.0,3968.0
1.4075,-15872.0,-3136.0,3968.0
1.41,-15872.0,-3136.0,3904.0
1.4125,-15808.0,-3136.0,3904.0
1.415,-15808.0,-3136.0,3968.0
1.4175,-15808.0,-3136.0,3904.0
1.42,-15808.0,-3136.0,3968.0
1.4225,-15872.0,-3136.0,3904.0
1.425,-15872.0,-3136.0,3904.0
1.4275,-15872.0,-3136.0,3904.0
1.43,-15872.0,-3200.0,3904.0
1.4325,-15808.0,-3136.0,3904.0
1.435,-15872.0,-3200.0,3968.0
1.4375,-15936.0,-3136.0,3968.0
1.44,-15872.0,-3200.0,4032.0
1.4425,-15936.0,-3136.0,4096.0
1.445,-15872.0,-3200.0,4032.0
1.4475,-15808.0,-3136.0,3968.0
1.45,-15872.0,-3072.0,4032.0
1.4525,-15872.0,-3136.0,4032.0
1.455,-15936.0,-3200.0,4096.0
1.4575,-15936.0,-3136.0,4096.0
1.46,-15808.0,-3136.0,3968.0
1.4625,-15872.0,-3136.0,3968.0
1.465,-15872.0,-3136.0,3968.0
1.4675,-15872.0,-3136.0,3968.0
1.47,-15872.0,-3200.0,4032.0
1.4725,-15936.0,-3136.0,4032.0
1.475,-15936.0,-3136.0,3968.0
1.4775,-15872.0,-3200.0,4032.0
1.48,-15936.0,-3200.0,4032.0
1.4825,-15936.0,-3200.0,4032.0
1.485,-15872.0,-3200.0,4032.0
1.4875,-15808.0,-3136.0,4096.0
1.49,-15872.0,-3200.0,4096.0
1.4925,-15872.0,-3136.0,4032.0
1.495,-15872.0,-3136.0,4032.0
1.4975,-15872.0,-3136.0,4096.0
1.5,-15808.0,-3136.0,4160.0
1.5025,-15872.0,-3136.0,4032.0
1.505,-15872.0,-3136.0,4096.0
1.5075,-15872.0,-3136.0,4032.0
1.51,-15936.0,-3136.0,4032.0
1.5125,-15872.0,-3136.0,3968.0
1.515,-15872.0,-3200.0,4032.0
1.5175,-15872.0,-3200.0,4032.0
1.52,-15872.0,-3264.0,4096.0
1.5225,-15872.0,-3264.0,4096.0
1.525,-15872.0,-3200.0,4032.0
1.5275,-15808.0,-3200.0,3968.0
1.53,-15808.0,-3200.0,3968.0
1.5325,-15808.0,-3264.0,4032.0
1.535,-15808.0,-3264.0,4032.0
1.5375,-15808.0,-3264.0,4032.0
1.54,-15808.0,-3200.0,3968.0
1.5425,-15872.0,-3264.0,3904.0
1.545,-15872.0,-3200.0,3968.0
1.5475,-15808.0,-3136.0,3904.0
1.55,-15808.0,-3200.0,3904.0
1.5525,-15808.0,-3200.0,3968.0
1.555,-15808.0,-3200.0,3968.0
1.5575,-15872.0,-3264.0,3968.0
1.56,-15872.0,-3264.0,3968.0
1.5625,-15808.0,-3264.0,4032.0
1.565,-15808.0,-3264.0,3968.0
1.5675,-15808.0,-3264.0,4032.0
1.57,-15872.0,-3328.0,4032.0
1.5725,-15872.0,-3392.0,3968.0
1.575,-15936.0,-3328.0,3968.0
1.5775,-15936.0,-3264.0,3968.0
1.58,-15936.0,-3328.0,4032.0
1.5825,-15936.0,-3328.0,3968.0
1.585,-15936.0,-3264.0,4032.0
1.5875,-15936.0,-3264.0,3968.0
1.59,-15936.0,-3264.0,3904.0
1.5925,-15872.0,-3264.0,3904.0
1.595,-15872.0,-3264.0,3904.0
1.5975,-15936.0,-3264.0,3968.0
1.6,-16000.0,-3392.0,3904.0
1.6025,-16000.0,-3264.0,3904.0
1.605,-15936.0,-3264.0,3840.0
1.6075,-15936.0,-3200.0,3840.0
1.61,-15872.0,-3264.0,3776.0
1.6125,-15936.0,-3264.0,3904.0
1.615,-15936.0,-3328.0,3968.0
1.6175,-15936.0,-3392.0,3968.0
1.62,-15936.0,-3264.0,3968.0
1.6225,-15872.0,-3264.0,3840.0
1.625,-15872.0,-3200.0,3840.0
1.6275,-15872.0,-3264.0,3904.0
1.63,-15872.0,-3200.0,3904.0
1.6325,-15872.0,-3200.0,3904.0
1.635,-15872.0,-3264.0,3968.0
1.6375,-15872.0,-3200.0,3968.0
1.64,-15872.0,-3264.0,3904.0
1.6425,-15808.0,-3264.0,3904.0
1.645,-15808.0,-3264.0,3904.0
1.6475,-15808.0,-3264.0,3968.0
1.65,-15808.0,-3264.0,3904.0
1.6525,-15808.0,-3328.0,3904.0
1.655,-15808.0,-3328.0,3904.0
1.6575,-15872.0,-3328.0,3904.0
1.66,-15872.0,-3328.0,3904.0
1.6625,-15872.0,-3264.0,3776.0
1.665,-15808.0,-3328.0,3776.0
1.6675,-15872.0,-3328.0,3904.0
1.67,-15872.0,-3328.0,3840.0
1.6725,-15872.0,-3264.0,3840.0
1.675,-15872.0,-3264.0,3840.0
1.6775,-15808.0,-3264.0,3840.0
1.68,-15872.0,-3200.0,3904.0
1.6825,-15808.0,-3264.0,3968.0
1.685,-15744.0,-3264.0,3968.0
1.6875,-15744.0,-3264.0,3904.0
1.69,-15808.0,-3264.0,3904.0
1.6925,-15872.0,-3328.0,3968.0
1.695,-15872.0,-3264.0,3968.0
1.6975,-15872.0,-3200.0,3904.0
1.7,-15872.0,-3264.0,3904.0
1.7025,-15744.0,-3200.0,3776.0
1.705,-15808.0,-3200.0,3776.0
1.7075,-15808.0,-3136.0,3712.0
1.71,-15872.0,-3200.0,3840.0
1.7125,-15872.0,-3200.0,3840.0
1.715,-15872.0,-3200.0,3968.0
1.7175,-15872.0,-3200.0,3968.0
1.72,-15872.0,-3200.0,3904.0
1.7225,-15872.0,-3264.0,3904.0
1.725,-15872.0,-3200.0,3904.0
1.7275,-15936.0,-3264.0,3904.0
1.73,-15936.0,-3264.0,3904.0
1.7325,-15936.0,-3200.0,3968.0
1.735,-15936.0,-3264.0,3840.0
1.7375,-15936.0,-3200.0,3776.0
1.74,-15872.0,-3200.0,3840.0
1.7425,-15872.0,-3264.0,3904.0
1.745,-15872.0,-3200.0,3904.0
1.7475,-15872.0,-3264.0,3840.0
1.75,-15872.0,-3264.0,3840.0
1.7525,-15872.0,-3264.0,3904.0
1.755,-15872.0,-3264.0,3904.0
1.7575,-15872.0,-3264.0,3968.0
1.76,-15936.0,-3264.0,4032.0
1.7625,-15936.0,-3264.0,4032.0
1.765,-15872.0,-3264.0,3904.0
1.7675,-15936.0,-3264.0,3840.0
1.77,-15936.0,-3264.0,3840.0
1.7725,-15936.0,-3328.0,3968.0
1.775,-15936.0,-3328.0,4032.0
1.7775,-15936.0,-3328.0,3968.0
1.78,-15872.0,-3264.0,3840.0
1.7825,-15872.0,-3328.0,3840.0
1.785,-15936.0,-3328.0,3904.0
1.7875,-15872.0,-3264.0,3776.0
1.79,-15872.0,-3328.0,3840.0
1.7925,-15872.0,-3328.0,3904.0
1.795,-15936.0,-3328.0,3904.0
1.7975,-15936.0,-3328.0,3968.0
1.8,-15936.0,-3392.0,3904.0
1.8025,-15936.0,-3328.0,3968.0
1.805,-15936.0,-3328.0,3968.0
1.8075,-15872.0,-3328.0,3968.0
1.81,-15936.0,-3328.0,3904.0
1.8125,-15872.0,-3264.0,3968.0
1.815,-15872.0,-3328.0,3968.0
1.8175,-15872.0,-3328.0,3904.0
1.82,-15936.0,-3328.0,3904.0
1.8225,-15872.0,-3328.0,3968.0
1.825,-15808.0,-3328.0,3968.0
1.8275,-15808.0,-3328.0,3904.0
1.83,-15808.0,-3328.0,3904.0
1.8325,-15808.0,-3328.0,3904.0
1.835,-15872.0,-3392.0,3904.0
1.8375,-15872.0,-3328.0,3968.0
1.84,-16000.0,-3264.0,4032.0
1.8425,-15936.0,-3328.0,4032.0
1.845,-15872.0,-3328.0,3968.0
1.8475,-15808.0,-3264.0,3968.0
1.85,-15744.0,-3264.0,3904.0
1.8525,-15808.0,-3264.0,3904.0
1.855,-15936.0,-3328.0,4032.0
1.8575,-15872.0,-3328.0,4096.0
1.86,-15808.0,-3328.0,3968.0
1.8625,-15808.0,-3328.0,3904.0
1.865,-15808.0,-3392.0,3968.0
1.8675,-15808.0,-3264.0,3904.0
1.87,-15808.0,-3328.0,3904.0
1.8725,-15744.0,-3328.0,3968.0
1.875,-15808.0,-3328.0,4032.0
1.8775,-15744.0,-3264.0,4032.0
1.88,-15808.0,-3264.0,3968.0
1.8825,-15808.0,-3264.0,3968.0
1.885,-15808.0,-3328.0,3968.0
1.8875,-15808.0,-3264.0,4032.0
1.89,-15808.0,-3264.0,3968.0
1.8925,-15808.0,-3264.0,4096.0
1.895,-15808.0,-3264.0,4032.0
1.8975,-15808.0,-3264.0,3968.0
1.9,-15808.0,-3264.0,3968.0
1.9025,-15808.0,-3264.0,3968.0
1.905,-15808.0,-3264.0,3968.0
1.9075,-15808.0,-3264.0,3968.0
1.91,-15808.0,-3264.0,3968.0
1.9125,-15808.0,-3264.0,4032.0
1.915,-15808.0,-3264.0,4032.0
1.9175,-15872.0,-3200.0,4032.0
1.92,-15808.0,-3200.0,4032.0
1.9225,-15808.0,-3200.0,3968.0
1.925,-15808.0,-3136.0,4032.0
1.9275,-15872.0,-3328.0,4160.0
1.93,-15936.0,-3264.0,4160.0
1.9325,-15808.0,-3328.0,4096.0
1.935,-15744.0,-3200.0,3968.0
1.9375,-15744.0,-3264.0,3968.0
1.94,-15872.0,-3328.0,4032.0
1.9425,-15872.0,-3328.0,4096.0
1.945,-15872.0,-3328.0,4032.0
1.9475,-15808.0,-3264.0,4032.0
1.95,-15872.0,-3264.0,4032.0
1.9525,-15808.0,-3264.0,4032.0
1.955,-15808.0,-3264.0,3968.0
1.9575,-15808.0,-3264.0,3904.0
1.96,-15808.0,-3264.0,3968.0
1.9625,-15808.0,-3264.0,3968.0
1.965,-15808.0,-3328.0,3968.0
1.9675,-15808.0,-3264.0,4032.0
1.97,-15808.0,-3264.0,3968.0
1.9725,-15744.0,-3264.0,3968.0
1.975,-15808.0,-3264.0,4032.0
1.9775,-15744.0,-3264.0,4032.0
1.98,-15808.0,-3264.0,3968.0
1.9825,-15808.0,-3200.0,3904.0
1.985,-15808.0,-3264.0,3968.0
1.9875,-15808.0,-3264.0,3904.0
1.99,-15872.0,-3264.0,3968.0
1.9925,-15872.0,-3264.0,3968.0
1.995,-15872.0,-3264.0,3968.0
1.9975,-15872.0,-3328.0,3968.0
2.0,-15936.0,-3392.0,4032.0
2.0025,-15872.0,-3328.0,4032.0
2.005,-15808.0,-3328.0,3968.0
2.0075,-15744.0,-3328.0,3840.0
2.01,-15744.0,-3392.0,3840.0
2.0125,-15808.0,-3392.0,3904.0
2.015,-15808.0,-3328.0,3904.0
2.0175,-15872.0,-3328.0,3968.0
2.02,-15936.0,-3328.0,3968.0
2.0225,-15936.0,-3328.0,3968.0
2.025,-15808.0,-3264.0,3840.0
2.0275,-15808.0,-3328.0,3904.0
2.03,-15808.0,-3328.0,3904.0
2.0325,-15808.0,-3328.0,3968.0
2.035,-15872.0,-3264.0,3904.0
2.0375,-15808.0,-3264.0,3904.0
2.04,-15808.0,-3264.0,3904.0
2.0425,-15872.0,-3328.0,3904.0
2.045,-15872.0,-3328.0,3904.0
2.0475,-15808.0,-3328.0,3968.0
2.05,-15808.0,-3328.0,3904.0
2.0525,-15808.0,-3392.0,3840.0
2.055,-15808.0,-3392.0,3968.0
2.0575,-15808.0,-3328.0,3904.0
2.06,-15808.0,-3264.0,3968.0
2.0625,-15808.0,-3264.0,3968.0
2.065,-15872.0,-3264.0,4032.0
2.0675,-15936.0,-3200.0,3904.0
2.07,-15872.0,-3264.0,3904.0
2.0725,-15872.0,-3264.0,3904.0
2.075,-15872.0,-3200.0,3840.0
2.0775,-15872.0,-3200.0,3904.0
2.08,-15936.0,-3328.0,3968.0
2.0825,-15872.0,-3328.0,3968.0
2.085,-15872.0,-3264.0,3840.0
2.0875,-15936.0,-3264.0,3776.0
2.09,-16000.0,-3328.0,3840.0
2.0925,-16000.0,-3328.0,3840.0
2.095,-15936.0,-3392.0,3904.0
2.0975,-16000.0,-3328.0,3840.0
2.1,-15872.0,-3328.0,3776.0
2.1025,-15936.0,-3328.0,3904.0
2.105,-16000.0,-3264.0,4032.0
2.1075,-16000.0,-3264.0,3904.0
2.11,-15872.0,-3264.0,3968.0
2.1125,-15872.0,-3264.0,3968.0
2.115,-15872.0,-3264.0,3968.0
2.1175,-15872.0,-3200.0,4032.0
2.12,-15872.0,-3264.0,4032.0
2.1225,-15808.0,-3264.0,4096.0
2.125,-15808.0,-3264.0,4032.0
2.1275,-15744.0,-3264.0,4032.0
2.13,-15744.0,-3264.0,3968.0
2.1325,-15808.0,-3264.0,3968.0
2.135,-15744.0,-3200.0,3968.0
2.1375,-15744.0,-3264.0,3904.0
2.14,-15808.0,-3264.0,3968.0
2.1425,-15744.0,-3264.0,3968.0
2.145,-15744.0,-3264.0,3968.0
2.1475,-15744.0,-3264.0,3968.0
2.15,-15744.0,-3264.0,3968.0
2.1525,-15680.0,-3200.0,3840.0
2.155,-15744.0,-3200.0,3904.0
2.1575,-15680.0,-3200.0,3904.0
2.16,-15680.0,-3264.0,3968.0
2.1625,-15744.0,-3264.0,3904.0
2.165,-15616.0,-3200.0,3904.0
2.1675,-15616.0,-3136.0,3904.0
2.17,-15616.0,-3200.0,3904.0
2.1725,-15680.0,-3200.0,4032.0
2.175,-15744.0,-3264.0,3968.0
2.1775,-15616.0,-3200.0,3840.0
2.18,-15680.0,-3200.0,3840.0
2.1825,-15616.0,-3264.0,3904.0
2.185,-15680.0,-3200.0,3840.0
2.1875,-15680.0,-3200.0,3840.0
2.19,-15744.0,-3200.0,3840.0
2.1925,-15680.0,-3200.0,3904.0
2.195,-15680.0,-3200.0,3904.0
2.1975,-15680.0,-3200.0,3968.0
2.2,-15680.0,-3200.0,3968.0
2.2025,-15744.0,-3200.0,3968.0
2.205,-15744.0,-3264.0,3968.0
2.2075,-15808.0,-3264.0,3968.0
2.21,-15808.0,-3264.0,3904.0
2.2125,-15872.0,-3200.0,3968.0
2.215,-15808.0,-3200.0,3840.0
2.2175,-15872.0,-3200.0,3904.0
2.22,-15872.0,-3200.0,3968.0
2.2225,-15872.0,-3200.0,3968.0
2.225,-15872.0,-3200.0,4032.0
2.2275,-15936.0,-3200.0,3968.0
2.23,-15872.0,-3136.0,3904.0
2.2325,-15936.0,-3136.0,3904.0
2.235,-15936.0,-3136.0,3968.0
2.2375,-15872.0,-3264.0,3904.0
2.24,-15936.0,-3264.0,4032.0
2.2425,-15936.0,-3264.0,3968.0
2.245,-15872.0,-3200.0,3904.0
2.2475,-15872.0,-3264.0,3840.0
2.25,-15936.0,-3200.0,3904.0
2.2525,-16000.0,-3328.0,3968.0
2.255,-16000.0,-3264.0,3904.0
2.2575,-16000.0,-3264.0,3968.0
2.26,-16064.0,-3264.0,3904.0
2.2625,-15936.0,-3200.0,3904.0
2.265,-16064.0,-3200.0,3904.0
2.2675,-15936.0,-3264.0,3904.0
2.27,-15936.0,-3200.0,3904.0
2.2725,-16000.0,-3264.0,3968.0
2.275,-16000.0,-3264.0,3968.0
2.2775,-16064.0,-3264.0,3904.0
2.28,-16000.0,-3264.0,3968.0
2.2825,-16000.0,-3264.0,3968.0
2.285,-15936.0,-3328.0,3968.0
2.2875,-15872.0,-3328.0,3968.0
2.29,-15936.0,-3328.0,3904.0
2.2925,-15872.0,-3264.0,3904.0
2.295,-15872.0,-3264.0,3968.0
2.2975,-15872.0,-3264.0,3904.0
2.3,-15872.0,-3264.0,3968.0
2.3025,-15872.0,-3264.0,3968.0
2.305,-15872.0,-3264.0,3968.0
2.3075,-15808.0,-3328.0,4032.0
2.31,-15808.0,-3264.0,3968.0
2.3125,-15808.0,-3328.0,3968.0
2.315,-15808.0,-3328.0,3968.0
2.3175,-15744.0,-3264.0,3968.0
2.32,-15744.0,-3200.0,4032.0
2.3225,-15872.0,-3264.0,4096.0
2.325,-15808.0,-3264.0,3968.0
2.3275,-15680.0,-3200.0,3904.0
2.33,-15680.0,-3264.0,3904.0
2.3325,-15680.0,-3200.0,3968.0
2.335,-15680.0,-3136.0,3968.0
2.3375,-15680.0,-3136.0,3968.0
2.34,-15744.0,-3200.0,4096.0
2.3425,-15808.0,-3200.0,4160.0
2.345,-15808.0,-3200.0,4096.0
2.3475,-15744.0,-3200.0,3968.0
2.35,-15744.0,-3200.0,3968.0
2.3525,-15744.0,-3136.0,4032.0
2.355,-15744.0,-3136.0,4032.0
2.3575,-15744.0,-3200.0,4096.0
2.36,-15744.0,-3200.0,4032.0
2.3625,-15680.0,-3200.0,4032.0
2.365,-15744.0,-3200.0,4032.0
2.3675,-15744.0,-3200.0,4032.0
2.37,-15744.0,-3136.0,3968.0
2.3725,-15744.0,-3200.0,4032.0
2.375,-15808.0,-3136.0,4032.0
2.3775,-15744.0,-3072.0,3968.0
2.38,-15744.0,-3136.0,4032.0
2.3825,-15808.0,-3136.0,4032.0
2.385,-15744.0,-3136.0,4032.0
2.3875,-15744.0,-3136.0,4032.0
2.39,-15744.0,-3200.0,4032.0
2.3925,-15808.0,-3136.0,3968.0
2.395,-15808.0,-3136.0,3904.0
2.3975,-15808.0,-3136.0,3968.0
2.4,-15872.0,-3200.0,4032.0
2.4025,-15872.0,-3200.0,4096.0
2.405,-15808.0,-3136.0,3968.0
2.4075,-15744.0,-3200.0,3904.0
2.41,-15808.0,-3200.0,3904.0
2.4125,-15872.0,-3200.0,3968.0
2.415,-15872.0,-3200.0,4032.0
2.4175,-15808.0,-3264.0,3968.0
2.42,-15744.0,-3200.0,3968.0
2.4225,-15808.0,-3136.0,3968.0
2.425,-15872.0,-3136.0,4032.0
2.4275,-15872.0,-3136.0,3968.0
2.43,-15808.0,-3136.0,3968.0
2.4325,-15872.0,-3136.0,4032.0
2.435,-15936.0,-3136.0,4096.0
2.4375,-15872.0,-3136.0,4032.0
2.44,-15872.0,-3072.0,4096.0
2.4425,-15808.0,-3136.0,4032.0
2.445,-15808.0,-3136.0,4032.0
2.4475,-15936.0,-3136.0,4032.0
2.45,-15936.0,-3136.0,4032.0
2.4525,-15936.0,-3200.0,3968.0
2.455,-15872.0,-3136.0,3968.0
2.4575,-15808.0,-3200.0,3968.0
2.46,-15808.0,-3136.0,3968.0
2.4625,-15808.0,-3136.0,4032.0
2.465,-15808.0,-3200.0,4032.0
2.4675,-15808.0,-3200.0,3968.0
2.47,-15872.0,-3200.0,3968.0
2.4725,-15872.0,-3136.0,3904.0
2.475,-15872.0,-3200.0,3968.0
2.4775,-15872.0,-3200.0,3968.0
2.48,-15808.0,-3200.0,3968.0
2.4825,-15808.0,-3200.0,4032.0
2.485,-15744.0,-3200.0,4096.0
2.4875,-15744.0,-3200.0,4032.0
2.49,-15744.0,-3200.0,3904.0
2.4925,-15744.0,-3200.0,3968.0
2.495,-15808.0,-3264.0,4032.0
2.4975,-15808.0,-3264.0,4032.0
2.5,-15808.0,-3200.0,3904.0
2.5025,-15680.0,-3200.0,3840.0
2.505,-15744.0,-3264.0,3904.0
2.5075,-15744.0,-3200.0,3968.0
2.51,-15744.0,-3200.0,3968.0
2.5125,-15744.0,-3200.0,3968.0
2.515,-15744.0,-3200.0,3904.0
2.5175,-15744.0,-3200.0,3904.0
2.52,-15808.0,-3200.0,3968.0
2.5225,-15808.0,-3200.0,4032.0
2.525,-15808.0,-3264.0,3968.0
2.5275,-15808.0,-3264.0,3968.0
2.53,-15872.0,-3264.0,3968.0
2.5325,-15872.0,-3200.0,4032.0
2.535,-15872.0,-3200.0,3968.0
2.5375,-15744.0,-3264.0,4032.0
2.54,-15808.0,-3200.0,4032.0
2.5425,-15872.0,-3264.0,4032.0
2.545,-15872.0,-3264.0,3904.0
2.5475,-15872.0,-3200.0,4032.0
2.55,-15872.0,-3200.0,3968.0
2.5525,-15872.0,-3200.0,3904.0
2.555,-15936.0,-3264.0,3968.0
2.5575,-15936.0,-3200.0,3968.0
2.56,-15936.0,-3264.0,3968.0
2.5625,-15872.0,-3264.0,3968.0
2.565,-15872.0,-3200.0,3968.0
2.5675,-15872.0,-3200.0,3840.0
2.57,-15936.0,-3264.0,3904.0
2.5725,-15936.0,-3264.0,3968.0
2.575,-16064.0,-3328.0,4032.0
2.5775,-16064.0,-3328.0,3968.0
2.58,-15936.0,-3328.0,3904.0
2.5825,-16000.0,-3328.0,3904.0
2.585,-16000.0,-3328.0,3968.0
2.5875,-16064.0,-3328.0,3968.0
2.59,-16000.0,-3328.0,4032.0
2.5925,-16000.0,-3328.0,4096.0
2.595,-16000.0,-3328.0,4096.0
2.5975,-15936.0,-3264.0,4096.0
2.6,-15872.0,-3264.0,4160.0
2.6025,-15872.0,-3264.0,4096.0
2.605,-15808.0,-3264.0,4096.0
2.6075,-15808.0,-3264.0,4096.0
2.61,-15808.0,-3264.0,4032.0
2.6125,-15744.0,-3264.0,4160.0
2.615,-15808.0,-3200.0,4096.0
2.6175,-15808.0,-3264.0,4096.0
2.62,-15744.0,-3200.0,4096.0
2.6225,-15680.0,-3200.0,4096.0
2.625,-15680.0,-3200.0,4032.0
2.6275,-15680.0,-3200.0,4032.0
2.63,-15680.0,-3264.0,4096.0
2.6325,-15616.0,-3200.0,4032.0
2.635,-15616.0,-3264.0,4032.0
2.6375,-15616.0,-3264.0,4032.0
2.64,-15616.0,-3200.0,3904.0
2.6425,-15616.0,-3136.0,3904.0
2.645,-15616.0,-3136.0,3904.0
2.6475,-15680.0,-3200.0,4032.0
2.65,-15680.0,-3264.0,4032.0
2.6525,-15616.0,-3264.0,4032.0
2.655,-15552.0,-3200.0,3904.0
2.6575,-15552.0,-3136.0,3904.0
2.66,-15552.0,-3200.0,3968.0
2.6625,-15680.0,-3200.0,4096.0
2.665,-15616.0,-3200.0,4032.0
2.6675,-15616.0,-3264.0,3968.0
2.67,-15616.0,-3200.0,3904.0
2.6725,-15680.0,-3264.0,3968.0
2.675,-15680.0,-3264.0,4032.0
2.6775,-15744.0,-3264.0,4096.0
2.68,-15744.0,-3264.0,4032.0
2.6825,-15744.0,-3264.0,3968.0
2.685,-15744.0,-3264.0,3968.0
2.6875,-15808.0,-3264.0,4032.0
2.69,-15744.0,-3264.0,4032.0
2.6925,-15808.0,-3200.0,4032.0
2.695,-15808.0,-3200.0,3968.0
2.6975,-15872.0,-3200.0,4032.0
2.7,-15872.0,-3264.0,4032.0
2.7025,-15808.0,-3264.0,4032.0
2.705,-15936.0,-3200.0,4032.0
2.7075,-15936.0,-3200.0,4032.0
2.71,-15936.0,-3264.0,4032.0
2.7125,-15936.0,-3328.0,4096.0
2.715,-16000.0,-3328.0,4096.0
2.7175,-16000.0,-3328.0,4096.0
2.72,-16000.0,-3328.0,4032.0
2.7225,-15936.0,-3264.0,3968.0
2.725,-15936.0,-3264.0,3968.0
2.7275,-15936.0,-3200.0,3840.0
2.73,-15936.0,-3200.0,3904.0
2.7325,-16000.0,-3200.0,3968.0
2.735,-16000.0,-3264.0,4032.0
2.7375,-16000.0,-3264.0,3968.0
2.74,-15936.0,-3264.0,3904.0
2.7425,-16000.0,-3328.0,3968.0
2.745,-16000.0,-3328.0,3904.0
2.7475,-16000.0,-3328.0,3968.0
2.75,-16000.0,-3328.0,3904.0
2.7525,-15936.0,-3328.0,3904.0
2.755,-15936.0,-3264.0,3968.0
2.7575,-15872.0,-3264.0,3904.0
2.76,-15936.0,-3328.0,3968.0
2.7625,-15936.0,-3328.0,3968.0
2.765,-15936.0,-3264.0,4032.0
2.7675,-15872.0,-3328.0,3968.0
2.77,-15936.0,-3264.0,4032.0
2.7725,-15872.0,-3264.0,3968.0
2.775,-15872.0,-3328.0,4032.0
2.7775,-15808.0,-3328.0,4032.0
2.78,-15808.0,-3328.0,3968.0
2.7825,-15808.0,-3328.0,4032.0
2.785,-15744.0,-3328.0,4032.0
2.7875,-15744.0,-3328.0,4096.0
2.79,-15744.0,-3328.0,4032.0
2.7925,-15808.0,-3392.0,4160.0
2.795,-15808.0,-3328.0,4160.0
2.7975,-15680.0,-3264.0,4096.0
2.8,-15680.0,-3264.0,3968.0
2.8025,-15744.0,-3264.0,4032.0
2.805,-15808.0,-3328.0,4224.0
2.8075,-15744.0,-3264.0,4160.0
2.81,-15680.0,-3264.0,4032.0
2.8125,-15616.0,-3264.0,3968.0
2.815,-15616.0,-3264.0,4032.0
2.8175,-15680.0,-3200.0,3968.0
2.82,-15680.0,-3136.0,3968.0
2.8225,-15680.0,-3136.0,3968.0
2.825,-15680.0,-3200.0,4032.0
2.8275,-15680.0,-3136.0,3968.0
2.83,-15680.0,-3136.0,4032.0
2.8325,-15680.0,-3136.0,4032.0
2.835,-15744.0,-3200.0,4096.0
2.8375,-15744.0,-3200.0,4096.0
2.84,-15744.0,-3200.0,4032.0
2.8425,-15744.0,-3136.0,4032.0
2.845,-15744.0,-3136.0,3968.0
2.8475,-15680.0,-3200.0,4032.0
2.85,-15744.0,-3264.0,4032.0
2.8525,-15744.0,-3264.0,4032.0
2.855,-15744.0,-3264.0,4032.0
2.8575,-15744.0,-3264.0,3968.0
2.86,-15808.0,-3200.0,3968.0
2.8625,-15744.0,-3264.0,3968.0
2.865,-15808.0,-3264.0,3968.0
2.8675,-15808.0,-3200.0,4032.0
2.87,-15808.0,-3264.0,3968.0
2.8725,-15808.0,-3200.0,4032.0
2.875,-15936.0,-3200.0,3968.0
2.8775,-15872.0,-3264.0,4096.0
2.88,-15872.0,-3328.0,4032.0
2.8825,-15808.0,-3264.0,3968.0
2.885,-15872.0,-3264.0,3904.0
2.8875,-15808.0,-3264.0,3968.0
2.89,-15936.0,-3328.0,3968.0
2.8925,-15936.0,-3328.0,3968.0
2.895,-15872.0,-3264.0,3968.0
2.8975,-15872.0,-3328.0,3840.0
2.9,-15936.0,-3264.0,3840.0
2.9025,-15872.0,-3264.0,3840.0
2.905,-15872.0,-3328.0,3968.0
2.9075,-15872.0,-3328.0,3904.0
2.91,-15872.0,-3264.0,3968.0
2.9125,-15936.0,-3264.0,3904.0
2.915,-15936.0,-3264.0,3904.0
2.9175,-15872.0,-3328.0,3968.0
2.92,-15872.0,-3264.0,3904.0
2.9225,-15808.0,-3200.0,3968.0
2.925,-15808.0,-3264.0,3968.0
2.9275,-15808.0,-3264.0,3968.0
2.93,-15872.0,-3328.0,3968.0
2.9325,-15808.0,-3264.0,3968.0
2.935,-15808.0,-3328.0,4032.0
2.9375,-15808.0,-3264.0,3968.0
2.94,-15808.0,-3328.0,3968.0
2.9425,-15808.0,-3392.0,3968.0
2.945,-15808.0,-3392.0,3904.0
2.9475,-15808.0,-3328.0,3968.0
2.95,-15744.0,-3328.0,3968.0
2.9525,-15744.0,-3328.0,4032.0
2.955,-15744.0,-3264.0,4032.0
2.9575,-15744.0,-3264.0,4032.0
2.96,-15680.0,-3264.0,3968.0
2.9625,-15744.0,-3328.0,4032.0
2.965,-15744.0,-3264.0,3904.0
2.9675,-15744.0,-3264.0,3968.0
2.97,-15808.0,-3328.0,4096.0
2.9725,-15808.0,-3328.0,4160.0
2.975,-15744.0,-3264.0,4032.0
2.9775,-15744.0,-3264.0,3968.0
2.98,-15680.0,-3264.0,4032.0
2.9825,-15680.0,-3328.0,3968.0
2.985,-15744.0,-3328.0,3968.0
2.9875,-15744.0,-3264.0,3968.0
2.99,-15616.0,-3264.0,3904.0
2.9925,-15680.0,-3264.0,3904.0
2.995,-15680.0,-3328.0,3968.0
2.9975,-15680.0,-3328.0,3968.0
3.0,-15680.0,-3328.0,3968.0
3.0025,-15744.0,-3264.0,3968.0
3.005,-15744.0,-3328.0,3968.0
3.0075,-15808.0,-3328.0,3904.0
3.01,-15808.0,-3328.0,3968.0
3.0125,-15808.0,-3328.0,3904.0
3.015,-15744.0,-3264.0,3968.0
3.0175,-15808.0,-3264.0,4032.0
3.02,-15808.0,-3264.0,3968.0
3.0225,-15808.0,-3328.0,4032.0
3.025,-15872.0,-3328.0,4032.0
3.0275,-15872.0,-3328.0,4032.0
3.03,-15936.0,-3392.0,4032.0
3.0325,-15936.0,-3392.0,4032.0
3.035,-15872.0,-3328.0,3904.0
3.0375,-15872.0,-3328.0,3904.0
3.04,-15872.0,-3328.0,3904.0
3.0425,-16000.0,-3328.0,4032.0
3.045,-15936.0,-3328.0,3968.0
3.0475,-15936.0,-3264.0,4032.0
3.05,-15872.0,-3264.0,3840.0
3.0525,-15936.0,-3328.0,3904.0
3.055,-16064.0,-3328.0,3968.0
3.0575,-16000.0,-3328.0,4096.0
3.06,-16064.0,-3392.0,4032.0
3.0625,-16064.0,-3392.0,3968.0
3.065,-16128.0,-3328.0,3968.0
3.0675,-16128.0,-3392.0,4032.0
3.07,-16064.0,-3456.0,3968.0
3.0725,-16128.0,-3456.0,3968.0
3.075,-16128.0,-3456.0,4032.0
3.0775,-16128.0,-3392.0,4032.0
3.08,-16064.0,-3328.0,4032.0
3.0825,-16128.0,-3328.0,4032.0
3.085,-16064.0,-3392.0,4032.0
3.0875,-16064.0,-3328.0,4096.0
3.09,-16064.0,-3392.0,4096.0
3.0925,-16064.0,-3392.0,4032.0
3.095,-16000.0,-3392.0,4096.0
3.0975,-15936.0,-3392.0,4032.0
3.1,-15936.0,-3392.0,4032.0
3.1025,-15872.0,-3392.0,4032.0
3.105,-15936.0,-3328.0,4096.0
3.1075,-15872.0,-3328.0,4032.0
3.11,-15936.0,-3328.0,4032.0
3.1125,-16000.0,-3392.0,4096.0
3.115,-15936.0,-3328.0,3968.0
3.1175,-15808.0,-3264.0,3968.0
3.12,-15808.0,-3328.0,3904.0
3.1225,-15872.0,-3328.0,3968.0
3.125,-15936.0,-3328.0,4096.0
3.1275,-15872.0,-3328.0,3968.0
3.13,-15936.0,-3392.0,4096.0
3.1325,-15872.0,-3392.0,3968.0
3.135,-15744.0,-3328.0,3904.0
3.1375,-15872.0,-3328.0,3968.0
3.14,-15808.0,-3328.0,4032.0
3.1425,-15808.0,-3328.0,4096.0
3.145,-15744.0,-3328.0,4032.0
3.1475,-15808.0,-3328.0,4096.0
3.15,-15808.0,-3328.0,4224.0
3.1525,-15808.0,-3328.0,4224.0
3.155,-15808.0,-3392.0,4160.0
3.1575,-15872.0,-3328.0,4160.0
3.16,-15808.0,-3328.0,4096.0
3.1625,-15808.0,-3264.0,4160.0
3.165,-15744.0,-3328.0,4224.0
3.1675,-15808.0,-3328.0,4224.0
3.17,-15872.0,-3392.0,4224.0
3.1725,-15872.0,-3328.0,4224.0
3.175,-15872.0,-3392.0,4224.0
3.1775,-15872.0,-3392.0,4224.0
3.18,-15872.0,-3392.0,4224.0
3.1825,-15872.0,-3392.0,4224.0
3.185,-15872.0,-3392.0,4224.0
3.1875,-15872.0,-3392.0,4224.0
3.19,-15872.0,-3456.0,4224.0
3.1925,-15936.0,-3392.0,4224.0
3.195,-16000.0,-3456.0,4288.0
3.1975,-15936.0,-3456.0,4352.0
3.2,-15808.0,-3456.0,4288.0
3.2025,-15872.0,-3456.0,4224.0
3.205,-15936.0,-3520.0,4352.0
3.2075,-15872.0,-3520.0,4416.0
3.21,-15808.0,-3456.0,4416.0
3.2125,-15872.0,-3456.0,4416.0
3.215,-15936.0,-3520.0,4544.0
3.2175,-15808.0,-3456.0,4544.0
3.22,-15744.0,-3520.0,4352.0
3.2225,-15872.0,-3456.0,4288.0
3.225,-15808.0,-3392.0,4288.0
3.2275,-15808.0,-3328.0,4288.0
3.23,-15808.0,-3328.0,4288.0
3.2325,-15808.0,-3264.0,4352.0
3.235,-15808.0,-3264.0,4352.0
3.2375,-15808.0,-3200.0,4288.0
3.24,-15872.0,-3264.0,4352.0
3.2425,-15936.0,-3264.0,4416.0
3.245,-15872.0,-3264.0,4480.0
3.2475,-15872.0,-3264.0,4480.0
3.25,-15872.0,-3200.0,4544.0
3.2525,-15808.0,-3200.0,4544.0
3.255,-15808.0,-3200.0,4672.0
3.2575,-15872.0,-3136.0,4672.0
3.26,-15808.0,-3136.0,4672.0
3.2625,-15808.0,-3136.0,4736.0
3.265,-15744.0,-3136.0,4736.0
3.2675,-15744.0,-3200.0,4800.0
3.27,-15744.0,-3200.0,4736.0
3.2725,-15872.0,-3328.0,4736.0
3.275,-15808.0,-3264.0,4672.0
3.2775,-15680.0,-3264.0,4608.0
3.28,-15680.0,-3200.0,4544.0
3.2825,-15680.0,-3328.0,4544.0
3.285,-15808.0,-3328.0,4608.0
3.2875,-15808.0,-3264.0,4480.0
3.29,-15744.0,-3264.0,4352.0
3.2925,-15744.0,-3264.0,4352.0
3.295,-15808.0,-3264.0,4352.0
3.2975,-15744.0,-3264.0,4352.0
3.3,-15808.0,-3328.0,4352.0
3.3025,-15872.0,-3328.0,4416.0
3.305,-15808.0,-3328.0,4352.0
3.3075,-15808.0,-3328.0,4416.0
3.31,-15808.0,-3264.0,4288.0
3.3125,-15808.0,-3328.0,4352.0
3.315,-15744.0,-3328.0,4416.0
3.3175,-15680.0,-3264.0,4416.0
3.32,-15680.0,-3264.0,4480.0
3.3225,-15680.0,-3328.0,4544.0
3.325,-15616.0,-3264.0,4608.0
3.3275,-15616.0,-3264.0,4544.0
3.33,-15616.0,-3328.0,4544.0
3.3325,-15552.0,-3328.0,4608.0
3.335,-15552.0,-3392.0,4608.0
3.3375,-15616.0,-3456.0,4608.0
3.34,-15552.0,-3456.0,4544.0
3.3425,-15552.0,-3456.0,4672.0
3.345,-15552.0,-3456.0,4672.0
3.3475,-15552.0,-3392.0,4608.0
3.35,-15552.0,-3392.0,4672.0
3.3525,-15552.0,-3392.0,4736.0
3.355,-15616.0,-3328.0,4672.0
3.3575,-15552.0,-3392.0,4672.0
3.36,-15552.0,-3328.0,4608.0
3.3625,-15552.0,-3392.0,4672.0
3.365,-15616.0,-3392.0,4736.0
3.3675,-15552.0,-3392.0,4672.0
3.37,-15552.0,-3392.0,4672.0
3.3725,-15552.0,-3456.0,4672.0
3.375,-15488.0,-3456.0,4608.0
3.3775,-15424.0,-3456.0,4608.0
3.38,-15424.0,-3392.0,4544.0
3.3825,-15488.0,-3392.0,4608.0
3.385,-15552.0,-3392.0,4608.0
3.3875,-15488.0,-3520.0,4672.0
3.39,-15424.0,-3456.0,4800.0
3.3925,-15424.0,-3520.0,4736.0
3.395,-15424.0,-3456.0,4736.0
3.3975,-15488.0,-3456.0,4736.0
3.4,-15488.0,-3520.0,4672.0
3.4025,-15424.0,-3520.0,4736.0
3.405,-15424.0,-3584.0,4672.0
3.4075,-15424.0,-3520.0,4672.0
3.41,-15424.0,-3584.0,4608.0
3.4125,-15360.0,-3584.0,4608.0
3.415,-15360.0,-3648.0,4544.0
3.4175,-15360.0,-3648.0,4480.0
3.42,-15296.0,-3584.0,4544.0
3.4225,-15296.0,-3520.0,4544.0
3.425,-15296.0,-3520.0,4480.0
3.4275,-15296.0,-3520.0,4480.0
3.43,-15296.0,-3520.0,4480.0
3.4325,-15360.0,-3584.0,4480.0
3.435,-15296.0,-3456.0,4480.0
3.4375,-15232.0,-3456.0,4416.0
3.44,-15168.0,-3392.0,4352.0
3.4425,-15168.0,-3456.0,4352.0
3.445,-15168.0,-3456.0,4480.0
3.4475,-15104.0,-3456.0,4416.0
3.45,-15040.0,-3392.0,4352.0
3.4525,-14976.0,-3392.0,4288.0
3.455,-15040.0,-3456.0,4352.0
3.4575,-15104.0,-3456.0,4352.0
3.46,-15040.0,-3456.0,4480.0
3.4625,-15040.0,-3456.0,4416.0
3.465,-15040.0,-3456.0,4352.0
3.4675,-15104.0,-3584.0,4352.0
3.47,-15040.0,-3456.0,4352.0
3.4725,-14976.0,-3392.0,4288.0
3.475,-14912.0,-3392.0,4288.0
3.4775,-14976.0,-3392.0,4352.0
3.48,-14976.0,-3456.0,4352.0
3.4825,-14912.0,-3456.0,4288.0
3.485,-14912.0,-3456.0,4288.0
3.4875,-14848.0,-3392.0,4352.0
3.49,-14848.0,-3392.0,4288.0
3.4925,-14784.0,-3328.0,4352.0
3.495,-14784.0,-3392.0,4352.0
3.4975,-14784.0,-3328.0,4416.0
3.5,-14784.0,-3328.0,4416.0
3.5025,-14784.0,-3328.0,4416.0
3.505,-14784.0,-3328.0,4352.0
3.5075,-14784.0,-3328.0,4416.0
3.51,-14784.0,-3328.0,4416.0
3.5125,-14848.0,-3264.0,4480.0
3.515,-14784.0,-3264.0,4480.0
3.5175,-14720.0,-3264.0,4480.0
3.52,-14720.0,-3200.0,4288.0
3.5225,-14720.0,-3200.0,4352.0
3.525,-14784.0,-3264.0,4416.0
3.5275,-14784.0,-3264.0,4544.0
3.53,-14784.0,-3264.0,4480.0
3.5325,-14784.0,-3200.0,4352.0
3.535,-14656.0,-3200.0,4352.0
3.5375,-14656.0,-3264.0,4480.0
3.54,-14656.0,-3200.0,4480.0
3.5425,-14656.0,-3200.0,4480.0
3.545,-14592.0,-3200.0,4480.0
3.5475,-14656.0,-3200.0,4480.0
3.55,-14592.0,-3200.0,4416.0
3.5525,-14592.0,-3200.0,4416.0
3.555,-14528.0,-3264.0,4416.0
3.5575,-14528.0,-3200.0,4416.0
3.56,-14464.0,-3200.0,4416.0
3.5625,-14464.0,-3200.0,4480.0
3.565,-14400.0,-3200.0,4480.0
3.5675,-14400.0,-3200.0,4416.0
3.57,-14336.0,-3200.0,4480.0
3.5725,-14272.0,-3136.0,4480.0
3.575,-14208.0,-3136.0,4544.0
3.5775,-14144.0,-3136.0,4480.0
3.58,-14080.0,-3136.0,4480.0
3.5825,-14080.0,-3072.0,4480.0
3.585,-14016.0,-3072.0,4544.0
3.5875,-14016.0,-3072.0,4544.0
3.59,-14016.0,-3136.0,4544.0
3.5925,-14016.0,-3072.0,4480.0
3.595,-14016.0,-3136.0,4672.0
3.5975,-14016.0,-3008.0,4608.0
3.6,-13952.0,-3008.0,4480.0
3.6025,-13888.0,-3008.0,4416.0
3.605,-13888.0,-3136.0,4480.0
3.6075,-13952.0,-3136.0,4544.0
3.61,-13952.0,-3072.0,4544.0
3.6125,-13952.0,-3072.0,4608.0
3.615,-13952.0,-3072.0,4544.0
3.6175,-13888.0,-3072.0,4480.0
3.62,-13888.0,-3008.0,4544.0
3.6225,-13952.0,-3072.0,4480.0
3.625,-13888.0,-3008.0,4480.0
3.6275,-13952.0,-3008.0,4352.0
3.63,-13888.0,-3008.0,4352.0
3.6325,-13888.0,-3008.0,4352.0
3.635,-13888.0,-3008.0,4416.0
3.6375,-13952.0,-3072.0,4416.0
3.64,-13952.0,-3072.0,4416.0
3.6425,-14016.0,-3008.0,4352.0
3.645,-14016.0,-3008.0,4352.0
3.6475,-14016.0,-3008.0,4352.0
3.65,-14016.0,-3008.0,4288.0
3.6525,-14080.0,-3008.0,4224.0
3.655,-14144.0,-3008.0,4224.0
3.6575,-14144.0,-3008.0,4288.0
3.66,-14144.0,-3072.0,4352.0
3.6625,-14144.0,-3008.0,4288.0
3.665,-14144.0,-3008.0,4288.0
3.6675,-14144.0,-3072.0,4352.0
3.67,-14272.0,-3136.0,4352.0
3.6725,-14400.0,-3200.0,4544.0
3.675,-14400.0,-3200.0,4544.0
3.6775,-14400.0,-3136.0,4416.0
3.68,-14464.0,-3136.0,4416.0
3.6825,-14464.0,-3072.0,4416.0
3.685,-14592.0,-3136.0,4416.0
3.6875,-14592.0,-3072.0,4416.0
3.69,-14592.0,-3072.0,4416.0
3.6925,-14592.0,-3072.0,4352.0
3.695,-14720.0,-3072.0,4352.0
3.6975,-14720.0,-3136.0,4416.0
3.7,-14784.0,-3072.0,4416.0
3.7025,-14848.0,-3072.0,4416.0
3.705,-14848.0,-3072.0,4416.0
3.7075,-14848.0,-3136.0,4352.0
3.71,-14912.0,-3200.0,4352.0
3.7125,-14912.0,-3200.0,4416.0
3.715,-14912.0,-3136.0,4416.0
3.7175,-14912.0,-3072.0,4480.0
3.72,-14912.0,-3072.0,4416.0
3.7225,-14912.0,-3072.0,4480.0
3.725,-14976.0,-3072.0,4416.0
3.7275,-14976.0,-3008.0,4416.0
3.73,-14976.0,-3008.0,4480.0
3.7325,-14976.0,-3008.0,4544.0
3.735,-15040.0,-3008.0,4544.0
3.7375,-14976.0,-2944.0,4608.0
3.74,-14976.0,-2944.0,4608.0
3.7425,-15040.0,-2944.0,4608.0
3.745,-15040.0,-3072.0,4608.0
3.7475,-15040.0,-3008.0,4672.0
3.75,-14976.0,-3008.0,4736.0
3.7525,-15040.0,-3008.0,4864.0
3.755,-15040.0,-2944.0,4864.0
3.7575,-14912.0,-2880.0,4928.0
3.76,-14912.0,-2944.0,4864.0
3.7625,-14976.0,-3008.0,4864.0
3.765,-15040.0,-3008.0,4928.0
3.7675,-15040.0,-2944.0,4992.0
3.77,-15040.0,-3008.0,4928.0
3.7725,-15104.0,-3008.0,4928.0
3.775,-15104.0,-2944.0,4864.0
3.7775,-15168.0,-3008.0,4800.0
3.78,-15104.0,-3072.0,4800.0
3.7825,-15168.0,-3072.0,4800.0
3.785,-15232.0,-3072.0,4800.0
3.7875,-15232.0,-3008.0,4800.0
3.79,-15232.0,-3072.0,4736.0
3.7925,-15296.0,-3072.0,4800.0
3.795,-15232.0,-3072.0,4672.0
3.7975,-15232.0,-3136.0,4672.0
3.8,-15296.0,-3072.0,4736.0
3.8025,-15296.0,-3136.0,4736.0
3.805,-15232.0,-3264.0,4672.0
3.8075,-15296.0,-3200.0,4800.0
3.81,-15296.0,-3136.0,4736.0
3.8125,-15296.0,-3072.0,4672.0
3.815,-15232.0,-3072.0,4736.0
3.8175,-15232.0,-3072.0,4736.0
3.82,-15232.0,-3136.0,4672.0
3.8225,-15232.0,-3072.0,4672.0
3.825,-15168.0,-3136.0,4800.0
3.8275,-15104.0,-3136.0,4864.0
3.83,-15104.0,-3136.0,4928.0
3.8325,-15168.0,-3136.0,5120.0
3.835,-15104.0,-3136.0,5248.0
3.8375,-15040.0,-3072.0,5248.0
3.84,-14976.0,-3072.0,5184.0
3.8425,-14912.0,-3136.0,5312.0
3.845,-14912.0,-3200.0,5504.0
3.8475,-14848.0,-3200.0,5504.0
3.85,-14848.0,-3136.0,5504.0
3.8525,-14912.0,-3200.0,5440.0
3.855,-14848.0,-3264.0,5376.0
3.8575,-14848.0,-3200.0,5312.0
3.86,-14784.0,-3200.0,5312.0
3.8625,-14848.0,-3264.0,5312.0
3.865,-14784.0,-3200.0,5312.0
3.8675,-14784.0,-3264.0,5248.0
3.87,-14848.0,-3264.0,5312.0
3.8725,-14848.0,-3200.0,5248.0
3.875,-14912.0,-3200.0,5248.0
3.8775,-14912.0,-3200.0,5248.0
3.88,-14912.0,-3200.0,5184.0
3.8825,-14912.0,-3200.0,5184.0
3.885,-14976.0,-3200.0,5184.0
3.8875,-14912.0,-3200.0,5056.0
3.89,-14912.0,-3264.0,4992.0
3.8925,-14912.0,-3200.0,5120.0
3.895,-14912.0,-3264.0,5056.0
3.8975,-14912.0,-3200.0,4992.0
3.9,-14976.0,-3200.0,4992.0
3.9025,-14976.0,-3200.0,5056.0
3.905,-14976.0,-3136.0,5120.0
3.9075,-14976.0,-3200.0,5184.0
3.91,-15040.0,-3200.0,5120.0
3.9125,-14976.0,-3264.0,5376.0
3.915,-15040.0,-3200.0,5376.0
3.9175,-15040.0,-3136.0,5440.0
3.92,-15040.0,-3136.0,5312.0
3.9225,-15104.0,-3136.0,5376.0
3.925,-15168.0,-3200.0,5504.0
3.9275,-15232.0,-3200.0,5568.0
3.93,-15232.0,-3136.0,5568.0
3.9325,-15104.0,-3200.0,5504.0
3.935,-15104.0,-3200.0,5568.0
3.9375,-15232.0,-3200.0,5568.0
3.94,-15104.0,-3136.0,5440.0
3.9425,-15168.0,-3072.0,5440.0
3.945,-15232.0,-3072.0,5440.0
3.9475,-15232.0,-3136.0,5440.0
3.95,-15168.0,-3136.0,5376.0
3.9525,-15168.0,-3136.0,5440.0
3.955,-15168.0,-3136.0,5376.0
3.9575,-15104.0,-3136.0,5312.0
3.96,-15040.0,-3136.0,5248.0
3.9625,-15040.0,-3136.0,5248.0
3.965,-15040.0,-3072.0,5312.0
3.9675,-15104.0,-3008.0,5312.0
3.97,-15040.0,-3072.0,5440.0
3.9725,-14976.0,-3008.0,5504.0
3.975,-14976.0,-3008.0,5568.0
3.9775,-14976.0,-3008.0,5568.0
3.98,-14976.0,-3008.0,5568.0
3.9825,-14912.0,-3008.0,5632.0
3.985,-14912.0,-3008.0,5632.0
3.9875,-14848.0,-3072.0,5632.0
3.99,-14848.0,-3008.0,5568.0
3.9925,-14912.0,-3136.0,5568.0
3.995,-14976.0,-3072.0,5568.0
3.9975,-14912.0,-3072.0,5504.0
4.0,-14848.0,-3008.0,5440.0
4.0025,-14848.0,-3072.0,5376.0
4.005,-14976.0,-3136.0,5440.0
4.0075,-14976.0,-3072.0,5632.0
4.01,-14976.0,-3072.0,5504.0
4.0125,-14912.0,-3008.0,5440.0
4.015,-14976.0,-3008.0,5440.0
4.0175,-15040.0,-3072.0,5568.0
4.02,-14912.0,-3072.0,5440.0
4.0225,-14976.0,-3072.0,5632.0
4.025,-14976.0,-3072.0,5632.0
4.0275,-14976.0,-3072.0,5760.0
4.03,-15040.0,-3072.0,5760.0
4.0325,-15104.0,-3072.0,5824.0
4.035,-15040.0,-3136.0,5824.0
4.0375,-15040.0,-3136.0,5888.0
4.04,-15040.0,-3072.0,5824.0
4.0425,-15040.0,-3072.0,5824.0
4.045,-15040.0,-3072.0,5824.0
4.0475,-15104.0,-3136.0,5824.0
4.05,-15104.0,-3136.0,5888.0
4.0525,-15104.0,-3136.0,5824.0
4.055,-15168.0,-3136.0,5824.0
4.0575,-15104.0,-3136.0,5824.0
4.06,-15168.0,-3136.0,5824.0
4.0625,-15104.0,-3200.0,5888.0
4.065,-15168.0,-3136.0,5952.0
4.0675,-15168.0,-3136.0,6080.0
4.07,-15104.0,-3136.0,6144.0
4.0725,-15168.0,-3136.0,6144.0
4.075,-15232.0,-3136.0,6144.0
4.0775,-15296.0,-3072.0,6272.0
4.08,-15232.0,-3136.0,6272.0
4.0825,-15296.0,-3136.0,6208.0
4.085,-15360.0,-3136.0,6272.0
4.0875,-15360.0,-3136.0,6336.0
4.09,-15424.0,-3200.0,6464.0
4.0925,-15424.0,-3200.0,6464.0
4.095,-15424.0,-3136.0,6400.0
4.0975,-15424.0,-3136.0,6400.0
4.1,-15424.0,-3136.0,6272.0
4.1025,-15424.0,-3136.0,6336.0
4.105,-15360.0,-3136.0,6464.0
4.1075,-15360.0,-3136.0,6400.0
4.11,-15424.0,-3136.0,6400.0
4.1125,-15360.0,-3072.0,6464.0
4.115,-15296.0,-3136.0,6464.0
4.1175,-15296.0,-3072.0,6400.0
4.12,-15360.0,-3072.0,6400.0
4.1225,-15360.0,-3136.0,6400.0
4.125,-15360.0,-3072.0,6464.0
4.1275,-15232.0,-3072.0,6400.0
4.13,-15232.0,-3072.0,6400.0
4.1325,-15232.0,-3072.0,6400.0
4.135,-15168.0,-3072.0,6272.0
4.1375,-15168.0,-3072.0,6336.0
4.14,-15232.0,-3072.0,6336.0
4.1425,-15168.0,-3072.0,6400.0
4.145,-15232.0,-3072.0,6400.0
4.1475,-15232.0,-3072.0,6400.0
4.15,-15168.0,-3136.0,6464.0
4.1525,-15296.0,-3136.0,6592.0
4.155,-15232.0,-3136.0,6592.0
4.1575,-15232.0,-3136.0,6528.0
4.16,-15232.0,-3072.0,6528.0
4.1625,-15168.0,-3072.0,6592.0
4.165,-15104.0,-3136.0,6464.0
4.1675,-15040.0,-3136.0,6528.0
4.17,-15040.0,-3200.0,6656.0
4.1725,-15040.0,-3072.0,6656.0
4.175,-14912.0,-3072.0,6592.0
4.1775,-14912.0,-3136.0,6592.0
4.18,-14912.0,-3072.0,6592.0
4.1825,-14848.0,-3136.0,6656.0
4.185,-14912.0,-3136.0,6592.0
4.1875,-14784.0,-3136.0,6592.0
4.19,-14848.0,-3200.0,6592.0
4.1925,-14784.0,-3200.0,6528.0
4.195,-14720.0,-3136.0,6528.0
4.1975,-14720.0,-3136.0,6464.0
4.2,-14656.0,-3136.0,6464.0
4.2025,-14656.0,-3200.0,6400.0
4.205,-14592.0,-3200.0,6400.0
4.2075,-14592.0,-3200.0,6400.0
4.21,-14592.0,-3264.0,6336.0
4.2125,-14528.0,-3200.0,6400.0
4.215,-14592.0,-3200.0,6400.0
4.2175,-14592.0,-3200.0,6400.0
4.22,-14528.0,-3136.0,6400.0
4.2225,-14528.0,-3136.0,6528.0
4.225,-14592.0,-3136.0,6592.0
4.2275,-14592.0,-3136.0,6592.0
4.23,-14528.0,-3136.0,6592.0
4.2325,-14528.0,-3072.0,6656.0
4.235,-14592.0,-3072.0,6656.0
4.2375,-14528.0,-3008.0,6720.0
4.24,-14464.0,-3072.0,6720.0
4.2425,-14528.0,-3072.0,6784.0
4.245,-14528.0,-3008.0,6720.0
4.2475,-14464.0,-3008.0,6656.0
4.25,-14464.0,-2944.0,6656.0
4.2525,-14592.0,-3008.0,6720.0
4.255,-14592.0,-3136.0,6784.0
4.2575,-14528.0,-3008.0,6656.0
4.26,-14528.0,-3072.0,6528.0
4.2625,-14528.0,-3008.0,6528.0
4.265,-14464.0,-2944.0,6592.0
4.2675,-14464.0,-2880.0,6592.0
4.27,-14464.0,-2944.0,6592.0
4.2725,-14464.0,-2944.0,6528.0
4.275,-14464.0,-2944.0,6464.0
4.2775,-14464.0,-2944.0,6528.0
4.28,-14528.0,-2944.0,6400.0
4.2825,-14464.0,-2944.0,6464.0
4.285,-14528.0,-2944.0,6464.0
4.2875,-14592.0,-2944.0,6464.0
4.29,-14592.0,-2944.0,6464.0
4.2925,-14592.0,-2944.0,6464.0
4.295,-14592.0,-2944.0,6464.0
4.2975,-14592.0,-2880.0,6528.0
4.3,-14656.0,-2944.0,6592.0
4.3025,-14656.0,-2944.0,6656.0
4.305,-14720.0,-3008.0,6656.0
4.3075,-14720.0,-3008.0,6720.0
4.31,-14720.0,-3072.0,6720.0
4.3125,-14784.0,-3072.0,6976.0
4.315,-14720.0,-3072.0,6976.0
4.3175,-14720.0,-3072.0,6912.0
4.32,-14656.0,-3008.0,6848.0
4.3225,-14656.0,-3008.0,6848.0
4.325,-14784.0,-3072.0,6848.0
4.3275,-14784.0,-3072.0,6912.0
4.33,-14720.0,-3072.0,6848.0
4.3325,-14784.0,-3008.0,6784.0
4.335,-14784.0,-2944.0,6784.0
4.3375,-14784.0,-3008.0,6784.0
4.34,-14848.0,-2944.0,6720.0
4.3425,-14912.0,-2944.0,6656.0
4.345,-14912.0,-3008.0,6784.0
4.3475,-14912.0,-3008.0,6720.0
4.35,-14912.0,-2944.0,6720.0
4.3525,-14912.0,-2944.0,6784.0
4.355,-15040.0,-3008.0,6784.0
4.3575,-14976.0,-3008.0,6848.0
4.36,-15040.0,-3008.0,6848.0
4.3625,-15104.0,-2944.0,6848.0
4.365,-15040.0,-2944.0,6848.0
4.3675,-14976.0,-3008.0,6912.0
4.37,-15040.0,-2944.0,6976.0
4.3725,-15040.0,-2944.0,6976.0
4.375,-15040.0,-2944.0,6976.0
4.3775,-15040.0,-2880.0,6976.0
4.38,-15040.0,-2944.0,6976.0
4.3825,-15040.0,-2944.0,7040.0
4.385,-15040.0,-2944.0,7040.0
4.3875,-15104.0,-2944.0,7040.0
4.39,-15040.0,-3008.0,7040.0
4.3925,-15168.0,-3008.0,7104.0
4.395,-15040.0,-3072.0,7104.0
4.3975,-15104.0,-3008.0,7040.0
4.4,-15104.0,-3008.0,7104.0
4.4025,-15168.0,-3008.0,7232.0
4.405,-15168.0,-2944.0,7232.0
4.4075,-15040.0,-3008.0,7104.0
4.41,-15104.0,-3008.0,7104.0
4.4125,-15168.0,-3008.0,7168.0
4.415,-15168.0,-3008.0,7232.0
4.4175,-15232.0,-3008.0,7232.0
4.42,-15168.0,-3008.0,7232.0
4.4225,-15168.0,-2944.0,7232.0
4.425,-15168.0,-2944.0,7168.0
4.4275,-15232.0,-2944.0,7168.0
4.43,-15168.0,-2944.0,7104.0
4.4325,-15168.0,-2944.0,7168.0
4.435,-15232.0,-2944.0,7232.0
4.4375,-15232.0,-3008.0,7296.0
4.44,-15232.0,-3072.0,7232.0
4.4425,-15232.0,-2944.0,7296.0
4.445,-15232.0,-2944.0,7360.0
4.4475,-15168.0,-2944.0,7424.0
4.45,-15232.0,-2880.0,7360.0
4.4525,-15232.0,-2944.0,7424.0
4.455,-15168.0,-2944.0,7488.0
4.4575,-15168.0,-2944.0,7488.0
4.46,-15168.0,-2944.0,7424.0
4.4625,-15232.0,-3008.0,7360.0
4.465,-15168.0,-3072.0,7360.0
4.4675,-15168.0,-3008.0,7360.0
4.47,-15232.0,-3072.0,7424.0
4.4725,-15232.0,-3072.0,7360.0
4.475,-15232.0,-3008.0,7296.0
4.4775,-15296.0,-2944.0,7232.0
4.48,-15360.0,-3072.0,7296.0
4.4825,-15360.0,-3008.0,7360.0
4.485,-15360.0,-3008.0,7296.0
4.4875,-15296.0,-2944.0,7168.0
4.49,-15232.0,-3008.0,7168.0
4.4925,-15296.0,-3008.0,7360.0
4.495,-15232.0,-3008.0,7488.0
4.4975,-15232.0,-2944.0,7424.0
4.5,-15232.0,-2944.0,7360.0
4.5025,-15104.0,-2944.0,7360.0
4.505,-15168.0,-2944.0,7360.0
4.5075,-15232.0,-2944.0,7296.0
4.51,-15168.0,-2944.0,7360.0
4.5125,-15104.0,-2944.0,7360.0
4.515,-15104.0,-3008.0,7296.0
4.5175,-15168.0,-2944.0,7232.0
4.52,-15104.0,-2944.0,7232.0
4.5225,-15040.0,-2944.0,7232.0
4.525,-15040.0,-2880.0,7168.0
4.5275,-15104.0,-2944.0,7232.0
4.53,-15104.0,-2944.0,7232.0
4.5325,-15168.0,-2944.0,7232.0
4.535,-15232.0,-2944.0,7168.0
4.5375,-15232.0,-2880.0,7232.0
4.54,-15296.0,-2944.0,7168.0
4.5425,-15360.0,-2880.0,7168.0
4.545,-15360.0,-2880.0,7232.0
4.5475,-15360.0,-2880.0,7232.0
4.55,-15360.0,-2816.0,7296.0
4.5525,-15360.0,-2816.0,7424.0
4.555,-15360.0,-2752.0,7360.0
4.5575,-15296.0,-2752.0,7360.0
4.56,-15296.0,-2752.0,7232.0
4.5625,-15296.0,-2752.0,7296.0
4.565,-15424.0,-2816.0,7424.0
4.5675,-15488.0,-2752.0,7424.0
4.57,-15360.0,-2752.0,7424.0
4.5725,-15360.0,-2752.0,7488.0
4.575,-15296.0,-2688.0,7424.0
4.5775,-15296.0,-2688.0,7488.0
4.58,-15232.0,-2688.0,7616.0
4.5825,-15232.0,-2624.0,7552.0
4.585,-15232.0,-2624.0,7552.0
4.5875,-15232.0,-2688.0,7552.0
4.59,-15232.0,-2624.0,7488.0
4.5925,-15232.0,-2624.0,7488.0
4.595,-15104.0,-2688.0,7424.0
4.5975,-15168.0,-2624.0,7488.0
4.6,-15168.0,-2688.0,7552.0
4.6025,-15104.0,-2624.0,7488.0
4.605,-15040.0,-2560.0,7488.0
4.6075,-14976.0,-2624.0,7488.0
4.61,-14976.0,-2560.0,7424.0
4.6125,-14976.0,-2560.0,7488.0
4.615,-14976.0,-2624.0,7488.0
4.6175,-14976.0,-2560.0,7488.0
4.62,-14912.0,-2560.0,7488.0
4.6225,-14912.0,-2560.0,7488.0
4.625,-14976.0,-2560.0,7552.0
4.6275,-14912.0,-2560.0,7488.0
4.63,-14848.0,-2560.0,7552.0
4.6325,-14848.0,-2560.0,7552.0
4.635,-14912.0,-2560.0,7488.0
4.6375,-14848.0,-2496.0,7424.0
4.64,-14848.0,-2496.0,7424.0
4.6425,-14912.0,-2560.0,7424.0
4.645,-14912.0,-2496.0,7360.0
4.6475,-14976.0,-2496.0,7488.0
4.65,-15040.0,-2560.0,7616.0
4.6525,-15040.0,-2496.0,7680.0
4.655,-14976.0,-2496.0,7616.0
4.6575,-15040.0,-2496.0,7680.0
4.66,-15040.0,-2496.0,7680.0
4.6625,-15040.0,-2560.0,7744.0
4.665,-14976.0,-2560.0,7744.0
4.6675,-14912.0,-2432.0,7744.0
4.67,-14912.0,-2496.0,7808.0
4.6725,-14912.0,-2496.0,7872.0
4.675,-14848.0,-2432.0,7936.0
4.6775,-14848.0,-2432.0,7936.0
4.68,-14784.0,-2432.0,7872.0
4.6825,-14784.0,-2432.0,7808.0
4.685,-14784.0,-2432.0,7808.0
4.6875,-14720.0,-2368.0,7808.0
4.69,-14720.0,-2368.0,7872.0
4.6925,-14720.0,-2304.0,7872.0
4.695,-14592.0,-2240.0,7872.0
4.6975,-14592.0,-2304.0,7808.0
4.7,-14464.0,-2304.0,7872.0
4.7025,-14528.0,-2176.0,7872.0
4.705,-14464.0,-2240.0,7936.0
4.7075,-14464.0,-2304.0,7936.0
4.71,-14400.0,-2304.0,7872.0
4.7125,-14464.0,-2240.0,8000.0
4.715,-14464.0,-2176.0,7808.0
4.7175,-14336.0,-2176.0,7808.0
4.72,-14400.0,-2240.0,7872.0
4.7225,-14464.0,-2240.0,7872.0
4.725,-14464.0,-2176.0,7744.0
4.7275,-14464.0,-2240.0,7808.0
4.73,-14528.0,-2240.0,7872.0
4.7325,-14464.0,-2176.0,7936.0
4.735,-14528.0,-2112.0,7872.0
4.7375,-14464.0,-2176.0,7744.0
4.74,-14528.0,-2240.0,7808.0
4.7425,-14592.0,-2176.0,7936.0
4.745,-14592.0,-2112.0,8000.0
4.7475,-14656.0,-2112.0,8064.0
4.75,-14720.0,-2176.0,8128.0
4.7525,-14720.0,-2240.0,8064.0
4.755,-14720.0,-2304.0,8000.0
4.7575,-14720.0,-2368.0,8000.0
4.76,-14784.0,-2432.0,8000.0
4.7625,-14784.0,-2432.0,8000.0
4.765,-14912.0,-2432.0,8000.0
4.7675,-14848.0,-2368.0,8000.0
4.77,-14912.0,-2368.0,8064.0
4.7725,-14912.0,-2304.0,8128.0
4.775,-14848.0,-2304.0,8192.0
4.7775,-14848.0,-2304.0,8192.0
4.78,-14912.0,-2304.0,8064.0
4.7825,-14912.0,-2368.0,8128.0
4.785,-14912.0,-2432.0,8064.0
4.7875,-14912.0,-2432.0,8064.0
4.79,-14912.0,-2496.0,8064.0
4.7925,-15040.0,-2560.0,8000.0
4.795,-14976.0,-2624.0,8064.0
4.7975,-14976.0,-2624.0,8064.0
4.8,-15040.0,-2624.0,8064.0
4.8025,-15104.0,-2688.0,8128.0
4.805,-15104.0,-2688.0,8064.0
4.8075,-14976.0,-2752.0,8064.0
4.81,-14912.0,-2752.0,8064.0
4.8125,-14976.0,-2752.0,8064.0
4.815,-15040.0,-2688.0,8256.0
4.8175,-14912.0,-2688.0,8192.0
4.82,-14976.0,-2688.0,8128.0
4.8225,-14912.0,-2688.0,8128.0
4.825,-14912.0,-2752.0,8192.0
4.8275,-14976.0,-2688.0,8192.0
4.83,-14912.0,-2688.0,8192.0
4.8325,-14976.0,-2752.0,8256.0
4.835,-14976.0,-2752.0,8256.0
4.8375,-14912.0,-2752.0,8256.0
4.84,-14912.0,-2688.0,8192.0
4.8425,-14912.0,-2624.0,8192.0
4.845,-14912.0,-2624.0,8128.0
4.8475,-14976.0,-2688.0,8128.0
4.85,-15040.0,-2688.0,8128.0
4.8525,-15040.0,-2624.0,8128.0
4.855,-15040.0,-2688.0,8064.0
4.8575,-15104.0,-2688.0,8064.0
4.86,-15168.0,-2688.0,8000.0
4.8625,-15168.0,-2688.0,8064.0
4.865,-15232.0,-2624.0,8064.0
4.8675,-15168.0,-2624.0,8128.0
4.87,-15232.0,-2624.0,8192.0
4.8725,-15296.0,-2624.0,8192.0
4.875,-15296.0,-2624.0,8256.0
4.8775,-15296.0,-2624.0,8128.0
4.88,-15296.0,-2624.0,8128.0
4.8825,-15360.0,-2624.0,8192.0
4.885,-15424.0,-2688.0,8320.0
4.8875,-15552.0,-2752.0,8384.0
4.89,-15488.0,-2688.0,8320.0
4.8925,-15424.0,-2624.0,8256.0
4.895,-15552.0,-2624.0,8256.0
4.8975,-15616.0,-2688.0,8320.0
4.9,-15680.0,-2560.0,8256.0
4.9025,-15744.0,-2624.0,8256.0
4.905,-15744.0,-2560.0,8320.0
4.9075,-15808.0,-2624.0,8320.0
4.91,-15872.0,-2560.0,8384.0
4.9125,-15872.0,-2624.0,8320.0
4.915,-15936.0,-2624.0,8384.0
4.9175,-15936.0,-2624.0,8448.0
4.92,-15936.0,-2624.0,8448.0
4.9225,-16000.0,-2624.0,8448.0
4.925,-16000.0,-2688.0,8512.0
4.9275,-16064.0,-2688.0,8448.0
4.93,-16128.0,-2752.0,8448.0
4.9325,-16128.0,-2752.0,8512.0
4.935,-16064.0,-2688.0,8448.0
4.9375,-16128.0,-2688.0,8448.0
4.94,-16128.0,-2752.0,8384.0
4.9425,-16128.0,-2624.0,8384.0
4.945,-16128.0,-2624.0,8384.0
4.9475,-16064.0,-2624.0,8448.0
4.95,-16064.0,-2688.0,8448.0
4.9525,-16128.0,-2688.0,8512.0
4.955,-16192.0,-2752.0,8384.0
4.9575,-16064.0,-2624.0,8320.0
4.96,-16128.0,-2688.0,8384.0
4.9625,-16128.0,-2752.0,8384.0
4.965,-16128.0,-2752.0,8256.0
4.9675,-16192.0,-2752.0,8256.0
4.97,-16320.0,-2816.0,8320.0
4.9725,-16320.0,-2880.0,8320.0
4.975,-16256.0,-2816.0,8256.0
4.9775,-16320.0,-2816.0,8256.0
4.98,-16256.0,-2816.0,8256.0
4.9825,-16256.0,-2816.0,8256.0
4.985,-16256.0,-2880.0,8320.0
4.9875,-16256.0,-2880.0,8384.0
4.99,-16256.0,-2816.0,8448.0
4.9925,-16320.0,-2816.0,8448.0
4.995,-16256.0,-2752.0,8448.0
4.9975,-16256.0,-2816.0,8512.0
5.0,-16256.0,-2816.0,8512.0
5.0025,-16192.0,-2816.0,8512.0
5.005,-16192.0,-2816.0,8576.0
5.0075,-16192.0,-2816.0,8576.0
5.01,-16128.0,-2752.0,8576.0
5.0125,-16064.0,-2752.0,8640.0
5.015,-16000.0,-2624.0,8576.0
5.0175,-16000.0,-2688.0,8576.0
5.02,-15936.0,-2688.0,8640.0
5.0225,-15936.0,-2688.0,8576.0
5.025,-15872.0,-2624.0,8512.0
5.0275,-15936.0,-2624.0,8448.0
5.03,-15936.0,-2624.0,8448.0
5.0325,-15936.0,-2624.0,8384.0
5.035,-15872.0,-2624.0,8384.0
5.0375,-15808.0,-2624.0,8384.0
5.04,-15744.0,-2560.0,8192.0
5.0425,-15744.0,-2560.0,8256.0
5.045,-15744.0,-2624.0,8384.0
5.0475,-15744.0,-2624.0,8448.0
5.05,-15744.0,-2560.0,8448.0
5.0525,-15744.0,-2496.0,8384.0
5.055,-15808.0,-2560.0,8384.0
5.0575,-15808.0,-2560.0,8512.0
5.06,-15808.0,-2560.0,8512.0
5.0625,-15808.0,-2496.0,8448.0
5.065,-15808.0,-2496.0,8448.0
5.0675,-15744.0,-2496.0,8512.0
5.07,-15744.0,-2496.0,8512.0
5.0725,-15744.0,-2432.0,8448.0
5.075,-15808.0,-2432.0,8512.0
5.0775,-15808.0,-2496.0,8512.0
5.08,-15744.0,-2368.0,8512.0
5.0825,-15744.0,-2368.0,8512.0
5.085,-15744.0,-2368.0,8448.0
5.0875,-15680.0,-2432.0,8448.0
5.09,-15680.0,-2368.0,8448.0
5.0925,-15616.0,-2368.0,8512.0
5.095,-15616.0,-2304.0,8512.0
5.0975,-15616.0,-2432.0,8512.0
5.1,-15616.0,-2368.0,8448.0
5.1025,-15552.0,-2304.0,8448.0
5.105,-15488.0,-2304.0,8448.0
5.1075,-15488.0,-2304.0,8512.0
5.11,-15488.0,-2304.0,8512.0
5.1125,-15552.0,-2368.0,8576.0
5.115,-15488.0,-2304.0,8576.0
5.1175,-15424.0,-2240.0,8576.0
5.12,-15424.0,-2240.0,8576.0
5.1225,-15424.0,-2304.0,8512.0
5.125,-15488.0,-2432.0,8640.0
5.1275,-15488.0,-2368.0,8640.0
5.13,-15488.0,-2304.0,8576.0
5.1325,-15552.0,-2368.0,8576.0
5.135,-15552.0,-2304.0,8640.0
5.1375,-15616.0,-2432.0,8704.0
5.14,-15680.0,-2368.0,8640.0
5.1425,-15744.0,-2368.0,8576.0
5.145,-15872.0,-2368.0,8576.0
5.1475,-15936.0,-2368.0,8576.0
5.15,-16000.0,-2432.0,8704.0
5.1525,-16000.0,-2368.0,8640.0
5.155,-16064.0,-2432.0,8576.0
5.1575,-16128.0,-2432.0,8640.0
5.16,-16192.0,-2496.0,8576.0
5.1625,-16256.0,-2432.0,8576.0
5.165,-16256.0,-2496.0,8640.0
5.1675,-16384.0,-2496.0,8576.0
5.17,-16384.0,-2496.0,8576.0
5.1725,-16320.0,-2432.0,8576.0
5.175,-16384.0,-2432.0,8576.0
5.1775,-16384.0,-2432.0,8512.0
5.18,-16384.0,-2496.0,8576.0
5.1825,-16448.0,-2496.0,8640.0
5.185,-16448.0,-2496.0,8704.0
5.1875,-16576.0,-2560.0,8768.0
5.19,-16512.0,-2560.0,8768.0
5.1925,-16576.0,-2688.0,8832.0
5.195,-16576.0,-2688.0,8832.0
5.1975,-16448.0,-2624.0,8768.0
5.2,-16384.0,-2624.0,8704.0
5.2025,-16448.0,-2624.0,8768.0
5.205,-16448.0,-2624.0,8896.0
5.2075,-16512.0,-2624.0,8896.0
5.21,-16384.0,-2560.0,8896.0
5.2125,-16320.0,-2560.0,8896.0
5.215,-16320.0,-2624.0,8896.0
5.2175,-16320.0,-2624.0,8960.0
5.22,-16256.0,-2560.0,8960.0
5.2225,-16128.0,-2496.0,8896.0
5.225,-16128.0,-2560.0,8896.0
5.2275,-16128.0,-2560.0,8832.0
5.23,-16128.0,-2624.0,8960.0
5.2325,-16128.0,-2560.0,8896.0
5.235,-16064.0,-2560.0,8960.0
5.2375,-16064.0,-2496.0,8896.0
5.24,-16128.0,-2560.0,8896.0
5.2425,-16128.0,-2560.0,8832.0
5.245,-16128.0,-2560.0,8832.0
5.2475,-16064.0,-2496.0,8768.0
5.25,-16128.0,-2560.0,8832.0
5.2525,-16128.0,-2560.0,8832.0
5.255,-16192.0,-2560.0,8896.0
5.2575,-16192.0,-2560.0,8896.0
5.26,-16256.0,-2496.0,8896.0
5.2625,-16192.0,-2496.0,8960.0
5.265,-16256.0,-2496.0,8960.0
5.2675,-16192.0,-2496.0,8960.0
5.27,-16256.0,-2496.0,8960.0
5.2725,-16320.0,-2560.0,9088.0
5.275,-16320.0,-2560.0,9088.0
5.2775,-16320.0,-2496.0,9024.0
5.28,-16320.0,-2560.0,9088.0
5.2825,-16320.0,-2496.0,8960.0
5.285,-16192.0,-2496.0,8896.0
5.2875,-16192.0,-2496.0,8960.0
5.29,-16256.0,-2560.0,9024.0
5.2925,-16192.0,-2560.0,8832.0
5.295,-16128.0,-2560.0,8896.0
5.2975,-16128.0,-2624.0,8768.0
5.3,-16192.0,-2624.0,8768.0
5.3025,-16192.0,-2624.0,8768.0
5.305,-16128.0,-2688.0,8704.0
5.3075,-16256.0,-2688.0,8704.0
5.31,-16192.0,-2624.0,8640.0
5.3125,-16192.0,-2688.0,8640.0
5.315,-16192.0,-2624.0,8704.0
5.3175,-16192.0,-2624.0,8576.0
5.32,-16128.0,-2624.0,8576.0
5.3225,-16128.0,-2624.0,8576.0
5.325,-16128.0,-2688.0,8576.0
5.3275,-16064.0,-2688.0,8576.0
5.33,-16128.0,-2624.0,8576.0
5.3325,-16192.0,-2624.0,8576.0
5.335,-16192.0,-2688.0,8576.0
5.3375,-16192.0,-2688.0,8512.0
5.34,-16192.0,-2624.0,8512.0
5.3425,-16192.0,-2624.0,8512.0
5.345,-16192.0,-2624.0,8512.0
5.3475,-16128.0,-2624.0,8448.0
5.35,-16192.0,-2688.0,8512.0
5.3525,-16192.0,-2624.0,8576.0
5.355,-16192.0,-2624.0,8512.0
5.3575,-16128.0,-2496.0,8448.0
5.36,-16064.0,-2368.0,8384.0
5.3625,-16064.0,-2432.0,8448.0
5.365,-16128.0,-2496.0,8448.0
5.3675,-16128.0,-2496.0,8512.0
5.37,-16064.0,-2560.0,8512.0
5.3725,-16000.0,-2496.0,8448.0
5.375,-15936.0,-2432.0,8256.0
5.3775,-15936.0,-2432.0,8128.0
5.38,-15936.0,-2432.0,8128.0
5.3825,-16000.0,-2368.0,8128.0
5.385,-15936.0,-2432.0,8064.0
5.3875,-16000.0,-2432.0,8128.0
5.39,-15936.0,-2432.0,8064.0
5.3925,-15936.0,-2496.0,8000.0
5.395,-15872.0,-2432.0,7936.0
5.3975,-15872.0,-2432.0,7936.0
5.4,-15872.0,-2432.0,7872.0
5.4025,-15872.0,-2432.0,7872.0
5.405,-15808.0,-2432.0,7808.0
5.4075,-15744.0,-2368.0,7808.0
5.41,-15744.0,-2368.0,7808.0
5.4125,-15680.0,-2304.0,7744.0
5.415,-15808.0,-2368.0,7744.0
5.4175,-15680.0,-2368.0,7808.0
5.42,-15744.0,-2304.0,7744.0
5.4225,-15808.0,-2304.0,7744.0
5.425,-15680.0,-2304.0,7808.0
5.4275,-15680.0,-2304.0,7744.0
5.43,-15680.0,-2432.0,7744.0
5.4325,-15680.0,-2496.0,7744.0
5.435,-15680.0,-2432.0,7680.0
5.4375,-15552.0,-2432.0,7616.0
5.44,-15616.0,-2432.0,7616.0
5.4425,-15552.0,-2432.0,7616.0
5.445,-15552.0,-2432.0,7488.0
5.4475,-15552.0,-2496.0,7488.0
5.45,-15616.0,-2432.0,7552.0
5.4525,-15552.0,-2432.0,7552.0
5.455,-15488.0,-2368.0,7424.0
5.4575,-15488.0,-2368.0,7360.0
5.46,-15488.0,-2304.0,7488.0
5.4625,-15424.0,-2368.0,7552.0
5.465,-15360.0,-2304.0,7552.0
5.4675,-15360.0,-2304.0,7552.0
5.47,-15360.0,-2304.0,7488.0
5.4725,-15360.0,-2304.0,7424.0
5.475,-15296.0,-2304.0,7424.0
5.4775,-15296.0,-2304.0,7488.0
5.48,-15360.0,-2368.0,7424.0
5.4825,-15360.0,-2432.0,7360.0
5.485,-15360.0,-2432.0,7360.0
5.4875,-15296.0,-2368.0,7232.0
5.49,-15232.0,-2304.0,7232.0
5.4925,-15296.0,-2368.0,7104.0
5.495,-15296.0,-2368.0,7104.0
5.4975,-15232.0,-2240.0,7232.0
5.5,-15232.0,-2240.0,7232.0
5.5025,-15168.0,-2304.0,7296.0
5.505,-15104.0,-2304.0,7232.0
5.5075,-15104.0,-2304.0,7232.0
5.51,-15168.0,-2304.0,7168.0
5.5125,-15040.0,-2368.0,7296.0
5.515,-15104.0,-2432.0,7360.0
5.5175,-15040.0,-2432.0,7296.0
5.52,-15040.0,-2432.0,7424.0
5.5225,-14976.0,-2432.0,7360.0
5.525,-14912.0,-2368.0,7296.0
5.5275,-14848.0,-2304.0,7168.0
5.53,-14720.0,-2368.0,7232.0
5.5325,-14848.0,-2432.0,7168.0
5.535,-14784.0,-2496.0,7232.0
5.5375,-14784.0,-2496.0,7168.0
5.54,-14656.0,-2496.0,7104.0
5.5425,-14656.0,-2560.0,7168.0
5.545,-14656.0,-2560.0,7104.0
5.5475,-14720.0,-2560.0,7040.0
5.55,-14656.0,-2560.0,6976.0
5.5525,-14592.0,-2560.0,7104.0
5.555,-14592.0,-2560.0,7040.0
5.5575,-14656.0,-2560.0,7104.0
5.56,-14592.0,-2496.0,7104.0
5.5625,-14528.0,-2560.0,7104.0
5.565,-14528.0,-2496.0,7104.0
5.5675,-14528.0,-2560.0,7040.0
5.57,-14464.0,-2560.0,7104.0
5.5725,-14528.0,-2560.0,7040.0
5.575,-14528.0,-2560.0,7040.0
5.5775,-14528.0,-2560.0,7040.0
5.58,-14464.0,-2560.0,7040.0
5.5825,-14528.0,-2624.0,7040.0
5.585,-14592.0,-2624.0,7040.0
5.5875,-14592.0,-2624.0,7040.0
5.59,-14528.0,-2624.0,6976.0
5.5925,-14592.0,-2688.0,7040.0
5.595,-14592.0,-2624.0,7104.0
5.5975,-14464.0,-2560.0,7040.0
5.6,-14528.0,-2496.0,6976.0
5.6025,-14528.0,-2560.0,7040.0
5.605,-14592.0,-2560.0,7104.0
5.6075,-14592.0,-2560.0,7104.0
5.61,-14528.0,-2496.0,6912.0
5.6125,-14528.0,-2496.0,6848.0
5.615,-14592.0,-2560.0,6912.0
5.6175,-14592.0,-2624.0,6912.0
5.62,-14592.0,-2560.0,6912.0
5.6225,-14592.0,-2624.0,6976.0
5.625,-14592.0,-2624.0,6976.0
5.6275,-14528.0,-2560.0,7040.0
5.63,-14464.0,-2560.0,6976.0
5.6325,-14528.0,-2560.0,6976.0
5.635,-14528.0,-2560.0,6912.0
5.6375,-14528.0,-2496.0,6912.0
5.64,-14528.0,-2560.0,6912.0
5.6425,-14528.0,-2560.0,6912.0
5.645,-14464.0,-2624.0,6976.0
5.6475,-14400.0,-2688.0,6912.0
5.65,-14464.0,-2624.0,6912.0
5.6525,-14464.0,-2624.0,6848.0
5.655,-14464.0,-2624.0,6848.0
5.6575,-14528.0,-2624.0,6848.0
5.66,-14528.0,-2624.0,6848.0
5.6625,-14464.0,-2624.0,6912.0
5.665,-14528.0,-2624.0,6848.0
5.6675,-14528.0,-2560.0,6912.0
5.67,-14528.0,-2560.0,6976.0
5.6725,-14656.0,-2496.0,6976.0
5.675,-14592.0,-2496.0,6976.0
5.6775,-14592.0,-2496.0,6912.0
5.68,-14592.0,-2496.0,6784.0
5.6825,-14656.0,-2560.0,6912.0
5.685,-14784.0,-2624.0,6976.0
5.6875,-14848.0,-2624.0,7040.0
5.69,-14848.0,-2560.0,6976.0
5.6925,-14912.0,-2560.0,6848.0
5.695,-14976.0,-2560.0,6912.0
5.6975,-15040.0,-2624.0,6976.0
5.7,-15040.0,-2688.0,7104.0
5.7025,-15104.0,-2688.0,7040.0
5.705,-15104.0,-2688.0,7040.0
5.7075,-15104.0,-2688.0,7104.0
5.71,-15168.0,-2688.0,7104.0
5.7125,-15104.0,-2752.0,7168.0
5.715,-15104.0,-2752.0,7168.0
5.7175,-15104.0,-2752.0,7104.0
5.72,-15168.0,-2816.0,7104.0
5.7225,-15168.0,-2816.0,7168.0
5.725,-15104.0,-2880.0,7168.0
5.7275,-15168.0,-2880.0,7104.0
5.73,-15104.0,-2880.0,7040.0
5.7325,-15040.0,-2816.0,6976.0
5.735,-15040.0,-2816.0,6976.0
5.7375,-14976.0,-2816.0,7040.0
5.74,-14912.0,-2752.0,6976.0
5.7425,-14976.0,-2752.0,6976.0
5.745,-14912.0,-2816.0,6976.0
5.7475,-14848.0,-2816.0,6976.0
5.75,-14720.0,-2752.0,6912.0
5.7525,-14784.0,-2816.0,6912.0
5.755,-14784.0,-2816.0,6912.0
5.7575,-14656.0,-2816.0,6784.0
5.76,-14720.0,-2752.0,6784.0
5.7625,-14720.0,-2816.0,6784.0
5.765,-14784.0,-2880.0,6912.0
5.7675,-14784.0,-2880.0,6848.0
5.77,-14784.0,-2816.0,6720.0
5.7725,-14784.0,-2880.0,6656.0
5.775,-14912.0,-2880.0,6720.0
5.7775,-14912.0,-2880.0,6848.0
5.78,-14912.0,-2944.0,6720.0
5.7825,-14976.0,-2880.0,6784.0
5.785,-14976.0,-2944.0,6720.0
5.7875,-15040.0,-3008.0,6656.0
5.79,-14976.0,-2944.0,6720.0
5.7925,-15040.0,-2880.0,6720.0
5.795,-15040.0,-2880.0,6784.0
5.7975,-14976.0,-2816.0,6912.0
5.8,-15040.0,-2816.0,6912.0
5.8025,-14976.0,-2816.0,6912.0
5.805,-14976.0,-2752.0,7040.0
5.8075,-14912.0,-2816.0,6976.0
5.81,-14848.0,-2816.0,7040.0
5.8125,-14912.0,-2816.0,6976.0
5.815,-14912.0,-2880.0,7040.0
5.8175,-14848.0,-2880.0,7040.0
5.82,-14784.0,-2944.0,7104.0
5.8225,-14784.0,-2944.0,7104.0
5.825,-14784.0,-3008.0,7104.0
5.8275,-14784.0,-2944.0,7040.0
5.83,-14784.0,-3008.0,6976.0
5.8325,-14784.0,-3008.0,7040.0
5.835,-14720.0,-3008.0,7040.0
5.8375,-14720.0,-2944.0,6912.0
5.84,-14656.0,-3008.0,6848.0
5.8425,-14592.0,-3008.0,6848.0
5.845,-14656.0,-3072.0,6912.0
5.8475,-14656.0,-3072.0,6784.0
5.85,-14592.0,-3008.0,6784.0
5.8525,-14464.0,-3008.0,6720.0
5.855,-14464.0,-3008.0,6720.0
5.8575,-14464.0,-3008.0,6784.0
5.86,-14528.0,-2944.0,6720.0
5.8625,-14464.0,-3008.0,6592.0
5.865,-14464.0,-3072.0,6592.0
5.8675,-14464.0,-3008.0,6528.0
5.87,-14400.0,-3072.0,6592.0
5.8725,-14400.0,-3072.0,6528.0
5.875,-14400.0,-3072.0,6528.0
5.8775,-14464.0,-3072.0,6464.0
5.88,-14464.0,-3072.0,6464.0
5.8825,-14400.0,-3072.0,6400.0
5.885,-14400.0,-3136.0,6464.0
5.8875,-14336.0,-3072.0,6400.0
5.89,-14336.0,-3136.0,6400.0
5.8925,-14272.0,-3072.0,6400.0
5.895,-14272.0,-3072.0,6336.0
5.8975,-14272.0,-3072.0,6336.0
5.9,-14272.0,-3072.0,6464.0
5.9025,-14208.0,-3008.0,6464.0
5.905,-14144.0,-2944.0,6464.0
5.9075,-14080.0,-3072.0,6464.0
5.91,-14080.0,-3072.0,6400.0
5.9125,-14016.0,-3008.0,6400.0
5.915,-13952.0,-3072.0,6400.0
5.9175,-13952.0,-3136.0,6336.0
5.92,-14080.0,-3200.0,6400.0
5.9225,-14016.0,-3136.0,6464.0
5.925,-13952.0,-3136.0,6464.0
5.9275,-13888.0,-3136.0,6464.0
5.93,-13824.0,-3008.0,6272.0
5.9325,-13696.0,-2880.0,6208.0
5.935,-13632.0,-2944.0,6208.0
5.9375,-13696.0,-3008.0,6272.0
5.94,-13568.0,-3008.0,6208.0
5.9425,-13504.0,-2944.0,6208.0
5.945,-13440.0,-2944.0,6208.0
5.9475,-13440.0,-3008.0,6144.0
5.95,-13504.0,-3008.0,6080.0
5.9525,-13440.0,-3008.0,6144.0
5.955,-13376.0,-2944.0,6080.0
5.9575,-13312.0,-2880.0,6080.0
5.96,-13312.0,-3008.0,6016.0
5.9625,-13312.0,-2944.0,6016.0
5.965,-13248.0,-2944.0,6016.0
5.9675,-13184.0,-2880.0,6080.0
5.97,-13184.0,-2880.0,6016.0
5.9725,-13184.0,-2880.0,6016.0
5.975,-13184.0,-2880.0,6144.0
5.9775,-13184.0,-2880.0,6080.0
5.98,-13120.0,-2880.0,6208.0
5.9825,-13056.0,-2880.0,6272.0
5.985,-13056.0,-2880.0,6272.0
5.9875,-13056.0,-2880.0,6272.0
5.99,-12992.0,-2880.0,6208.0
5.9925,-13120.0,-2880.0,6336.0
5.995,-13120.0,-2880.0,6272.0
5.9975,-13120.0,-2880.0,6208.0
6.0,-13056.0,-2880.0,6144.0
6.0025,-13056.0,-2816.0,6016.0
6.005,-13120.0,-2752.0,6080.0
6.0075,-13120.0,-2816.0,6080.0
6.01,-13120.0,-2816.0,6016.0
6.0125,-13120.0,-2816.0,5952.0
6.015,-13056.0,-2816.0,6016.0
6.0175,-13056.0,-2816.0,5888.0
6.02,-13120.0,-2880.0,5824.0
6.0225,-13120.0,-2880.0,5824.0
6.025,-13120.0,-2944.0,5824.0
6.0275,-13184.0,-2880.0,5824.0
6.03,-13184.0,-2880.0,5888.0
6.0325,-13248.0,-2880.0,5824.0
6.035,-13184.0,-2944.0,5824.0
6.0375,-13248.0,-2944.0,5824.0
6.04,-13184.0,-2944.0,5760.0
6.0425,-13184.0,-2944.0,5760.0
6.045,-13120.0,-2944.0,5824.0
6.0475,-13120.0,-2944.0,5824.0
6.05,-13056.0,-2944.0,5824.0
6.0525,-12992.0,-2944.0,5824.0
6.055,-12992.0,-2880.0,5760.0
6.0575,-12864.0,-2816.0,5760.0
6.06,-12800.0,-2752.0,5760.0
6.0625,-12736.0,-2752.0,5824.0
6.065,-12736.0,-2752.0,5888.0
6.0675,-12672.0,-2752.0,5824.0
6.07,-12608.0,-2752.0,5696.0
6.0725,-12608.0,-2752.0,5696.0
6.075,-12608.0,-2816.0,5632.0
6.0775,-12544.0,-2752.0,5696.0
6.08,-12416.0,-2752.0,5760.0
6.0825,-12352.0,-2688.0,5632.0
6.085,-12352.0,-2752.0,5568.0
6.0875,-12480.0,-2752.0,5696.0
6.09,-12544.0,-2816.0,5632.0
6.0925,-12608.0,-2752.0,5696.0
6.095,-12544.0,-2688.0,5760.0
6.0975,-12480.0,-2624.0,5696.0
6.1,-12352.0,-2560.0,5696.0
6.1025,-12416.0,-2624.0,5760.0
6.105,-12416.0,-2560.0,5824.0
6.1075,-12544.0,-2560.0,5952.0
6.11,-12544.0,-2496.0,5888.0
6.1125,-12544.0,-2496.0,5888.0
6.115,-12544.0,-2432.0,5824.0
6.1175,-12608.0,-2496.0,5824.0
6.12,-12608.0,-2496.0,5760.0
6.1225,-12672.0,-2496.0,5760.0
6.125,-12736.0,-2432.0,5824.0
6.1275,-12672.0,-2432.0,5760.0
6.13,-12672.0,-2560.0,5824.0
6.1325,-12672.0,-2432.0,5760.0
6.135,-12736.0,-2496.0,5760.0
6.1375,-12800.0,-2432.0,5760.0
6.14,-12864.0,-2432.0,5696.0
6.1425,-12800.0,-2432.0,5696.0
6.145,-12864.0,-2432.0,5760.0
6.1475,-12864.0,-2560.0,5824.0
6.15,-12864.0,-2560.0,5824.0
6.1525,-12992.0,-2624.0,5888.0
6.155,-13056.0,-2624.0,5760.0
6.1575,-13056.0,-2624.0,5760.0
6.16,-13056.0,-2688.0,5632.0
6.1625,-13120.0,-2688.0,5632.0
6.165,-13248.0,-2752.0,5696.0
6.1675,-13376.0,-2816.0,5824.0
6.17,-13440.0,-2816.0,5888.0
6.1725,-13440.0,-2752.0,5824.0
6.175,-13504.0,-2752.0,5760.0
6.1775,-13696.0,-2816.0,5760.0
6.18,-13760.0,-2816.0,5888.0
6.1825,-13824.0,-2816.0,5888.0
6.185,-13888.0,-2944.0,5888.0
6.1875,-14016.0,-3008.0,5952.0
6.19,-14016.0,-3072.0,6016.0
6.1925,-14144.0,-3072.0,6016.0
6.195,-14208.0,-3072.0,6016.0
6.1975,-14272.0,-3136.0,5952.0
6.2,-14336.0,-3200.0,5952.0
6.2025,-14336.0,-3136.0,6016.0
6.205,-14464.0,-3136.0,5952.0
6.2075,-14528.0,-3200.0,6080.0
6.21,-14592.0,-3200.0,6080.0
6.2125,-14656.0,-3200.0,6080.0
6.215,-14720.0,-3200.0,6016.0
6.2175,-14784.0,-3264.0,6016.0
6.22,-14784.0,-3200.0,5952.0
6.2225,-14848.0,-3200.0,6016.0
6.225,-14848.0,-3136.0,6080.0
6.2275,-14912.0,-3136.0,6016.0
6.23,-14976.0,-3200.0,6016.0
6.2325,-15104.0,-3200.0,6080.0
6.235,-15040.0,-3072.0,5952.0
6.2375,-15040.0,-3072.0,6016.0
6.24,-15104.0,-3136.0,6144.0
6.2425,-14976.0,-3136.0,6080.0
6.245,-14912.0,-3136.0,5952.0
6.2475,-14976.0,-3136.0,5952.0
6.25,-14976.0,-3136.0,6016.0
6.2525,-15040.0,-3264.0,6208.0
6.255,-15040.0,-3264.0,6272.0
6.2575,-14976.0,-3200.0,6208.0
6.26,-15040.0,-3264.0,6272.0
6.2625,-15040.0,-3264.0,6272.0
6.265,-15040.0,-3328.0,6208.0
6.2675,-15040.0,-3264.0,6272.0
6.27,-15040.0,-3264.0,6336.0
6.2725,-15040.0,-3328.0,6336.0
6.275,-15040.0,-3392.0,6336.0
6.2775,-15040.0,-3392.0,6272.0
6.28,-15040.0,-3392.0,6272.0
6.2825,-14976.0,-3392.0,6272.0
6.285,-15040.0,-3456.0,6272.0
6.2875,-15104.0,-3456.0,6208.0
6.29,-15104.0,-3456.0,6144.0
6.2925,-15104.0,-3456.0,6144.0
6.295,-15104.0,-3392.0,6144.0
6.2975,-15104.0,-3392.0,6144.0
6.3,-15104.0,-3392.0,6144.0
6.3025,-15104.0,-3456.0,6080.0
6.305,-15232.0,-3392.0,6080.0
6.3075,-15232.0,-3392.0,6016.0
6.31,-15296.0,-3392.0,6016.0
6.3125,-15424.0,-3456.0,6080.0
6.315,-15360.0,-3456.0,6016.0
6.3175,-15424.0,-3392.0,5952.0
6.32,-15360.0,-3392.0,5888.0
6.3225,-15424.0,-3392.0,5952.0
6.325,-15488.0,-3456.0,6080.0
6.3275,-15424.0,-3392.0,5952.0
6.33,-15488.0,-3456.0,6016.0
6.3325,-15360.0,-3456.0,6080.0
6.335,-15296.0,-3456.0,6016.0
6.3375,-15296.0,-3456.0,6080.0
6.34,-15296.0,-3456.0,6080.0
6.3425,-15296.0,-3520.0,6080.0
6.345,-15232.0,-3520.0,6144.0
6.3475,-15232.0,-3520.0,6080.0
6.35,-15168.0,-3520.0,6144.0
6.3525,-15104.0,-3456.0,6080.0
6.355,-15104.0,-3520.0,6208.0
6.3575,-14976.0,-3520.0,6208.0
6.36,-14976.0,-3520.0,6144.0
6.3625,-14912.0,-3456.0,6208.0
6.365,-14848.0,-3456.0,6144.0
6.3675,-14848.0,-3456.0,6208.0
6.37,-14784.0,-3392.0,6208.0
6.3725,-14720.0,-3456.0,6208.0
6.375,-14720.0,-3392.0,6208.0
6.3775,-14720.0,-3392.0,6080.0
6.38,-14720.0,-3456.0,6080.0
6.3825,-14720.0,-3456.0,6080.0
6.385,-14720.0,-3392.0,6144.0
6.3875,-14720.0,-3392.0,6208.0
6.39,-14720.0,-3392.0,6272.0
6.3925,-14784.0,-3456.0,6400.0
6.395,-14720.0,-3456.0,6208.0
6.3975,-14656.0,-3392.0,6208.0
6.4,-14720.0,-3392.0,6208.0
6.4025,-14848.0,-3520.0,6272.0
6.405,-14912.0,-3456.0,6464.0
6.4075,-14848.0,-3456.0,6400.0
6.41,-14720.0,-3520.0,6336.0
6.4125,-14784.0,-3520.0,6336.0
6.415,-14848.0,-3520.0,6400.0
6.4175,-14848.0,-3520.0,6528.0
6.42,-14912.0,-3584.0,6464.0
6.4225,-14912.0,-3584.0,6464.0
6.425,-14848.0,-3584.0,6464.0
6.4275,-14912.0,-3648.0,6464.0
6.43,-14976.0,-3648.0,6464.0
6.4325,-15040.0,-3712.0,6528.0
6.435,-15040.0,-3712.0,6528.0
6.4375,-14976.0,-3712.0,6528.0
6.44,-14912.0,-3648.0,6528.0
6.4425,-14976.0,-3584.0,6656.0
6.445,-15040.0,-3648.0,6656.0
6.4475,-14976.0,-3648.0,6656.0
6.45,-14976.0,-3712.0,6656.0
6.4525,-15104.0,-3712.0,6656.0
6.455,-15104.0,-3776.0,6656.0
6.4575,-15104.0,-3776.0,6592.0
6.46,-15104.0,-3712.0,6656.0
6.4625,-15040.0,-3712.0,6592.0
6.465,-15040.0,-3776.0,6592.0
6.4675,-15040.0,-3776.0,6656.0
6.47,-15040.0,-3776.0,6656.0
6.4725,-14976.0,-3712.0,6720.0
6.475,-14976.0,-3712.0,6720.0
6.4775,-14912.0,-3584.0,6656.0
6.48,-14912.0,-3648.0,6592.0
6.4825,-14912.0,-3584.0,6528.0
6.485,-14976.0,-3584.0,6656.0
6.4875,-14912.0,-3520.0,6528.0
6.49,-14848.0,-3520.0,6464.0
6.4925,-14848.0,-3584.0,6464.0
6.495,-14784.0,-3456.0,6464.0
6.4975,-14784.0,-3520.0,6464.0
6.5,-14720.0,-3456.0,6400.0
6.5025,-14720.0,-3456.0,6400.0
6.505,-14784.0,-3456.0,6400.0
6.5075,-14784.0,-3520.0,6400.0
6.51,-14784.0,-3392.0,6400.0
6.5125,-14720.0,-3392.0,6336.0
6.515,-14784.0,-3328.0,6336.0
6.5175,-14656.0,-3328.0,6336.0
6.52,-14656.0,-3328.0,6400.0
6.5225,-14656.0,-3392.0,6400.0
6.525,-14656.0,-3328.0,6528.0
6.5275,-14656.0,-3328.0,6464.0
6.53,-14592.0,-3328.0,6400.0
6.5325,-14592.0,-3392.0,6464.0
6.535,-14720.0,-3328.0,6464.0
6.5375,-14656.0,-3392.0,6464.0
6.54,-14656.0,-3392.0,6464.0
6.5425,-14656.0,-3392.0,6464.0
6.545,-14656.0,-3328.0,6336.0
6.5475,-14656.0,-3328.0,6336.0
6.55,-14656.0,-3392.0,6400.0
6.5525,-14656.0,-3392.0,6272.0
6.555,-14592.0,-3392.0,6208.0
6.5575,-14656.0,-3456.0,6400.0
6.56,-14720.0,-3456.0,6400.0
6.5625,-14720.0,-3456.0,6272.0
6.565,-14656.0,-3328.0,6272.0
6.5675,-14784.0,-3328.0,6272.0
6.57,-14720.0,-3456.0,6336.0
6.5725,-14784.0,-3456.0,6464.0
6.575,-14784.0,-3456.0,6400.0
6.5775,-14848.0,-3456.0,6144.0
6.58,-14784.0,-3456.0,6272.0
6.5825,-14848.0,-3456.0,6208.0
6.585,-14848.0,-3456.0,6336.0
6.5875,-14912.0,-3456.0,6336.0
6.59,-14848.0,-3456.0,6400.0
6.5925,-14912.0,-3456.0,6336.0
6.595,-14848.0,-3392.0,6336.0
6.5975,-14848.0,-3392.0,6336.0
6.6,-14912.0,-3456.0,6272.0
6.6025,-14912.0,-3456.0,6336.0
6.605,-14912.0,-3456.0,6400.0
6.6075,-14848.0,-3456.0,6400.0
6.61,-14912.0,-3520.0,6400.0
6.6125,-14912.0,-3520.0,6336.0
6.615,-14848.0,-3520.0,6272.0
6.6175,-14848.0,-3520.0,6400.0
6.62,-14848.0,-3520.0,6400.0
6.6225,-14784.0,-3584.0,6336.0
6.625,-14848.0,-3520.0,6336.0
6.6275,-14912.0,-3584.0,6400.0
6.63,-14912.0,-3584.0,6400.0
6.6325,-14912.0,-3584.0,6400.0
6.635,-14912.0,-3648.0,6400.0
6.6375,-14848.0,-3584.0,6336.0
6.64,-14848.0,-3520.0,6336.0
6.6425,-14784.0,-3584.0,6336.0
6.645,-14720.0,-3584.0,6272.0
6.6475,-14720.0,-3520.0,6400.0
6.65,-14784.0,-3648.0,6464.0
6.6525,-14848.0,-3648.0,6464.0
6.655,-14848.0,-3648.0,6400.0
6.6575,-14848.0,-3648.0,6336.0
6.66,-14912.0,-3648.0,6336.0
6.6625,-14912.0,-3648.0,6400.0
6.665,-14912.0,-3648.0,6336.0
6.6675,-14912.0,-3648.0,6336.0
6.67,-14912.0,-3648.0,6272.0
6.6725,-14976.0,-3712.0,6336.0
6.675,-14976.0,-3712.0,6336.0
6.6775,-14976.0,-3648.0,6336.0
6.68,-14976.0,-3648.0,6336.0
6.6825,-14976.0,-3648.0,6336.0
6.685,-14976.0,-3648.0,6272.0
6.6875,-14976.0,-3712.0,6336.0
6.69,-14912.0,-3712.0,6464.0
6.6925,-14976.0,-3712.0,6400.0
6.695,-14912.0,-3776.0,6464.0
6.6975,-14912.0,-3712.0,6528.0
6.7,-14976.0,-3776.0,6528.0
6.7025,-14912.0,-3776.0,6528.0
6.705,-14976.0,-3776.0,6592.0
6.7075,-14976.0,-3776.0,6592.0
6.71,-14976.0,-3840.0,6592.0
6.7125,-15040.0,-3840.0,6784.0
6.715,-15040.0,-3776.0,6784.0
6.7175,-14912.0,-3712.0,6656.0
6.72,-14912.0,-3712.0,6656.0
6.7225,-14976.0,-3776.0,6720.0
6.725,-14976.0,-3840.0,6848.0
6.7275,-14976.0,-3712.0,6784.0
6.73,-14912.0,-3712.0,6656.0
6.7325,-14912.0,-3712.0,6656.0
6.735,-14912.0,-3712.0,6592.0
6.7375,-14976.0,-3648.0,6656.0
6.74,-14912.0,-3648.0,6656.0
6.7425,-14976.0,-3648.0,6720.0
6.745,-14912.0,-3648.0,6656.0
6.7475,-14912.0,-3648.0,6656.0
6.75,-14912.0,-3712.0,6720.0
6.7525,-14848.0,-3712.0,6720.0
6.755,-14848.0,-3648.0,6656.0
6.7575,-14720.0,-3648.0,6656.0
6.76,-14784.0,-3584.0,6720.0
6.7625,-14720.0,-3648.0,6784.0
6.765,-14720.0,-3648.0,6784.0
6.7675,-14656.0,-3712.0,6720.0
6.77,-14656.0,-3648.0,6784.0
6.7725,-14720.0,-3584.0,6784.0
6.775,-14656.0,-3584.0,6848.0
6.7775,-14656.0,-3584.0,6784.0
6.78,-14656.0,-3584.0,6784.0
6.7825,-14656.0,-3584.0,6784.0
6.785,-14592.0,-3584.0,6784.0
6.7875,-14656.0,-3584.0,6784.0
6.79,-14656.0,-3584.0,6848.0
6.7925,-14784.0,-3584.0,6976.0
6.795,-14848.0,-3648.0,6912.0
6.7975,-14848.0,-3648.0,6912.0
6.8,-14848.0,-3584.0,6784.0
6.8025,-14912.0,-3584.0,6784.0
6.805,-14976.0,-3584.0,6976.0
6.8075,-14976.0,-3584.0,6848.0
6.81,-15040.0,-3648.0,6912.0
6.8125,-15040.0,-3712.0,6912.0
6.815,-14976.0,-3712.0,6848.0
6.8175,-14976.0,-3712.0,6784.0
6.82,-14976.0,-3648.0,6848.0
6.8225,-15040.0,-3648.0,6848.0
6.825,-15104.0,-3648.0,6848.0
6.8275,-15104.0,-3648.0,6784.0
6.83,-15168.0,-3712.0,6848.0
6.8325,-15168.0,-3648.0,6848.0
6.835,-15168.0,-3712.0,6912.0
6.8375,-15168.0,-3648.0,6912.0
6.84,-15168.0,-3712.0,6912.0
6.8425,-15168.0,-3712.0,6912.0
6.845,-15168.0,-3776.0,6912.0
6.8475,-15168.0,-3776.0,6848.0
6.85,-15168.0,-3840.0,6848.0
6.8525,-15168.0,-3776.0,6848.0
6.855,-15168.0,-3712.0,6848.0
6.8575,-15168.0,-3712.0,6784.0
6.86,-15104.0,-3712.0,6848.0
6.8625,-15168.0,-3712.0,6848.0
6.865,-15104.0,-3776.0,6848.0
6.8675,-15040.0,-3776.0,6784.0
6.87,-15040.0,-3776.0,6848.0
6.8725,-15040.0,-3840.0,6912.0
6.875,-14976.0,-3840.0,6976.0
6.8775,-14976.0,-3840.0,6912.0
6.88,-14912.0,-3776.0,6784.0
6.8825,-14912.0,-3776.0,6848.0
6.885,-14912.0,-3840.0,6912.0
6.8875,-14848.0,-3776.0,6912.0
6.89,-14784.0,-3776.0,6848.0
6.8925,-14656.0,-3712.0,6784.0
6.895,-14656.0,-3712.0,6848.0
6.8975,-14720.0,-3776.0,6912.0
6.9,-14720.0,-3776.0,6784.0
6.9025,-14656.0,-3776.0,6784.0
6.905,-14656.0,-3776.0,6784.0
6.9075,-14592.0,-3776.0,6848.0
6.91,-14592.0,-3776.0,6784.0
6.9125,-14656.0,-3776.0,6784.0
6.915,-14656.0,-3776.0,6848.0
6.9175,-14656.0,-3776.0,6784.0
6.92,-14592.0,-3776.0,6784.0
6.9225,-14592.0,-3712.0,6784.0
6.925,-14592.0,-3776.0,6848.0
6.9275,-14528.0,-3776.0,6848.0
6.93,-14592.0,-3776.0,6912.0
6.9325,-14592.0,-3712.0,6912.0
6.935,-14528.0,-3776.0,6912.0
6.9375,-14592.0,-3776.0,6848.0
6.94,-14592.0,-3776.0,6848.0
6.9425,-14592.0,-3840.0,6848.0
6.945,-14592.0,-3776.0,6848.0
6.9475,-14592.0,-3840.0,6848.0
6.95,-14592.0,-3840.0,6848.0
6.9525,-14720.0,-3904.0,6912.0
6.955,-14720.0,-3904.0,6912.0
6.9575,-14656.0,-3840.0,6976.0
6.96,-14656.0,-3840.0,6784.0
6.9625,-14720.0,-3840.0,6784.0
6.965,-14848.0,-3904.0,6848.0
6.9675,-14784.0,-3904.0,6784.0
6.97,-14720.0,-3840.0,6784.0
6.9725,-14656.0,-3904.0,6656.0
6.975,-14784.0,-3840.0,6720.0
6.9775,-14848.0,-3904.0,6784.0
6.98,-14784.0,-3968.0,6784.0
6.9825,-14784.0,-3968.0,6848.0
6.985,-14848.0,-3904.0,6784.0
6.9875,-14848.0,-3904.0,6848.0
6.99,-14848.0,-3904.0,6848.0
6.9925,-14848.0,-3968.0,6912.0
6.995,-14848.0,-3904.0,6912.0
6.9975,-14848.0,-3904.0,6912.0
7.0,-14848.0,-3904.0,6848.0
7.0025,-14848.0,-3904.0,6912.0
7.005,-14912.0,-3968.0,6848.0
7.0075,-14912.0,-3904.0,6848.0
7.01,-14912.0,-3904.0,6848.0
7.0125,-14848.0,-3968.0,6848.0
7.015,-14848.0,-3904.0,6784.0
7.0175,-14784.0,-3904.0,6848.0
7.02,-14784.0,-3968.0,6848.0
7.0225,-14784.0,-3904.0,6848.0
7.025,-14784.0,-3904.0,6848.0
7.0275,-14784.0,-3904.0,6848.0
7.03,-14784.0,-3904.0,6848.0
7.0325,-14720.0,-3904.0,6784.0
7.035,-14720.0,-3904.0,6976.0
7.0375,-14656.0,-3840.0,6848.0
7.04,-14528.0,-3840.0,6784.0
7.0425,-14464.0,-3840.0,6720.0
7.045,-14528.0,-3840.0,6784.0
7.0475,-14528.0,-3840.0,6848.0
7.05,-14528.0,-3840.0,6848.0
7.0525,-14464.0,-3712.0,6848.0
7.055,-14336.0,-3712.0,6720.0
7.0575,-14336.0,-3776.0,6720.0
7.06,-14272.0,-3776.0,6784.0
7.0625,-14272.0,-3776.0,6848.0
7.065,-14272.0,-3776.0,6784.0
7.0675,-14272.0,-3712.0,6784.0
7.07,-14272.0,-3712.0,6720.0
7.0725,-14272.0,-3712.0,6656.0
7.075,-14144.0,-3712.0,6656.0
7.0775,-14144.0,-3712.0,6592.0
7.08,-14144.0,-3712.0,6592.0
7.0825,-14080.0,-3712.0,6592.0
7.085,-14144.0,-3712.0,6528.0
7.0875,-14080.0,-3712.0,6592.0
7.09,-14016.0,-3648.0,6656.0
7.0925,-14016.0,-3712.0,6656.0
7.095,-14016.0,-3648.0,6656.0
7.0975,-14016.0,-3712.0,6656.0
7.1,-13952.0,-3712.0,6720.0
7.1025,-13952.0,-3648.0,6720.0
7.105,-14016.0,-3648.0,6656.0
7.1075,-13952.0,-3776.0,6720.0
7.11,-13952.0,-3712.0,6656.0
7.1125,-14016.0,-3840.0,6656.0
7.115,-14080.0,-3904.0,6656.0
7.1175,-14016.0,-3840.0,6528.0
7.12,-13888.0,-3776.0,6528.0
7.1225,-13952.0,-3712.0,6464.0
7.125,-13952.0,-3776.0,6528.0
7.1275,-13888.0,-3776.0,6592.0
7.13,-13888.0,-3776.0,6592.0
7.1325,-13760.0,-3712.0,6400.0
7.135,-13760.0,-3712.0,6464.0
7.1375,-13824.0,-3712.0,6592.0
7.14,-13760.0,-3712.0,6528.0
7.1425,-13696.0,-3712.0,6528.0
7.145,-13632.0,-3712.0,6592.0
7.1475,-13568.0,-3648.0,6592.0
7.15,-13504.0,-3584.0,6720.0
7.1525,-13440.0,-3520.0,6720.0
7.155,-13440.0,-3456.0,6656.0
7.1575,-13376.0,-3520.0,6784.0
7.16,-13312.0,-3456.0,6720.0
7.1625,-13312.0,-3456.0,6720.0
7.165,-13248.0,-3520.0,6720.0
7.1675,-13312.0,-3520.0,6656.0
7.17,-13312.0,-3520.0,6720.0
7.1725,-13312.0,-3520.0,6656.0
7.175,-13248.0,-3520.0,6592.0
7.1775,-13248.0,-3584.0,6592.0
7.18,-13248.0,-3584.0,6592.0
7.1825,-13184.0,-3520.0,6656.0
7.185,-13184.0,-3520.0,6592.0
7.1875,-13120.0,-3584.0,6656.0
7.19,-13184.0,-3584.0,6720.0
7.1925,-13248.0,-3584.0,6656.0
7.195,-13248.0,-3584.0,6656.0
7.1975,-13248.0,-3520.0,6720.0
7.2,-13184.0,-3520.0,6720.0
7.2025,-13120.0,-3520.0,6656.0
7.205,-13120.0,-3520.0,6656.0
7.2075,-13120.0,-3520.0,6784.0
7.21,-13184.0,-3584.0,6912.0
7.2125,-13248.0,-3520.0,6784.0
7.215,-13120.0,-3520.0,6592.0
7.2175,-13184.0,-3456.0,6720.0
7.22,-13120.0,-3520.0,6720.0
7.2225,-13120.0,-3456.0,6784.0
7.225,-13056.0,-3456.0,6848.0
7.2275,-12992.0,-3456.0,6784.0
7.23,-13056.0,-3456.0,6848.0
7.2325,-12992.0,-3520.0,6912.0
7.235,-12992.0,-3520.0,6912.0
7.2375,-12992.0,-3456.0,6912.0
7.24,-12928.0,-3456.0,6976.0
7.2425,-12928.0,-3456.0,6912.0
7.245,-12992.0,-3392.0,6976.0
7.2475,-12928.0,-3456.0,6976.0
7.25,-12992.0,-3392.0,6976.0
7.2525,-12992.0,-3392.0,6976.0
7.255,-12992.0,-3392.0,6976.0
7.2575,-12992.0,-3392.0,6912.0
7.26,-13056.0,-3392.0,6912.0
7.2625,-13056.0,-3456.0,6848.0
7.265,-13056.0,-3456.0,6784.0
7.2675,-12992.0,-3392.0,6784.0
7.27,-13056.0,-3456.0,6848.0
7.2725,-13120.0,-3392.0,6976.0
7.275,-13184.0,-3456.0,6976.0
7.2775,-13120.0,-3392.0,6912.0
7.28,-12992.0,-3328.0,6912.0
7.2825,-12992.0,-3392.0,6912.0
7.285,-13056.0,-3392.0,7040.0
7.2875,-13120.0,-3456.0,7104.0
7.29,-13120.0,-3392.0,7040.0
7.2925,-13120.0,-3264.0,6976.0
7.295,-13120.0,-3264.0,6976.0
7.2975,-13184.0,-3328.0,7040.0
7.3,-13184.0,-3328.0,7040.0
7.3025,-13248.0,-3392.0,6976.0
7.305,-13312.0,-3392.0,6912.0
7.3075,-13312.0,-3392.0,7040.0
7.31,-13312.0,-3392.0,6976.0
7.3125,-13440.0,-3328.0,7104.0
7.315,-13440.0,-3328.0,7104.0
7.3175,-13568.0,-3328.0,7040.0
7.32,-13632.0,-3328.0,7104.0
7.3225,-13696.0,-3328.0,7104.0
7.325,-13760.0,-3392.0,7168.0
7.3275,-13760.0,-3392.0,7168.0
7.33,-13824.0,-3328.0,7168.0
7.3325,-13888.0,-3328.0,7232.0
7.335,-13888.0,-3328.0,7232.0
7.3375,-13952.0,-3392.0,7168.0
7.34,-14016.0,-3392.0,7104.0
7.3425,-14080.0,-3456.0,7168.0
7.345,-14144.0,-3520.0,7104.0
7.3475,-14080.0,-3392.0,7168.0
7.35,-14144.0,-3392.0,7168.0
7.3525,-14272.0,-3456.0,7296.0
7.355,-14272.0,-3392.0,7296.0
7.3575,-14144.0,-3392.0,7040.0
7.36,-14208.0,-3392.0,7040.0
7.3625,-14144.0,-3392.0,7040.0
7.365,-14144.0,-3392.0,7168.0
7.3675,-14144.0,-3392.0,7232.0
7.37,-14016.0,-3392.0,7168.0
7.3725,-13888.0,-3328.0,7040.0
7.375,-13888.0,-3328.0,6976.0
7.3775,-13824.0,-3328.0,7040.0
7.38,-13696.0,-3328.0,7104.0
7.3825,-13696.0,-3200.0,7040.0
7.385,-13632.0,-3200.0,7040.0
7.3875,-13568.0,-3200.0,7040.0
7.39,-13632.0,-3200.0,6976.0
7.3925,-13504.0,-3200.0,6976.0
7.395,-13440.0,-3200.0,7040.0
7.3975,-13440.0,-3200.0,7040.0
7.4,-13440.0,-3200.0,7040.0
7.4025,-13376.0,-3136.0,6976.0
7.405,-13376.0,-3136.0,7040.0
7.4075,-13376.0,-3072.0,7040.0
7.41,-13376.0,-3072.0,7040.0
7.4125,-13376.0,-2944.0,7040.0
7.415,-13440.0,-2944.0,7104.0
7.4175,-13504.0,-2944.0,7104.0
7.42,-13568.0,-2944.0,7104.0
7.4225,-13632.0,-3008.0,7040.0
7.425,-13632.0,-3008.0,7040.0
7.4275,-13632.0,-3008.0,7040.0
7.43,-13696.0,-3072.0,7040.0
7.4325,-13824.0,-3136.0,7040.0
7.435,-14016.0,-3072.0,7040.0
7.4375,-14016.0,-3072.0,7104.0
7.44,-14016.0,-3136.0,6976.0
7.4425,-14016.0,-3136.0,6976.0
7.445,-14080.0,-3072.0,6912.0
7.4475,-14144.0,-3136.0,6912.0
7.45,-14208.0,-3200.0,7040.0
7.4525,-14208.0,-3200.0,6976.0
7.455,-14144.0,-3136.0,6848.0
7.4575,-14272.0,-3136.0,6912.0
7.46,-14208.0,-3200.0,6784.0
7.4625,-14336.0,-3264.0,6848.0
7.465,-14400.0,-3328.0,6784.0
7.4675,-14400.0,-3392.0,6720.0
7.47,-14464.0,-3328.0,6784.0
7.4725,-14528.0,-3264.0,6656.0
7.475,-14528.0,-3328.0,6656.0
7.4775,-14528.0,-3328.0,6720.0
7.48,-14592.0,-3328.0,6784.0
7.4825,-14592.0,-3328.0,6848.0
7.485,-14592.0,-3328.0,6784.0
7.4875,-14592.0,-3392.0,6720.0
7.49,-14656.0,-3392.0,6784.0
7.4925,-14592.0,-3456.0,6848.0
7.495,-14592.0,-3520.0,6848.0
7.4975,-14592.0,-3456.0,6784.0
7.5,-14592.0,-3456.0,6784.0
7.5025,-14592.0,-3456.0,6848.0
7.505,-14592.0,-3456.0,6912.0
7.5075,-14592.0,-3456.0,6912.0
7.51,-14592.0,-3456.0,6912.0
7.5125,-14656.0,-3456.0,6784.0
7.515,-14720.0,-3456.0,6912.0
7.5175,-14720.0,-3456.0,6912.0
7.52,-14656.0,-3456.0,6784.0
7.5225,-14656.0,-3456.0,6784.0
7.525,-14720.0,-3456.0,6784.0
7.5275,-14720.0,-3520.0,6848.0
7.53,-14656.0,-3456.0,6784.0
7.5325,-14656.0,-3392.0,6848.0
7.535,-14592.0,-3456.0,6848.0
7.5375,-14592.0,-3456.0,6720.0
7.54,-14464.0,-3392.0,6720.0
7.5425,-14400.0,-3392.0,6784.0
7.545,-14464.0,-3456.0,6720.0
7.5475,-14400.0,-3456.0,6784.0
7.55,-14464.0,-3456.0,6848.0
7.5525,-14272.0,-3392.0,6912.0
7.555,-14272.0,-3456.0,6912.0
7.5575,-14208.0,-3456.0,6912.0
7.56,-14208.0,-3392.0,6912.0
7.5625,-14208.0,-3392.0,6912.0
7.565,-14144.0,-3392.0,6848.0
7.5675,-14080.0,-3328.0,6848.0
7.57,-14016.0,-3328.0,6912.0
7.5725,-13952.0,-3328.0,6912.0
7.575,-13888.0,-3392.0,6976.0
7.5775,-13888.0,-3392.0,7040.0
7.58,-13888.0,-3392.0,7168.0
7.5825,-13824.0,-3328.0,7104.0
7.585,-13760.0,-3328.0,7104.0
7.5875,-13824.0,-3392.0,7104.0
7.59,-13824.0,-3392.0,7104.0
7.5925,-13760.0,-3392.0,7104.0
7.595,-13696.0,-3328.0,7168.0
7.5975,-13632.0,-3328.0,7168.0
7.6,-13568.0,-3328.0,7040.0
7.6025,-13568.0,-3328.0,7104.0
7.605,-13632.0,-3264.0,7040.0
7.6075,-13696.0,-3264.0,7104.0
7.61,-13696.0,-3264.0,7168.0
7.6125,-13824.0,-3200.0,7296.0
7.615,-13824.0,-3200.0,7296.0
7.6175,-13760.0,-3200.0,7232.0
7.62,-13824.0,-3264.0,7360.0
7.6225,-13888.0,-3264.0,7232.0
7.625,-13952.0,-3200.0,7296.0
7.6275,-13952.0,-3200.0,7296.0
7.63,-14016.0,-3200.0,7360.0
7.6325,-14016.0,-3200.0,7424.0
7.635,-14016.0,-3136.0,7488.0
7.6375,-14080.0,-3136.0,7424.0
7.64,-14080.0,-3200.0,7488.0
7.6425,-14144.0,-3136.0,7552.0
7.645,-14144.0,-3136.0,7616.0
7.6475,-14208.0,-3136.0,7616.0
7.65,-14144.0,-3072.0,7616.0
7.6525,-14144.0,-3072.0,7616.0
7.655,-14080.0,-3072.0,7616.0
7.6575,-14144.0,-3136.0,7616.0
7.66,-14208.0,-3136.0,7552.0
7.6625,-14208.0,-3072.0,7616.0
7.665,-14208.0,-3008.0,7616.0
7.6675,-14208.0,-3072.0,7616.0
7.67,-14144.0,-3072.0,7680.0
7.6725,-14208.0,-3008.0,7808.0
7.675,-14208.0,-3008.0,7872.0
7.6775,-14208.0,-2944.0,7872.0
7.68,-14144.0,-3008.0,7936.0
7.6825,-14144.0,-2944.0,7808.0
7.685,-14144.0,-2880.0,7808.0
7.6875,-14272.0,-2880.0,7872.0
7.69,-14272.0,-2880.0,8000.0
7.6925,-14272.0,-2944.0,8128.0
7.695,-14208.0,-2880.0,8128.0
7.6975,-14208.0,-2880.0,8064.0
7.7,-14144.0,-2880.0,8256.0
7.7025,-14144.0,-2816.0,8320.0
7.705,-14144.0,-2752.0,8384.0
7.7075,-14144.0,-2688.0,8448.0
7.71,-14080.0,-2624.0,8512.0
7.7125,-14080.0,-2624.0,8512.0
7.715,-14080.0,-2688.0,8576.0
7.7175,-14080.0,-2688.0,8640.0
7.72,-14016.0,-2752.0,8640.0
7.7225,-13952.0,-2624.0,8640.0
7.725,-13888.0,-2560.0,8640.0
7.7275,-13952.0,-2560.0,8768.0
7.73,-13888.0,-2624.0,8768.0
7.7325,-13888.0,-2560.0,8768.0
7.735,-13824.0,-2560.0,8704.0
7.7375,-13888.0,-2560.0,8768.0
7.74,-13888.0,-2560.0,8768.0
7.7425,-13824.0,-2560.0,8704.0
7.745,-13888.0,-2560.0,8704.0
7.7475,-13888.0,-2560.0,8704.0
7.75,-13824.0,-2624.0,8704.0
7.7525,-13824.0,-2496.0,8704.0
7.755,-13888.0,-2560.0,8768.0
7.7575,-13888.0,-2560.0,8832.0
7.76,-13824.0,-2496.0,8896.0
7.7625,-13760.0,-2432.0,8832.0
7.765,-13760.0,-2560.0,8896.0
7.7675,-13760.0,-2560.0,9088.0
7.77,-13760.0,-2432.0,9152.0
7.7725,-13824.0,-2496.0,9152.0
7.775,-13824.0,-2560.0,9216.0
7.7775,-13760.0,-2560.0,9216.0
7.78,-13632.0,-2560.0,9152.0
7.7825,-13696.0,-2624.0,9216.0
7.785,-13632.0,-2560.0,9280.0
7.7875,-13696.0,-2624.0,9216.0
7.79,-13696.0,-2624.0,9280.0
7.7925,-13760.0,-2624.0,9344.0
7.795,-13760.0,-2688.0,9280.0
7.7975,-13696.0,-2688.0,9216.0
7.8,-13760.0,-2688.0,9216.0
7.8025,-13760.0,-2688.0,9152.0
7.805,-13696.0,-2752.0,9088.0
7.8075,-13760.0,-2688.0,9024.0
7.81,-13760.0,-2752.0,9088.0
7.8125,-13696.0,-2816.0,9088.0
7.815,-13696.0,-2816.0,9088.0
7.8175,-13632.0,-2816.0,9152.0
7.82,-13632.0,-2816.0,9088.0
7.8225,-13632.0,-2880.0,9088.0
7.825,-13696.0,-2944.0,9088.0
7.8275,-13760.0,-2880.0,9152.0
7.83,-13696.0,-2944.0,9088.0
7.8325,-13760.0,-3008.0,9152.0
7.835,-13696.0,-2944.0,9216.0
7.8375,-13760.0,-2944.0,9088.0
7.84,-13696.0,-2880.0,8960.0
7.8425,-13696.0,-2944.0,9024.0
7.845,-13696.0,-2944.0,9088.0
7.8475,-13696.0,-2880.0,8896.0
7.85,-13696.0,-2880.0,8768.0
7.8525,-13824.0,-2944.0,8768.0
7.855,-13760.0,-2944.0,8832.0
7.8575,-13760.0,-2944.0,8704.0
7.86,-13824.0,-2880.0,8704.0
7.8625,-13824.0,-2816.0,8704.0
7.865,-13760.0,-2816.0,8640.0
7.8675,-13760.0,-2880.0,8640.0
7.87,-13760.0,-2880.0,8640.0
7.8725,-13696.0,-2880.0,8576.0
7.875,-13696.0,-2880.0,8576.0
7.8775,-13696.0,-2880.0,8576.0
7.88,-13696.0,-2944.0,8576.0
7.8825,-13696.0,-2944.0,8512.0
7.885,-13696.0,-3008.0,8640.0
7.8875,-13696.0,-3008.0,8512.0
7.89,-13696.0,-2944.0,8448.0
7.8925,-13632.0,-2944.0,8384.0
7.895,-13632.0,-2944.0,8448.0
7.8975,-13632.0,-2944.0,8512.0
7.9,-13568.0,-2880.0,8512.0
7.9025,-13568.0,-2816.0,8576.0
7.905,-13632.0,-2816.0,8576.0
7.9075,-13632.0,-2880.0,8512.0
7.91,-13632.0,-2944.0,8576.0
7.9125,-13632.0,-3008.0,8704.0
7.915,-13568.0,-3008.0,8704.0
7.9175,-13568.0,-3008.0,8640.0
7.92,-13504.0,-3008.0,8640.0
7.9225,-13440.0,-3072.0,8576.0
7.925,-13440.0,-3072.0,8576.0
7.9275,-13440.0,-3008.0,8576.0
7.93,-13568.0,-3008.0,8640.0
7.9325,-13568.0,-3072.0,8576.0
7.935,-13504.0,-3008.0,8576.0
7.9375,-13568.0,-3008.0,8576.0
7.94,-13440.0,-2944.0,8640.0
7.9425,-13440.0,-3008.0,8768.0
7.945,-13440.0,-3008.0,8768.0
7.9475,-13376.0,-3008.0,8768.0
7.95,-13440.0,-3008.0,8832.0
7.9525,-13568.0,-3008.0,8896.0
7.955,-13504.0,-2944.0,8832.0
7.9575,-13568.0,-3008.0,8704.0
7.96,-13504.0,-3072.0,8640.0
7.9625,-13568.0,-3072.0,8576.0
7.965,-13568.0,-3072.0,8512.0
7.9675,-13568.0,-3072.0,8512.0
7.97,-13440.0,-3008.0,8448.0
7.9725,-13504.0,-3008.0,8512.0
7.975,-13568.0,-3008.0,8512.0
7.9775,-13440.0,-3008.0,8576.0
7.98,-13504.0,-2944.0,8512.0
7.9825,-13440.0,-2944.0,8512.0
7.985,-13440.0,-3008.0,8576.0
7.9875,-13440.0,-3008.0,8576.0
7.99,-13376.0,-2944.0,8576.0
7.9925,-13504.0,-3008.0,8896.0
7.995,-13504.0,-2944.0,8960.0
7.9975,-13440.0,-2944.0,8896.0
8.0,-13376.0,-2880.0,8896.0
8.0025,-13440.0,-2944.0,8896.0
8.005,-13504.0,-3008.0,9024.0
8.0075,-13568.0,-3072.0,9088.0
8.01,-13568.0,-3008.0,9088.0
8.0125,-13504.0,-3072.0,9152.0
8.015,-13504.0,-3072.0,9088.0
8.0175,-13440.0,-3008.0,9024.0
8.02,-13504.0,-3008.0,9088.0
8.0225,-13568.0,-3008.0,9088.0
8.025,-13568.0,-3008.0,9088.0
8.0275,-13568.0,-3072.0,9088.0
8.03,-13568.0,-3072.0,9088.0
8.0325,-13568.0,-3008.0,9152.0
8.035,-13568.0,-3008.0,9216.0
8.0375,-13568.0,-3008.0,9280.0
8.04,-13504.0,-3008.0,9280.0
8.0425,-13568.0,-2944.0,9344.0
8.045,-13504.0,-2944.0,9408.0
8.0475,-13504.0,-2880.0,9344.0
8.05,-13504.0,-2944.0,9408.0
8.0525,-13504.0,-2880.0,9536.0
8.055,-13504.0,-2880.0,9536.0
8.0575,-13504.0,-2880.0,9664.0
8.06,-13568.0,-2816.0,9856.0
8.0625,-13568.0,-2752.0,9920.0
8.065,-13568.0,-2752.0,9984.0
8.0675,-13568.0,-2688.0,9984.0
8.07,-13632.0,-2752.0,10112.0
8.0725,-13760.0,-2688.0,10368.0
8.075,-13824.0,-2752.0,10432.0
8.0775,-13760.0,-2688.0,10560.0
8.08,-13760.0,-2624.0,10560.0
8.0825,-13888.0,-2560.0,10688.0
8.085,-13952.0,-2496.0,10880.0
8.0875,-14080.0,-2560.0,11008.0
8.09,-14080.0,-2368.0,11072.0
8.0925,-14144.0,-2368.0,11072.0
8.095,-14016.0,-2240.0,11072.0
8.0975,-14080.0,-2176.0,11136.0
8.1,-14016.0,-2176.0,11136.0
8.1025,-14080.0,-2176.0,11136.0
8.105,-13952.0,-2112.0,11136.0
8.1075,-14080.0,-2112.0,11136.0
8.11,-13952.0,-2048.0,11136.0
8.1125,-14016.0,-2048.0,11136.0
8.115,-13888.0,-2048.0,11200.0
8.1175,-13824.0,-1984.0,11008.0
8.12,-13696.0,-1920.0,10944.0
8.1225,-13632.0,-1984.0,10944.0
8.125,-13632.0,-1984.0,11072.0
8.1275,-13568.0,-1856.0,10944.0
8.13,-13440.0,-1792.0,10944.0
8.1325,-13440.0,-1728.0,10944.0
8.135,-13376.0,-1728.0,10944.0
8.1375,-13440.0,-1664.0,11072.0
8.14,-13376.0,-1664.0,11200.0
8.1425,-13376.0,-1600.0,11264.0
8.145,-13312.0,-1600.0,11392.0
8.1475,-13248.0,-1536.0,11584.0
8.15,-13184.0,-1536.0,11712.0
8.1525,-13184.0,-1536.0,12096.0
8.155,-13120.0,-1536.0,12096.0
8.1575,-13056.0,-1472.0,12096.0
8.16,-12992.0,-1472.0,12096.0
8.1625,-12992.0,-1472.0,12032.0
8.165,-13056.0,-1536.0,12160.0
8.1675,-12992.0,-1536.0,12096.0
8.17,-12992.0,-1600.0,12032.0
8.1725,-12928.0,-1664.0,11840.0
8.175,-12928.0,-1664.0,11840.0
8.1775,-12864.0,-1792.0,11712.0
8.18,-12864.0,-1856.0,11456.0
8.1825,-12864.0,-1920.0,11456.0
8.185,-12928.0,-1984.0,11264.0
8.1875,-12864.0,-2048.0,11200.0
8.19,-12992.0,-2048.0,11072.0
8.1925,-12992.0,-2112.0,10944.0
8.195,-12992.0,-2112.0,10880.0
8.1975,-12992.0,-2112.0,10752.0
8.2,-13056.0,-2112.0,10688.0
8.2025,-13056.0,-2112.0,10688.0
8.205,-13056.0,-2112.0,10624.0
8.2075,-12992.0,-2112.0,10688.0
8.21,-12928.0,-2112.0,10624.0
8.2125,-12928.0,-2112.0,10688.0
8.215,-12864.0,-2112.0,10752.0
8.2175,-12928.0,-2048.0,10688.0
8.22,-12864.0,-2048.0,10752.0
8.2225,-12800.0,-2048.0,10752.0
8.225,-12736.0,-1984.0,10752.0
8.2275,-12736.0,-1984.0,10816.0
8.23,-12736.0,-1984.0,10816.0
8.2325,-12800.0,-1920.0,11008.0
8.235,-12800.0,-1920.0,11072.0
8.2375,-12672.0,-1920.0,11008.0
8.24,-12608.0,-1920.0,10944.0
8.2425,-12608.0,-1920.0,10944.0
8.245,-12608.0,-1984.0,10944.0
8.2475,-12608.0,-1984.0,10880.0
8.25,-12608.0,-1920.0,10880.0
8.2525,-12544.0,-1984.0,10752.0
8.255,-12544.0,-2048.0,10752.0
8.2575,-12608.0,-2048.0,10752.0
8.26,-12608.0,-2112.0,10688.0
8.2625,-12544.0,-2048.0,10688.0
8.265,-12608.0,-2048.0,10624.0
8.2675,-12608.0,-2048.0,10560.0
8.27,-12608.0,-1984.0,10496.0
8.2725,-12608.0,-1920.0,10368.0
8.275,-12672.0,-2048.0,10240.0
8.2775,-12608.0,-1984.0,10176.0
8.28,-12608.0,-2048.0,10048.0
8.2825,-12736.0,-2112.0,10048.0
8.285,-12672.0,-2176.0,10048.0
8.2875,-12736.0,-2240.0,10048.0
8.29,-12736.0,-2240.0,9984.0
8.2925,-12736.0,-2240.0,9920.0
8.295,-12672.0,-2240.0,9920.0
8.2975,-12672.0,-2176.0,10048.0
8.3,-12672.0,-2240.0,10112.0
8.3025,-12672.0,-2304.0,10240.0
8.305,-12608.0,-2304.0,10304.0
8.3075,-12608.0,-2304.0,10304.0
8.31,-12672.0,-2304.0,10432.0
8.3125,-12672.0,-2432.0,10496.0
8.315,-12608.0,-2496.0,10496.0
8.3175,-12672.0,-2432.0,10432.0
8.32,-12672.0,-2560.0,10432.0
8.3225,-12672.0,-2560.0,10432.0
8.325,-12672.0,-2624.0,10496.0
8.3275,-12608.0,-2496.0,10496.0
8.33,-12608.0,-2496.0,10496.0
8.3325,-12544.0,-2432.0,10368.0
8.335,-12480.0,-2368.0,10368.0
8.3375,-12544.0,-2368.0,10304.0
8.34,-12480.0,-2304.0,10304.0
8.3425,-12480.0,-2304.0,10304.0
8.345,-12480.0,-2304.0,10304.0
8.3475,-12416.0,-2304.0,10240.0
8.35,-12416.0,-2304.0,10304.0
8.3525,-12416.0,-2304.0,10240.0
8.355,-12352.0,-2240.0,10240.0
8.3575,-12352.0,-2240.0,10176.0
8.36,-12416.0,-2112.0,10240.0
8.3625,-12352.0,-2048.0,10304.0
8.365,-12352.0,-1984.0,10304.0
8.3675,-12288.0,-1984.0,10304.0
8.37,-12288.0,-1984.0,10368.0
8.3725,-12288.0,-1920.0,10368.0
8.375,-12288.0,-1856.0,10368.0
8.3775,-12288.0,-1856.0,10432.0
8.38,-12224.0,-1792.0,10560.0
8.3825,-12288.0,-1792.0,10752.0
8.385,-12224.0,-1728.0,10944.0
8.3875,-12160.0,-1664.0,11136.0
8.39,-12096.0,-1600.0,11264.0
8.3925,-12096.0,-1600.0,11584.0
8.395,-12032.0,-1600.0,11648.0
8.3975,-11968.0,-1600.0,11648.0
8.4,-11968.0,-1536.0,11584.0
8.4025,-12032.0,-1536.0,11648.0
8.405,-12032.0,-1536.0,11712.0
8.4075,-12160.0,-1536.0,11840.0
8.41,-12096.0,-1600.0,11840.0
8.4125,-12096.0,-1600.0,11712.0
8.415,-12096.0,-1600.0,11648.0
8.4175,-12160.0,-1664.0,11712.0
8.42,-12160.0,-1536.0,11584.0
8.4225,-12096.0,-1600.0,11584.0
8.425,-12096.0,-1600.0,11584.0
8.4275,-12160.0,-1536.0,11520.0
8.43,-12096.0,-1600.0,11456.0
8.4325,-12096.0,-1664.0,11456.0
8.435,-12096.0,-1664.0,11392.0
8.4375,-12160.0,-1600.0,11328.0
8.44,-12224.0,-1600.0,11328.0
8.4425,-12224.0,-1536.0,11264.0
8.445,-12224.0,-1536.0,11328.0
8.4475,-12224.0,-1600.0,11328.0
8.45,-12160.0,-1600.0,11456.0
8.4525,-12224.0,-1536.0,11520.0
8.455,-12288.0,-1472.0,11520.0
8.4575,-12224.0,-1472.0,11584.0
8.46,-12288.0,-1472.0,11648.0
8.4625,-12288.0,-1536.0,11776.0
8.465,-12288.0,-1536.0,11776.0
8.4675,-12352.0,-1408.0,11840.0
8.47,-12288.0,-1408.0,11840.0
8.4725,-12288.0,-1408.0,11840.0
8.475,-12352.0,-1408.0,11840.0
8.4775,-12416.0,-1472.0,11840.0
8.48,-12352.0,-1408.0,11776.0
8.4825,-12352.0,-1408.0,11712.0
8.485,-12416.0,-1408.0,11648.0
8.4875,-12480.0,-1472.0,11776.0
8.49,-12416.0,-1536.0,11840.0
8.4925,-12288.0,-1600.0,11840.0
8.495,-12288.0,-1600.0,11648.0
8.4975,-12352.0,-1664.0,11712.0
8.5,-12288.0,-1664.0,11648.0
8.5025,-12288.0,-1728.0,11648.0
8.505,-12288.0,-1792.0,11712.0
8.5075,-12288.0,-1856.0,11648.0
8.51,-12224.0,-1856.0,11648.0
8.5125,-12224.0,-1856.0,11648.0
8.515,-12224.0,-1856.0,11584.0
8.5175,-12288.0,-1856.0,11520.0
8.52,-12352.0,-1856.0,11456.0
8.5225,-12416.0,-1984.0,11456.0
8.525,-12416.0,-1984.0,11392.0
8.5275,-12352.0,-1984.0,11392.0
8.53,-12416.0,-1920.0,11456.0
8.5325,-12480.0,-1920.0,11456.0
8.535,-12480.0,-1856.0,11520.0
8.5375,-12544.0,-1920.0,11456.0
8.54,-12608.0,-1920.0,11456.0
8.5425,-12672.0,-1920.0,11456.0
8.545,-12672.0,-1856.0,11584.0
8.5475,-12736.0,-1856.0,11648.0
8.55,-12736.0,-1792.0,11776.0
8.5525,-12864.0,-1728.0,11968.0
8.555,-12736.0,-1600.0,12032.0
8.5575,-12672.0,-1472.0,11968.0
8.56,-12736.0,-1536.0,11968.0
8.5625,-12736.0,-1536.0,12032.0
8.565,-12736.0,-1536.0,12096.0
8.5675,-12736.0,-1600.0,11904.0
8.57,-12736.0,-1600.0,11776.0
8.5725,-12800.0,-1728.0,11712.0
8.575,-12864.0,-1792.0,11712.0
8.5775,-12864.0,-1856.0,11648.0
8.58,-12864.0,-1792.0,11584.0
8.5825,-12928.0,-1984.0,11520.0
8.585,-12992.0,-1984.0,11520.0
8.5875,-12992.0,-1920.0,11328.0
8.59,-12928.0,-1984.0,11264.0
8.5925,-12928.0,-1984.0,11200.0
8.595,-12928.0,-1984.0,11264.0
8.5975,-12928.0,-1984.0,11200.0
8.6,-12864.0,-1920.0,11200.0
8.6025,-12800.0,-1984.0,11136.0
8.605,-12800.0,-2048.0,11200.0
8.6075,-12736.0,-1984.0,11136.0
8.61,-12736.0,-1984.0,11136.0
8.6125,-12736.0,-1920.0,11200.0
8.615,-12800.0,-1856.0,11200.0
8.6175,-12736.0,-1856.0,11264.0
8.62,-12736.0,-1792.0,11392.0
8.6225,-12672.0,-1728.0,11520.0
8.625,-12672.0,-1728.0,11520.0
8.6275,-12672.0,-1792.0,11648.0
8.63,-12672.0,-1728.0,11648.0
8.6325,-12672.0,-1728.0,11584.0
8.635,-12672.0,-1792.0,11776.0
8.6375,-12608.0,-1728.0,11648.0
8.64,-12672.0,-1728.0,11712.0
8.6425,-12736.0,-1728.0,11712.0
8.645,-12736.0,-1728.0,11776.0
8.6475,-12736.0,-1664.0,11648.0
8.65,-12736.0,-1728.0,11520.0
8.6525,-12800.0,-1728.0,11648.0
8.655,-12864.0,-1728.0,11712.0
8.6575,-12928.0,-1728.0,11584.0
8.66,-12864.0,-1728.0,11584.0
8.6625,-12800.0,-1664.0,11648.0
8.665,-12800.0,-1664.0,11520.0
8.6675,-12800.0,-1664.0,11584.0
8.67,-12736.0,-1600.0,11584.0
8.6725,-12800.0,-1664.0,11584.0
8.675,-12736.0,-1728.0,11520.0
8.6775,-12736.0,-1664.0,11584.0
8.68,-12736.0,-1664.0,11584.0
8.6825,-12800.0,-1664.0,11648.0
8.685,-12736.0,-1664.0,11776.0
8.6875,-12736.0,-1664.0,11840.0
8.69,-12736.0,-1664.0,11840.0
8.6925,-12736.0,-1664.0,11904.0
8.695,-12800.0,-1600.0,11904.0
8.6975,-12864.0,-1600.0,11904.0
8.7,-12864.0,-1664.0,11968.0
8.7025,-12928.0,-1664.0,11904.0
8.705,-12928.0,-1664.0,11904.0
8.7075,-12992.0,-1600.0,11904.0
8.71,-12928.0,-1664.0,11968.0
8.7125,-12928.0,-1600.0,12160.0
8.715,-12992.0,-1600.0,12096.0
8.7175,-12864.0,-1600.0,11968.0
8.72,-12864.0,-1536.0,12096.0
8.7225,-12928.0,-1600.0,12160.0
8.725,-12992.0,-1472.0,12288.0
8.7275,-12992.0,-1408.0,12224.0
8.73,-13056.0,-1408.0,12288.0
8.7325,-12992.0,-1344.0,12160.0
8.735,-12928.0,-1280.0,12032.0
8.7375,-12992.0,-1408.0,12096.0
8.74,-12992.0,-1408.0,12032.0
8.7425,-12992.0,-1344.0,11968.0
8.745,-13056.0,-1344.0,11904.0
8.7475,-13056.0,-1344.0,11968.0
8.75,-13120.0,-1408.0,11904.0
8.7525,-13120.0,-1408.0,11904.0
8.755,-13184.0,-1408.0,11904.0
8.7575,-13184.0,-1408.0,11968.0
8.76,-13248.0,-1408.0,12032.0
8.7625,-13312.0,-1408.0,12096.0
8.765,-13312.0,-1344.0,12032.0
8.7675,-13376.0,-1344.0,12096.0
8.77,-13376.0,-1344.0,12160.0
8.7725,-13312.0,-1280.0,12224.0
8.775,-13376.0,-1280.0,12352.0
8.7775,-13440.0,-1280.0,12416.0
8.78,-13440.0,-1280.0,12544.0
8.7825,-13504.0,-1344.0,12608.0
8.785,-13504.0,-1280.0,12672.0
8.7875,-13504.0,-1280.0,12672.0
8.79,-13504.0,-1280.0,12736.0
8.7925,-13504.0,-1280.0,12928.0
8.795,-13504.0,-1280.0,12864.0
8.7975,-13440.0,-1216.0,12800.0
8.8,-13376.0,-1216.0,12736.0
8.8025,-13440.0,-1216.0,12736.0
8.805,-13376.0,-1152.0,12608.0
8.8075,-13440.0,-1088.0,12544.0
8.81,-13504.0,-1216.0,12608.0
8.8125,-13568.0,-1216.0,12672.0
8.815,-13504.0,-1152.0,12544.0
8.8175,-13440.0,-1216.0,12480.0
8.82,-13440.0,-1216.0,12416.0
8.8225,-13440.0,-1216.0,12480.0
8.825,-13504.0,-1216.0,12480.0
8.8275,-13504.0,-1152.0,12480.0
8.83,-13504.0,-1152.0,12480.0
8.8325,-13504.0,-1152.0,12416.0
8.835,-13568.0,-1152.0,12416.0
8.8375,-13632.0,-1152.0,12352.0
8.84,-13632.0,-1152.0,12416.0
8.8425,-13696.0,-1152.0,12352.0
8.845,-13632.0,-1152.0,12416.0
8.8475,-13696.0,-1088.0,12416.0
8.85,-13696.0,-1088.0,12480.0
8.8525,-13760.0,-1088.0,12416.0
8.855,-13824.0,-1088.0,12416.0
8.8575,-13824.0,-1152.0,12480.0
8.86,-13888.0,-1088.0,12480.0
8.8625,-13888.0,-1024.0,12544.0
8.865,-13824.0,-1024.0,12544.0
8.8675,-13760.0,-960.0,12544.0
8.87,-13760.0,-896.0,12608.0
8.8725,-13760.0,-960.0,12736.0
8.875,-13824.0,-896.0,12672.0
8.8775,-13760.0,-960.0,12800.0
8.88,-13824.0,-960.0,12800.0
8.8825,-13696.0,-960.0,12736.0
8.885,-13632.0,-960.0,12672.0
8.8875,-13696.0,-1088.0,12672.0
8.89,-13760.0,-1152.0,12864.0
8.8925,-13632.0,-1088.0,12800.0
8.895,-13696.0,-1088.0,12864.0
8.8975,-13568.0,-1024.0,12800.0
8.9,-13504.0,-1024.0,12736.0
8.9025,-13504.0,-1088.0,12736.0
8.905,-13504.0,-1088.0,12736.0
8.9075,-13440.0,-1088.0,12672.0
8.91,-13504.0,-1088.0,12672.0
8.9125,-13504.0,-1088.0,12608.0
8.915,-13504.0,-1024.0,12608.0
8.9175,-13504.0,-960.0,12544.0
8.92,-13504.0,-1024.0,12480.0
8.9225,-13504.0,-960.0,12352.0
8.925,-13568.0,-960.0,12352.0
8.9275,-13568.0,-960.0,12224.0
8.93,-13568.0,-896.0,12224.0
8.9325,-13632.0,-960.0,12224.0
8.935,-13632.0,-896.0,12160.0
8.9375,-13632.0,-896.0,12160.0
8.94,-13696.0,-960.0,12160.0
8.9425,-13696.0,-896.0,12096.0
8.945,-13760.0,-896.0,12096.0
8.9475,-13760.0,-960.0,12160.0
8.95,-13760.0,-960.0,12160.0
8.9525,-13824.0,-1024.0,12032.0
8.955,-13888.0,-1088.0,12160.0
8.9575,-13888.0,-1088.0,12224.0
8.96,-13888.0,-1088.0,12096.0
8.9625,-13888.0,-1024.0,12096.0
8.965,-13888.0,-1152.0,12032.0
8.9675,-13824.0,-1152.0,12096.0
8.97,-13888.0,-1152.0,12160.0
8.9725,-13952.0,-1152.0,12224.0
8.975,-13824.0,-1152.0,12224.0
8.9775,-13888.0,-1152.0,12160.0
8.98,-13952.0,-1152.0,12160.0
8.9825,-13888.0,-1088.0,12160.0
8.985,-13888.0,-1152.0,12160.0
8.9875,-13888.0,-1216.0,12096.0
8.99,-13888.0,-1280.0,12096.0
8.9925,-13888.0,-1280.0,12096.0
8.995,-13824.0,-1280.0,12032.0
8.9975,-13824.0,-1216.0,11968.0
9.0,-13888.0,-1280.0,11840.0
9.0025,-13888.0,-1344.0,11840.0
9.005,-13952.0,-1280.0,11840.0
9.0075,-14016.0,-1280.0,11840.0
9.01,-14016.0,-1216.0,11840.0
9.0125,-14016.0,-1280.0,11776.0
9.015,-14016.0,-1280.0,11840.0
9.0175,-14016.0,-1280.0,11840.0
9.02,-14016.0,-1344.0,11776.0
9.0225,-14080.0,-1280.0,11776.0
9.025,-14080.0,-1280.0,11712.0
9.0275,-14144.0,-1344.0,11712.0
9.03,-14080.0,-1280.0,11584.0
9.0325,-14144.0,-1344.0,11712.0
9.035,-14144.0,-1280.0,11712.0
9.0375,-14080.0,-1216.0,11584.0
9.04,-14144.0,-1280.0,11648.0
9.0425,-14144.0,-1216.0,11648.0
9.045,-14208.0,-1216.0,11712.0
9.0475,-14272.0,-1216.0,11840.0
9.05,-14272.0,-1152.0,11840.0
9.0525,-14208.0,-1088.0,11904.0
9.055,-14272.0,-1024.0,11968.0
9.0575,-14272.0,-1024.0,11904.0
9.06,-14272.0,-1088.0,11904.0
9.0625,-14208.0,-1024.0,11904.0
9.065,-14272.0,-1088.0,11776.0
9.0675,-14272.0,-1152.0,11776.0
9.07,-14272.0,-1152.0,11712.0
9.0725,-14208.0,-1216.0,11648.0
9.075,-14208.0,-1216.0,11584.0
9.0775,-14208.0,-1152.0,11584.0
9.08,-14208.0,-1152.0,11520.0
9.0825,-14208.0,-1152.0,11456.0
9.085,-14208.0,-1088.0,11520.0
9.0875,-14208.0,-1216.0,11520.0
9.09,-14144.0,-1216.0,11456.0
9.0925,-14208.0,-1152.0,11456.0
9.095,-14144.0,-1152.0,11456.0
9.0975,-14080.0,-1152.0,11520.0
9.1,-14144.0,-1152.0,11456.0
9.1025,-14080.0,-1152.0,11520.0
9.105,-14144.0,-1152.0,11520.0
9.1075,-14080.0,-1152.0,11456.0
9.11,-14080.0,-1216.0,11520.0
9.1125,-14144.0,-1280.0,11456.0
9.115,-14144.0,-1280.0,11328.0
9.1175,-14080.0,-1216.0,11328.0
9.12,-14080.0,-1280.0,11328.0
9.1225,-14080.0,-1280.0,11328.0
9.125,-14144.0,-1280.0,11392.0
9.1275,-14144.0,-1152.0,11328.0
9.13,-14080.0,-1152.0,11200.0
9.1325,-14080.0,-1152.0,11200.0
9.135,-14144.0,-1152.0,11328.0
9.1375,-14080.0,-1216.0,11392.0
9.14,-14080.0,-1280.0,11264.0
9.1425,-14080.0,-1280.0,11136.0
9.145,-14144.0,-1280.0,11136.0
9.1475,-14208.0,-1216.0,11136.0
9.15,-14144.0,-1152.0,11072.0
9.1525,-14208.0,-1216.0,10944.0
9.155,-14208.0,-1216.0,10880.0
9.1575,-14080.0,-1216.0,10816.0
9.16,-14144.0,-1280.0,10752.0
9.1625,-14144.0,-1280.0,10688.0
9.165,-14208.0,-1280.0,10624.0
9.1675,-14144.0,-1216.0,10496.0
9.17,-14144.0,-1280.0,10496.0
9.1725,-14080.0,-1344.0,10496.0
9.175,-14080.0,-1344.0,10496.0
9.1775,-14080.0,-1344.0,10560.0
9.18,-14080.0,-1408.0,10560.0
9.1825,-14080.0,-1344.0,10624.0
9.185,-14016.0,-1280.0,10688.0
9.1875,-14016.0,-1216.0,10752.0
9.19,-13952.0,-1216.0,10816.0
9.1925,-14016.0,-1344.0,11008.0
9.195,-14080.0,-1344.0,10880.0
9.1975,-13952.0,-1280.0,10816.0
9.2,-13952.0,-1344.0,10816.0
9.2025,-14016.0,-1408.0,10880.0
9.205,-14016.0,-1472.0,10880.0
9.2075,-13952.0,-1536.0,10688.0
9.21,-14080.0,-1600.0,10688.0
9.2125,-13952.0,-1600.0,10688.0
9.215,-13824.0,-1536.0,10560.0
9.2175,-13888.0,-1536.0,10560.0
9.22,-13888.0,-1536.0,10432.0
9.2225,-13760.0,-1536.0,10432.0
9.225,-13824.0,-1536.0,10368.0
9.2275,-13760.0,-1600.0,10432.0
9.23,-13760.0,-1600.0,10432.0
9.2325,-13696.0,-1536.0,10304.0
9.235,-13760.0,-1536.0,10240.0
9.2375,-13824.0,-1536.0,10176.0
9.24,-13824.0,-1472.0,10240.0
9.2425,-13696.0,-1472.0,10240.0
9.245,-13696.0,-1536.0,10176.0
9.2475,-13632.0,-1536.0,10240.0
9.25,-13632.0,-1536.0,10176.0
9.2525,-13632.0,-1472.0,10112.0
9.255,-13632.0,-1472.0,10240.0
9.2575,-13696.0,-1408.0,10240.0
9.26,-13696.0,-1408.0,10304.0
9.2625,-13632.0,-1344.0,10240.0
9.265,-13632.0,-1344.0,10176.0
9.2675,-13632.0,-1344.0,10240.0
9.27,-13632.0,-1280.0,10240.0
9.2725,-13696.0,-1216.0,10432.0
9.275,-13760.0,-1216.0,10368.0
9.2775,-13632.0,-1216.0,10304.0
9.28,-13696.0,-1152.0,10304.0
9.2825,-13696.0,-1152.0,10368.0
9.285,-13696.0,-1152.0,10304.0
9.2875,-13760.0,-1152.0,10304.0
9.29,-13760.0,-1216.0,10496.0
9.2925,-13696.0,-1216.0,10560.0
9.295,-13696.0,-1152.0,10368.0
9.2975,-13696.0,-1216.0,10432.0
9.3,-13760.0,-1216.0,10368.0
9.3025,-13824.0,-1216.0,10368.0
9.305,-13824.0,-1152.0,10496.0
9.3075,-13824.0,-1216.0,10432.0
9.31,-13888.0,-1280.0,10432.0
9.3125,-13824.0,-1344.0,10432.0
9.315,-13824.0,-1280.0,10368.0
9.3175,-13888.0,-1344.0,10368.0
9.32,-13888.0,-1344.0,10368.0
9.3225,-13952.0,-1344.0,10240.0
9.325,-13824.0,-1344.0,10176.0
9.3275,-13888.0,-1344.0,10112.0
9.33,-13824.0,-1344.0,10112.0
9.3325,-13824.0,-1280.0,10112.0
9.335,-13824.0,-1344.0,10048.0
9.3375,-13824.0,-1408.0,10048.0
9.34,-13760.0,-1408.0,9984.0
9.3425,-13760.0,-1408.0,9984.0
9.345,-13696.0,-1408.0,9920.0
9.3475,-13696.0,-1408.0,9920.0
9.35,-13696.0,-1408.0,9920.0
9.3525,-13760.0,-1472.0,9856.0
9.355,-13824.0,-1536.0,9792.0
9.3575,-13760.0,-1472.0,9728.0
9.36,-13824.0,-1536.0,9856.0
9.3625,-13760.0,-1536.0,9856.0
9.365,-13760.0,-1536.0,9792.0
9.3675,-13696.0,-1472.0,9600.0
9.37,-13696.0,-1472.0,9600.0
9.3725,-13760.0,-1472.0,9728.0
9.375,-13824.0,-1472.0,9664.0
9.3775,-13888.0,-1536.0,9600.0
9.38,-13824.0,-1536.0,9536.0
9.3825,-13824.0,-1536.0,9664.0
9.385,-13888.0,-1536.0,9664.0
9.3875,-13888.0,-1472.0,9600.0
9.39,-13888.0,-1600.0,9600.0
9.3925,-13952.0,-1600.0,9664.0
9.395,-14080.0,-1664.0,9664.0
9.3975,-14144.0,-1600.0,9600.0
9.4,-14080.0,-1600.0,9600.0
9.4025,-14144.0,-1536.0,9600.0
9.405,-14144.0,-1536.0,9664.0
9.4075,-14144.0,-1600.0,9728.0
9.41,-14144.0,-1600.0,9664.0
9.4125,-14144.0,-1600.0,9664.0
9.415,-14080.0,-1664.0,9664.0
9.4175,-14080.0,-1728.0,9664.0
9.42,-14208.0,-1664.0,9600.0
9.4225,-14144.0,-1664.0,9600.0
9.425,-14144.0,-1600.0,9728.0
9.4275,-14016.0,-1536.0,9664.0
9.43,-14016.0,-1600.0,9664.0
9.4325,-14016.0,-1600.0,9792.0
9.435,-13952.0,-1600.0,9792.0
9.4375,-13888.0,-1536.0,9664.0
9.44,-13888.0,-1536.0,9600.0
9.4425,-13888.0,-1600.0,9536.0
9.445,-13952.0,-1600.0,9536.0
9.4475,-13888.0,-1600.0,9472.0
9.45,-13760.0,-1600.0,9408.0
9.4525,-13824.0,-1536.0,9344.0
9.455,-13888.0,-1472.0,9280.0
9.4575,-13952.0,-1600.0,9344.0
9.46,-13952.0,-1600.0,9216.0
9.4625,-13952.0,-1600.0,9152.0
9.465,-13888.0,-1536.0,9152.0
9.4675,-13888.0,-1536.0,9088.0
9.47,-13888.0,-1536.0,9088.0
9.4725,-13824.0,-1472.0,9024.0
9.475,-13824.0,-1472.0,9024.0
9.4775,-13824.0,-1408.0,9088.0
9.48,-13760.0,-1472.0,9088.0
9.4825,-13696.0,-1408.0,9088.0
9.485,-13632.0,-1472.0,9088.0
9.4875,-13632.0,-1536.0,9088.0
9.49,-13696.0,-1536.0,9088.0
9.4925,-13696.0,-1536.0,9088.0
9.495,-13696.0,-1472.0,9024.0
9.4975,-13696.0,-1536.0,9088.0
9.5,-13696.0,-1536.0,9024.0
9.5025,-13696.0,-1472.0,9024.0
9.505,-13696.0,-1472.0,9088.0
9.5075,-13760.0,-1536.0,9088.0
9.51,-13760.0,-1536.0,9088.0
9.5125,-13824.0,-1664.0,9152.0
9.515,-13824.0,-1664.0,9152.0
9.5175,-13760.0,-1600.0,9152.0
9.52,-13696.0,-1664.0,9088.0
9.5225,-13696.0,-1728.0,9024.0
9.525,-13760.0,-1728.0,9088.0
9.5275,-13696.0,-1728.0,8960.0
9.53,-13632.0,-1664.0,8896.0
9.5325,-13696.0,-1664.0,8832.0
9.535,-13760.0,-1728.0,8960.0
9.5375,-13824.0,-1728.0,8896.0
9.54,-13824.0,-1728.0,8896.0
9.5425,-13824.0,-1728.0,8832.0
9.545,-13888.0,-1728.0,8768.0
9.5475,-13824.0,-1728.0,8640.0
9.55,-13888.0,-1728.0,8640.0
9.5525,-13888.0,-1728.0,8640.0
9.555,-13888.0,-1728.0,8640.0
9.5575,-13952.0,-1728.0,8576.0
9.56,-13952.0,-1728.0,8640.0
9.5625,-13952.0,-1728.0,8512.0
9.565,-13952.0,-1664.0,8576.0
9.5675,-14016.0,-1728.0,8640.0
9.57,-14016.0,-1792.0,8640.0
9.5725,-14016.0,-1792.0,8704.0
9.575,-13952.0,-1728.0,8704.0
9.5775,-13888.0,-1792.0,8768.0
9.58,-13952.0,-1792.0,8704.0
9.5825,-13952.0,-1792.0,8704.0
9.585,-13888.0,-1792.0,8768.0
9.5875,-13888.0,-1792.0,8832.0
9.59,-13888.0,-1728.0,8832.0
9.5925,-13888.0,-1728.0,8832.0
9.595,-13824.0,-1728.0,8832.0
9.5975,-13760.0,-1728.0,8704.0
9.6,-13696.0,-1728.0,8640.0
9.6025,-13696.0,-1728.0,8576.0
9.605,-13824.0,-1792.0,8576.0
9.6075,-13760.0,-1792.0,8512.0
9.61,-13632.0,-1792.0,8384.0
9.6125,-13632.0,-1792.0,8320.0
9.615,-13696.0,-1792.0,8320.0
9.6175,-13632.0,-1792.0,8192.0
9.62,-13568.0,-1792.0,8192.0
9.6225,-13568.0,-1792.0,8128.0
9.625,-13632.0,-1856.0,8128.0
9.6275,-13632.0,-1856.0,8064.0
9.63,-13632.0,-1856.0,8064.0
9.6325,-13632.0,-1856.0,8000.0
9.635,-13632.0,-1856.0,8000.0
9.6375,-13632.0,-1920.0,8064.0
9.64,-13568.0,-1920.0,8000.0
9.6425,-13632.0,-1984.0,8000.0
9.645,-13568.0,-1920.0,8064.0
9.6475,-13568.0,-1920.0,8064.0
9.65,-13504.0,-1920.0,8128.0
9.6525,-13504.0,-1856.0,8192.0
9.655,-13568.0,-1792.0,8256.0
9.6575,-13504.0,-1728.0,8256.0
9.66,-13440.0,-1728.0,8256.0
9.6625,-13376.0,-1664.0,8256.0
9.665,-13440.0,-1728.0,8256.0
9.6675,-13312.0,-1792.0,8256.0
9.67,-13376.0,-1792.0,8320.0
9.6725,-13376.0,-1856.0,8384.0
9.675,-13376.0,-1792.0,8256.0
9.6775,-13376.0,-1856.0,8192.0
9.68,-13376.0,-1856.0,8192.0
9.6825,-13504.0,-1792.0,8128.0
9.685,-13504.0,-1856.0,8128.0
9.6875,-13504.0,-1728.0,8128.0
9.69,-13376.0,-1792.0,8128.0
9.6925,-13376.0,-1728.0,8000.0
9.695,-13440.0,-1792.0,8000.0
9.6975,-13440.0,-1856.0,8128.0
9.7,-13440.0,-1856.0,8064.0
9.7025,-13504.0,-1856.0,8000.0
9.705,-13504.0,-1792.0,8000.0
9.7075,-13568.0,-1792.0,8000.0
9.71,-13632.0,-1728.0,8000.0
9.7125,-13568.0,-1728.0,8000.0
9.715,-13568.0,-1792.0,8064.0
9.7175,-13568.0,-1728.0,8000.0
9.72,-13504.0,-1728.0,7936.0
9.7225,-13568.0,-1856.0,8000.0
9.725,-13504.0,-1856.0,7936.0
9.7275,-13504.0,-1856.0,7936.0
9.73,-13504.0,-1920.0,8000.0
9.7325,-13568.0,-1856.0,8064.0
9.735,-13440.0,-1856.0,8064.0
9.7375,-13440.0,-1856.0,8000.0
9.74,-13440.0,-1856.0,8000.0
9.7425,-13440.0,-1856.0,8000.0
9.745,-13440.0,-1856.0,7936.0
9.7475,-13376.0,-1856.0,8000.0
9.75,-13440.0,-1856.0,7936.0
9.7525,-13440.0,-1920.0,8000.0
9.755,-13440.0,-1920.0,7872.0
9.7575,-13376.0,-1856.0,7872.0
9.76,-13312.0,-1856.0,7808.0
9.7625,-13312.0,-1856.0,7872.0
9.765,-13312.0,-1792.0,7808.0
9.7675,-13312.0,-1792.0,7872.0
9.77,-13312.0,-1856.0,7936.0
9.7725,-13312.0,-1856.0,8000.0
9.775,-13312.0,-1792.0,7872.0
9.7775,-13312.0,-1792.0,7808.0
9.78,-13248.0,-1792.0,7744.0
9.7825,-13312.0,-1792.0,7808.0
9.785,-13248.0,-1856.0,7744.0
9.7875,-13248.0,-1792.0,7808.0
9.79,-13312.0,-1856.0,7808.0
9.7925,-13312.0,-1856.0,7808.0
9.795,-13312.0,-1856.0,7744.0
9.7975,-13312.0,-1920.0,7744.0
9.8,-13376.0,-1920.0,7680.0
9.8025,-13440.0,-1856.0,7616.0
9.805,-13376.0,-1920.0,7552.0
9.8075,-13376.0,-1920.0,7488.0
9.81,-13376.0,-1984.0,7552.0
9.8125,-13440.0,-1984.0,7552.0
9.815,-13440.0,-2048.0,7488.0
9.8175,-13376.0,-2048.0,7552.0
9.82,-13440.0,-2112.0,7616.0
9.8225,-13504.0,-2112.0,7552.0
9.825,-13504.0,-2112.0,7552.0
9.8275,-13504.0,-2112.0,7488.0
9.83,-13568.0,-2112.0,7488.0
9.8325,-13504.0,-2112.0,7552.0
9.835,-13440.0,-2112.0,7488.0
9.8375,-13440.0,-2176.0,7488.0
9.84,-13376.0,-2176.0,7616.0
9.8425,-13376.0,-2240.0,7616.0
9.845,-13312.0,-2176.0,7616.0
9.8475,-13248.0,-2176.0,7552.0
9.85,-13120.0,-2240.0,7552.0
9.8525,-13056.0,-2240.0,7552.0
9.855,-12992.0,-2240.0,7680.0
9.8575,-12800.0,-2176.0,7616.0
9.86,-12736.0,-2176.0,7680.0
9.8625,-12672.0,-2240.0,7744.0
9.865,-12608.0,-2176.0,7744.0
9.8675,-12544.0,-2176.0,7680.0
9.87,-12480.0,-2176.0,7680.0
9.8725,-12416.0,-2112.0,7680.0
9.875,-12416.0,-2176.0,7616.0
9.8775,-12416.0,-2240.0,7552.0
9.88,-12352.0,-2240.0,7552.0
