time_stamp,acc_x,acc_y,acc_z
0.0,-15040.0,-2880.0,3456.0
0.0025,-15040.0,-2944.0,3328.0
0.005,-15040.0,-2944.0,3328.0
0.0075,-15040.0,-3008.0,3392.0
0.01,-15168.0,-3072.0,3520.0
0.0125,-15168.0,-3136.0,3520.0
0.015,-15104.0,-3136.0,3520.0
0.0175,-15104.0,-3072.0,3456.0
0.02,-15168.0,-3136.0,3456.0
0.0225,-15168.0,-3200.0,3520.0
0.025,-15168.0,-3136.0,3520.0
0.0275,-15232.0,-3072.0,3456.0
0.03,-15168.0,-3136.0,3392.0
0.0325,-15168.0,-3072.0,3328.0
0.035,-15104.0,-3008.0,3392.0
0.0375,-15104.0,-3008.0,3392.0
0.04,-15168.0,-3008.0,3328.0
0.0425,-15232.0,-3008.0,3392.0
0.045,-15232.0,-2944.0,3456.0
0.0475,-15232.0,-2944.0,3456.0
0.05,-15296.0,-3008.0,3456.0
0.0525,-15296.0,-2944.0,3456.0
0.055,-15296.0,-2944.0,3392.0
0.0575,-15360.0,-2944.0,3328.0
0.06,-15424.0,-2944.0,3392.0
0.0625,-15360.0,-2944.0,3392.0
0.065,-15424.0,-3008.0,3392.0
0.0675,-15488.0,-3072.0,3328.0
0.07,-15488.0,-3072.0,3392.0
0.0725,-15488.0,-3008.0,3328.0
0.075,-15488.0,-2944.0,3264.0
0.0775,-15488.0,-2944.0,3264.0
0.08,-15616.0,-3008.0,3456.0
0.0825,-15616.0,-3008.0,3328.0
0.085,-15552.0,-3008.0,3200.0
0.0875,-15616.0,-2944.0,3200.0
0.09,-15744.0,-3008.0,3264.0
0.0925,-15744.0,-3008.0,3264.0
0.095,-15744.0,-3008.0,3264.0
0.0975,-15680.0,-3008.0,3136.0
0.1,-15744.0,-2944.0,3008.0
0.1025,-15808.0,-3008.0,3072.0
0.105,-15872.0,-3008.0,3072.0
0.1075,-15936.0,-3072.0,3136.0
0.11,-16000.0,-3008.0,3136.0
0.1125,-16064.0,-3008.0,3072.0
0.115,-16128.0,-3008.0,3072.0
0.1175,-16128.0,-3072.0,3072.0
0.12,-16192.0,-3072.0,3072.0
0.1225,-16256.0,-3008.0,3008.0
0.125,-16320.0,-3008.0,3072.0
0.1275,-16320.0,-3008.0,3008.0
0.13,-16384.0,-3008.0,3008.0
0.1325,-16448.0,-3008.0,3008.0
0.135,-16512.0,-2944.0,3072.0
0.1375,-16576.0,-3008.0,3008.0
0.14,-16640.0,-3008.0,3008.0
0.1425,-16704.0,-3008.0,3008.0
0.145,-16640.0,-3008.0,3008.0
0.1475,-16768.0,-3072.0,3008.0
0.15,-16832.0,-3072.0,2944.0
0.1525,-16896.0,-3136.0,2944.0
0.155,-16832.0,-3136.0,2944.0
0.1575,-16832.0,-3136.0,3008.0
0.16,-16960.0,-3200.0,3008.0
0.1625,-16960.0,-3200.0,2880.0
0.165,-16896.0,-3136.0,2880.0
0.1675,-16960.0,-3136.0,2816.0
0.17,-16960.0,-3136.0,2944.0
0.1725,-16960.0,-3200.0,3008.0
0.175,-16896.0,-3200.0,3072.0
0.1775,-16832.0,-3136.0,3008.0
0.18,-16832.0,-3136.0,2944.0
0.1825,-16896.0,-3072.0,3008.0
0.185,-16896.0,-3136.0,3072.0
0.1875,-16960.0,-3136.0,3072.0
0.19,-16832.0,-3136.0,3008.0
0.1925,-16832.0,-3072.0,3072.0
0.195,-16704.0,-3136.0,3008.0
0.1975,-16640.0,-3072.0,3008.0
0.2,-16640.0,-3072.0,3072.0
0.2025,-16512.0,-3008.0,3136.0
0.205,-16448.0,-3008.0,3136.0
0.2075,-16384.0,-3008.0,3072.0
0.21,-16320.0,-3072.0,3072.0
0.2125,-16320.0,-3072.0,3072.0
0.215,-16256.0,-3072.0,3008.0
0.2175,-16192.0,-3008.0,3008.0
0.22,-16128.0,-3008.0,3136.0
0.2225,-16128.0,-3072.0,3136.0
0.225,-16064.0,-3008.0,3136.0
0.2275,-16064.0,-3008.0,3072.0
0.23,-15936.0,-2944.0,3136.0
0.2325,-15936.0,-2944.0,3136.0
0.235,-15936.0,-2944.0,3136.0
0.2375,-15936.0,-2944.0,3200.0
0.24,-15872.0,-2944.0,3264.0
0.2425,-15808.0,-2944.0,3136.0
0.245,-15680.0,-2880.0,3072.0
0.2475,-15680.0,-2880.0,3136.0
0.25,-15744.0,-2880.0,3264.0
0.2525,-15680.0,-2880.0,3264.0
0.255,-15680.0,-2880.0,3200.0
0.2575,-15680.0,-2880.0,3264.0
0.26,-15616.0,-2944.0,3264.0
0.2625,-15616.0,-2944.0,3136.0
0.265,-15744.0,-3008.0,3200.0
0.2675,-15872.0,-2944.0,3200.0
0.27,-15808.0,-3008.0,3136.0
0.2725,-15808.0,-3072.0,3200.0
0.275,-15808.0,-3008.0,3136.0
0.2775,-15872.0,-3072.0,3200.0
0.28,-15872.0,-3008.0,3200.0
0.2825,-15872.0,-3008.0,3200.0
0.285,-15872.0,-3008.0,3072.0
0.2875,-15936.0,-3072.0,3136.0
0.29,-15936.0,-3008.0,3136.0
0.2925,-16000.0,-3072.0,3136.0
0.295,-16000.0,-3136.0,3136.0
0.2975,-16000.0,-3136.0,3136.0
0.3,-16000.0,-3136.0,3136.0
0.3025,-16000.0,-3136.0,3200.0
0.305,-16064.0,-3136.0,3200.0
0.3075,-16064.0,-3136.0,3200.0
0.31,-16128.0,-3136.0,3200.0
0.3125,-16192.0,-3200.0,3200.0
0.315,-16192.0,-3264.0,3200.0
0.3175,-16128.0,-3264.0,3200.0
0.32,-16192.0,-3328.0,3264.0
0.3225,-16192.0,-3328.0,3264.0
0.325,-16128.0,-3328.0,3136.0
0.3275,-16192.0,-3328.0,3136.0
0.33,-16256.0,-3264.0,3264.0
0.3325,-16320.0,-3328.0,3264.0
0.335,-16256.0,-3328.0,3264.0
0.3375,-16192.0,-3264.0,3200.0
0.34,-16192.0,-3264.0,3136.0
0.3425,-16256.0,-3328.0,3200.0
0.345,-16192.0,-3392.0,3200.0
0.3475,-16192.0,-3392.0,3200.0
0.35,-16256.0,-3392.0,3136.0
0.3525,-16256.0,-3392.0,3200.0
0.355,-16192.0,-3392.0,3136.0
0.3575,-16192.0,-3392.0,3072.0
0.36,-16128.0,-3392.0,3136.0
0.3625,-16128.0,-3392.0,3072.0
0.365,-16128.0,-3392.0,3136.0
0.3675,-16064.0,-3328.0,3136.0
0.37,-16064.0,-3328.0,3200.0
0.3725,-16064.0,-3328.0,3200.0
0.375,-16064.0,-3328.0,3136.0
0.3775,-16000.0,-3264.0,3136.0
0.38,-16064.0,-3264.0,3136.0
0.3825,-16000.0,-3264.0,3264.0
0.385,-16000.0,-3328.0,3200.0
0.3875,-16000.0,-3264.0,3136.0
0.39,-15936.0,-3200.0,3200.0
0.3925,-15936.0,-3200.0,3136.0
0.395,-16000.0,-3200.0,3200.0
0.3975,-15936.0,-3136.0,3136.0
0.4,-16000.0,-3136.0,3264.0
0.4025,-15936.0,-3200.0,3072.0
0.405,-15936.0,-3072.0,3072.0
0.4075,-15936.0,-3072.0,3072.0
0.41,-15936.0,-3072.0,3072.0
0.4125,-15936.0,-3136.0,3200.0
0.415,-15872.0,-3008.0,3200.0
0.4175,-15808.0,-3008.0,3072.0
0.42,-15872.0,-3008.0,3264.0
0.4225,-15936.0,-3008.0,3200.0
0.425,-15872.0,-3072.0,3264.0
0.4275,-15872.0,-3072.0,3328.0
0.43,-15872.0,-3072.0,3264.0
0.4325,-15872.0,-3072.0,3264.0
0.435,-15872.0,-3008.0,3264.0
0.4375,-15872.0,-3008.0,3200.0
0.44,-15936.0,-2944.0,3200.0
0.4425,-15936.0,-3008.0,3264.0
0.445,-15936.0,-3008.0,3264.0
0.4475,-15872.0,-2944.0,3328.0
0.45,-15936.0,-3008.0,3264.0
0.4525,-15936.0,-3008.0,3328.0
0.455,-15872.0,-3008.0,3328.0
0.4575,-15872.0,-3008.0,3392.0
0.46,-15936.0,-3008.0,3328.0
0.4625,-15872.0,-3072.0,3328.0
0.465,-15936.0,-3136.0,3328.0
0.4675,-16064.0,-3136.0,3392.0
0.47,-16064.0,-3136.0,3456.0
0.4725,-16064.0,-3200.0,3392.0
0.475,-16128.0,-3200.0,3456.0
0.4775,-16128.0,-3200.0,3456.0
0.48,-16192.0,-3136.0,3584.0
0.4825,-16192.0,-3072.0,3520.0
0.485,-16064.0,-3072.0,3328.0
0.4875,-16128.0,-3136.0,3392.0
0.49,-16128.0,-3136.0,3520.0
0.4925,-16064.0,-3072.0,3456.0
0.495,-16000.0,-3072.0,3328.0
0.4975,-16000.0,-2944.0,3328.0
0.5,-16000.0,-3008.0,3392.0
0.5025,-16064.0,-2944.0,3520.0
0.505,-16064.0,-2880.0,3392.0
0.5075,-16064.0,-2880.0,3456.0
0.51,-16064.0,-2880.0,3456.0
0.5125,-16064.0,-2880.0,3520.0
0.515,-16064.0,-2816.0,3456.0
0.5175,-16064.0,-2816.0,3584.0
0.52,-16000.0,-2880.0,3584.0
0.5225,-16064.0,-2816.0,3584.0
0.525,-16064.0,-2816.0,3584.0
0.5275,-16128.0,-2880.0,3648.0
0.53,-16192.0,-2816.0,3584.0
0.5325,-16128.0,-2880.0,3584.0
0.535,-16192.0,-2816.0,3584.0
0.5375,-16128.0,-2880.0,3648.0
0.54,-16128.0,-2816.0,3648.0
0.5425,-16128.0,-2816.0,3712.0
0.545,-16128.0,-2880.0,3712.0
0.5475,-16064.0,-2752.0,3648.0
0.55,-16128.0,-2752.0,3648.0
0.5525,-16128.0,-2688.0,3648.0
0.555,-16128.0,-2624.0,3648.0
0.5575,-16064.0,-2624.0,3712.0
0.56,-16064.0,-2624.0,3904.0
0.5625,-16064.0,-2624.0,3840.0
0.565,-16000.0,-2688.0,3712.0
0.5675,-15936.0,-2752.0,3712.0
0.57,-16000.0,-2816.0,3712.0
0.5725,-15936.0,-2880.0,3648.0
0.575,-15936.0,-2880.0,3712.0
0.5775,-15936.0,-2944.0,3712.0
0.58,-15936.0,-2880.0,3648.0
0.5825,-15808.0,-2816.0,3584.0
0.585,-15808.0,-2816.0,3648.0
0.5875,-15744.0,-2816.0,3648.0
0.59,-15744.0,-2816.0,3712.0
0.5925,-15744.0,-2816.0,3712.0
0.595,-15808.0,-2752.0,3712.0
0.5975,-15744.0,-2816.0,3840.0
0.6,-15808.0,-2816.0,3712.0
0.6025,-15808.0,-2816.0,3712.0
0.605,-15744.0,-2816.0,3712.0
0.6075,-15744.0,-2816.0,3712.0
0.61,-15744.0,-2816.0,3776.0
0.6125,-15680.0,-2816.0,3712.0
0.615,-15680.0,-2816.0,3776.0
0.6175,-15680.0,-2752.0,3776.0
0.62,-15680.0,-2752.0,3840.0
0.6225,-15616.0,-2752.0,3840.0
0.625,-15616.0,-2816.0,3840.0
0.6275,-15616.0,-2816.0,3904.0
0.63,-15680.0,-2880.0,3968.0
0.6325,-15744.0,-2944.0,4032.0
0.635,-15680.0,-3008.0,3968.0
0.6375,-15616.0,-3008.0,3968.0
0.64,-15680.0,-3008.0,4032.0
0.6425,-15744.0,-2944.0,4096.0
0.645,-15744.0,-2944.0,4096.0
0.6475,-15744.0,-2944.0,4096.0
0.65,-15680.0,-2944.0,3968.0
0.6525,-15808.0,-3008.0,3904.0
0.655,-15872.0,-3008.0,3968.0
0.6575,-15872.0,-3072.0,4032.0
0.66,-15872.0,-3008.0,4032.0
0.6625,-15744.0,-2944.0,3840.0
0.665,-15872.0,-3008.0,3904.0
0.6675,-15936.0,-2944.0,3904.0
0.67,-15872.0,-3008.0,4032.0
0.6725,-15936.0,-3072.0,4032.0
0.675,-15936.0,-3008.0,3968.0
0.6775,-15936.0,-3008.0,3968.0
0.68,-16000.0,-3072.0,3904.0
0.6825,-16000.0,-3072.0,3904.0
0.685,-15936.0,-3072.0,3968.0
0.6875,-16000.0,-3072.0,3968.0
0.69,-16000.0,-3136.0,3904.0
0.6925,-16064.0,-3136.0,3904.0
0.695,-16064.0,-3136.0,3904.0
0.6975,-16064.0,-3200.0,3968.0
0.7,-16064.0,-3136.0,3968.0
0.7025,-16064.0,-3200.0,3968.0
0.705,-16128.0,-3200.0,3904.0
0.7075,-16192.0,-3264.0,3968.0
0.71,-16192.0,-3328.0,3904.0
0.7125,-16128.0,-3328.0,3904.0
0.715,-16192.0,-3328.0,3840.0
0.7175,-16256.0,-3264.0,3840.0
0.72,-16256.0,-3392.0,3840.0
0.7225,-16320.0,-3328.0,3840.0
0.725,-16320.0,-3328.0,3904.0
0.7275,-16320.0,-3328.0,3776.0
0.73,-16320.0,-3264.0,3648.0
0.7325,-16448.0,-3328.0,3776.0
0.735,-16448.0,-3392.0,3776.0
0.7375,-16320.0,-3392.0,3648.0
0.74,-16320.0,-3456.0,3776.0
0.7425,-16320.0,-3456.0,3712.0
0.745,-16320.0,-3520.0,3584.0
0.7475,-16320.0,-3520.0,3648.0
0.75,-16320.0,-3520.0,3648.0
0.7525,-16256.0,-3520.0,3584.0
0.755,-16256.0,-3456.0,3648.0
0.7575,-16192.0,-3456.0,3584.0
0.76,-16192.0,-3520.0,3648.0
0.7625,-16192.0,-3520.0,3648.0
0.765,-16256.0,-3584.0,3584.0
0.7675,-16128.0,-3520.0,3584.0
0.77,-16192.0,-3584.0,3520.0
0.7725,-16128.0,-3648.0,3456.0
0.775,-16128.0,-3584.0,3456.0
0.7775,-16064.0,-3648.0,3456.0
0.78,-16064.0,-3648.0,3456.0
0.7825,-16000.0,-3712.0,3520.0
0.785,-16064.0,-3648.0,3456.0
0.7875,-16000.0,-3712.0,3456.0
0.79,-15936.0,-3712.0,3328.0
0.7925,-15872.0,-3712.0,3264.0
0.795,-15808.0,-3712.0,3264.0
0.7975,-15872.0,-3776.0,3328.0
0.8,-15936.0,-3840.0,3392.0
0.8025,-15872.0,-3840.0,3328.0
0.805,-15872.0,-3840.0,3328.0
0.8075,-15744.0,-3840.0,3072.0
0.81,-15744.0,-3904.0,3200.0
0.8125,-15680.0,-3840.0,3136.0
0.815,-15744.0,-3904.0,3200.0
0.8175,-15744.0,-3968.0,3200.0
0.82,-15680.0,-3904.0,3200.0
0.8225,-15616.0,-3904.0,3072.0
0.825,-15616.0,-3904.0,3072.0
0.8275,-15552.0,-3904.0,2944.0
0.83,-15488.0,-3968.0,2880.0
0.8325,-15488.0,-4032.0,2944.0
0.835,-15424.0,-4096.0,2944.0
0.8375,-15424.0,-4096.0,2944.0
0.84,-15360.0,-4096.0,2944.0
0.8425,-15360.0,-4096.0,2880.0
0.845,-15360.0,-4096.0,2816.0
0.8475,-15232.0,-4096.0,2816.0
0.85,-15168.0,-4096.0,2816.0
0.8525,-15232.0,-4160.0,2752.0
0.855,-15232.0,-4160.0,2752.0
0.8575,-15168.0,-4160.0,2624.0
0.86,-15104.0,-4160.0,2624.0
0.8625,-15104.0,-4160.0,2624.0
0.865,-15104.0,-4224.0,2624.0
0.8675,-15040.0,-4224.0,2624.0
0.87,-15040.0,-4224.0,2624.0
0.8725,-14976.0,-4288.0,2624.0
0.875,-14976.0,-4288.0,2560.0
0.8775,-14976.0,-4288.0,2560.0
0.88,-15040.0,-4288.0,2624.0
0.8825,-15040.0,-4224.0,2624.0
0.885,-14976.0,-4288.0,2624.0
0.8875,-14912.0,-4288.0,2496.0
0.89,-14976.0,-4288.0,2560.0
0.8925,-14976.0,-4352.0,2432.0
0.895,-15040.0,-4416.0,2560.0
0.8975,-15040.0,-4352.0,2496.0
0.9,-14976.0,-4352.0,2432.0
0.9025,-14912.0,-4352.0,2304.0
0.905,-15040.0,-4288.0,2432.0
0.9075,-15040.0,-4352.0,2368.0
0.91,-15040.0,-4288.0,2368.0
0.9125,-15104.0,-4352.0,2368.0
0.915,-15168.0,-4352.0,2368.0
0.9175,-15232.0,-4416.0,2432.0
0.92,-15232.0,-4416.0,2432.0
0.9225,-15232.0,-4416.0,2304.0
0.925,-15232.0,-4416.0,2368.0
0.9275,-15296.0,-4416.0,2368.0
0.93,-15360.0,-4480.0,2368.0
0.9325,-15360.0,-4544.0,2368.0
0.935,-15488.0,-4544.0,2368.0
0.9375,-15552.0,-4480.0,2304.0
0.94,-15680.0,-4416.0,2368.0
0.9425,-15680.0,-4480.0,2304.0
0.945,-15680.0,-4480.0,2304.0
0.9475,-15744.0,-4480.0,2304.0
0.95,-15872.0,-4480.0,2304.0
0.9525,-15872.0,-4480.0,2304.0
0.955,-15936.0,-4480.0,2304.0
0.9575,-15936.0,-4544.0,2240.0
0.96,-16064.0,-4608.0,2432.0
0.9625,-16064.0,-4608.0,2432.0
0.965,-16000.0,-4672.0,2304.0
0.9675,-16000.0,-4608.0,2240.0
0.97,-16000.0,-4608.0,2240.0
0.9725,-16064.0,-4672.0,2368.0
0.975,-16128.0,-4672.0,2432.0
0.9775,-16128.0,-4672.0,2304.0
0.98,-16192.0,-4736.0,2304.0
0.9825,-16064.0,-4736.0,2240.0
0.985,-16000.0,-4672.0,2048.0
0.9875,-16064.0,-4672.0,2176.0
0.99,-16000.0,-4672.0,2176.0
0.9925,-16000.0,-4672.0,2048.0
0.995,-16000.0,-4736.0,2048.0
0.9975,-15936.0,-4672.0,1984.0
1.0,-15872.0,-4672.0,1920.0
1.0025,-15872.0,-4672.0,1984.0
1.005,-15808.0,-4672.0,1984.0
1.0075,-15808.0,-4672.0,1984.0
1.01,-15744.0,-4672.0,1984.0
1.0125,-15744.0,-4608.0,1984.0
1.015,-15680.0,-4672.0,1984.0
1.0175,-15680.0,-4672.0,1984.0
1.02,-15680.0,-4608.0,1984.0
1.0225,-15616.0,-4608.0,1920.0
1.025,-15552.0,-4544.0,1920.0
1.0275,-15552.0,-4544.0,1984.0
1.03,-15552.0,-4544.0,1984.0
1.0325,-15552.0,-4544.0,2048.0
1.035,-15552.0,-4480.0,2048.0
1.0375,-15552.0,-4480.0,2112.0
1.04,-15552.0,-4480.0,2240.0
1.0425,-15488.0,-4416.0,2304.0
1.045,-15424.0,-4352.0,2176.0
1.0475,-15488.0,-4352.0,2176.0
1.05,-15552.0,-4352.0,2240.0
1.0525,-15552.0,-4288.0,2304.0
1.055,-15616.0,-4288.0,2368.0
1.0575,-15680.0,-4224.0,2432.0
1.06,-15680.0,-4224.0,2368.0
1.0625,-15808.0,-4224.0,2304.0
1.065,-15808.0,-4224.0,2304.0
1.0675,-15872.0,-4096.0,2368.0
1.07,-15936.0,-4096.0,2432.0
1.0725,-16000.0,-4032.0,2432.0
1.075,-16064.0,-4032.0,2432.0
1.0775,-16128.0,-4032.0,2432.0
1.08,-16192.0,-4032.0,2496.0
1.0825,-16320.0,-4032.0,2496.0
1.085,-16384.0,-4032.0,2560.0
1.0875,-16512.0,-4032.0,2560.0
1.09,-16704.0,-3968.0,2560.0
1.0925,-16768.0,-3968.0,2624.0
1.095,-16896.0,-4032.0,2688.0
1.0975,-17088.0,-4032.0,2624.0
1.1,-17216.0,-4032.0,2624.0
1.1025,-17344.0,-4096.0,2624.0
1.105,-17408.0,-4096.0,2560.0
1.1075,-17600.0,-4096.0,2560.0
1.11,-17664.0,-4096.0,2560.0
1.1125,-17664.0,-4160.0,2688.0
1.115,-17664.0,-4160.0,2624.0
1.1175,-17792.0,-4160.0,2688.0
1.12,-17792.0,-4160.0,2688.0
1.1225,-17728.0,-4160.0,2688.0
1.125,-17600.0,-4160.0,2688.0
1.1275,-17536.0,-4096.0,2624.0
1.13,-17472.0,-4096.0,2752.0
1.1325,-17280.0,-4096.0,2752.0
1.135,-17280.0,-4160.0,2880.0
1.1375,-17088.0,-4032.0,2816.0
1.14,-16960.0,-4032.0,2816.0
1.1425,-16832.0,-4032.0,2880.0
1.145,-16704.0,-4032.0,2880.0
1.1475,-16640.0,-4032.0,2944.0
1.15,-16512.0,-4032.0,2944.0
1.1525,-16384.0,-4032.0,2944.0
1.155,-16320.0,-4096.0,2944.0
1.1575,-16192.0,-4032.0,3072.0
1.16,-16064.0,-3968.0,3072.0
1.1625,-15936.0,-3968.0,3072.0
1.165,-15936.0,-3904.0,3200.0
1.1675,-15808.0,-3904.0,3200.0
1.17,-15680.0,-3904.0,3264.0
1.1725,-15616.0,-3840.0,3392.0
1.175,-15552.0,-3840.0,3392.0
1.1775,-15488.0,-3776.0,3392.0
1.18,-15360.0,-3712.0,3392.0
1.1825,-15296.0,-3648.0,3456.0
1.185,-15232.0,-3648.0,3456.0
1.1875,-15232.0,-3712.0,3456.0
1.19,-15168.0,-3584.0,3520.0
1.1925,-15104.0,-3584.0,3520.0
1.195,-15104.0,-3584.0,3520.0
1.1975,-15104.0,-3520.0,3520.0
1.2,-15168.0,-3584.0,3584.0
1.2025,-15232.0,-3584.0,3392.0
1.205,-15296.0,-3520.0,3520.0
1.2075,-15360.0,-3584.0,3648.0
1.21,-15424.0,-3584.0,3648.0
1.2125,-15424.0,-3648.0,3584.0
1.215,-15360.0,-3584.0,3456.0
1.2175,-15552.0,-3648.0,3456.0
1.22,-15616.0,-3712.0,3520.0
1.2225,-15744.0,-3712.0,3520.0
1.225,-15744.0,-3712.0,3456.0
1.2275,-15744.0,-3712.0,3456.0
1.23,-15872.0,-3712.0,3520.0
1.2325,-15872.0,-3840.0,3520.0
1.235,-15936.0,-3776.0,3520.0
1.2375,-16064.0,-3840.0,3520.0
1.24,-16064.0,-3840.0,3584.0
1.2425,-16064.0,-3840.0,3584.0
1.245,-16128.0,-3904.0,3648.0
1.2475,-16064.0,-3904.0,3776.0
1.25,-16064.0,-3904.0,3712.0
1.2525,-16064.0,-3904.0,3712.0
1.255,-16064.0,-3904.0,3776.0
1.2575,-15936.0,-3904.0,3776.0
1.26,-15936.0,-3904.0,3840.0
1.2625,-15872.0,-3968.0,3840.0
1.265,-15872.0,-3968.0,3904.0
1.2675,-15936.0,-4032.0,3904.0
1.27,-15872.0,-3968.0,4032.0
1.2725,-15872.0,-3968.0,4032.0
1.275,-15744.0,-3968.0,3968.0
1.2775,-15744.0,-3968.0,4032.0
1.28,-15808.0,-3968.0,4160.0
1.2825,-15744.0,-3968.0,4160.0
1.285,-15616.0,-3968.0,4096.0
1.2875,-15552.0,-3904.0,4032.0
1.29,-15552.0,-3904.0,4032.0
1.2925,-15616.0,-3968.0,4032.0
1.295,-15616.0,-3968.0,4224.0
1.2975,-15552.0,-3968.0,4096.0
1.3,-15552.0,-3904.0,4160.0
1.3025,-15488.0,-3904.0,4160.0
1.305,-15552.0,-3904.0,4224.0
1.3075,-15488.0,-3904.0,4224.0
1.31,-15488.0,-3904.0,4160.0
1.3125,-15424.0,-3904.0,4160.0
1.315,-15360.0,-3904.0,4160.0
1.3175,-15360.0,-3840.0,4160.0
1.32,-15296.0,-3840.0,4160.0
1.3225,-15232.0,-3840.0,4096.0
1.325,-15296.0,-3776.0,4160.0
1.3275,-15296.0,-3776.0,4160.0
1.33,-15296.0,-3776.0,4224.0
1.3325,-15296.0,-3712.0,4224.0
1.335,-15296.0,-3776.0,4224.0
1.3375,-15232.0,-3776.0,4224.0
1.34,-15296.0,-3776.0,4224.0
1.3425,-15296.0,-3776.0,4224.0
1.345,-15296.0,-3776.0,4288.0
1.3475,-15296.0,-3776.0,4288.0
1.35,-15360.0,-3776.0,4288.0
1.3525,-15360.0,-3776.0,4288.0
1.355,-15360.0,-3776.0,4352.0
1.3575,-15360.0,-3776.0,4352.0
1.36,-15488.0,-3840.0,4416.0
1.3625,-15488.0,-3776.0,4480.0
1.365,-15488.0,-3776.0,4480.0
1.3675,-15552.0,-3840.0,4544.0
1.37,-15616.0,-3840.0,4480.0
1.3725,-15616.0,-3904.0,4416.0
1.375,-15552.0,-3840.0,4288.0
1.3775,-15616.0,-3904.0,4352.0
1.38,-15616.0,-3904.0,4480.0
1.3825,-15616.0,-3904.0,4480.0
1.385,-15616.0,-3840.0,4416.0
1.3875,-15616.0,-3840.0,4352.0
1.39,-15616.0,-3904.0,4352.0
1.3925,-15616.0,-3840.0,4352.0
1.395,-15552.0,-3840.0,4352.0
1.3975,-15552.0,-3840.0,4416.0
1.4,-15552.0,-3840.0,4416.0
1.4025,-15552.0,-3840.0,4480.0
1.405,-15552.0,-3840.0,4416.0
1.4075,-15552.0,-3776.0,4352.0
1.41,-15488.0,-3776.0,4416.0
1.4125,-15488.0,-3776.0,4416.0
1.415,-15488.0,-3776.0,4480.0
1.4175,-15552.0,-3776.0,4480.0
1.42,-15488.0,-3712.0,4480.0
1.4225,-15488.0,-3712.0,4416.0
1.425,-15488.0,-3648.0,4416.0
1.4275,-15488.0,-3712.0,4480.0
1.43,-15488.0,-3648.0,4480.0
1.4325,-15488.0,-3648.0,4480.0
1.435,-15616.0,-3648.0,4416.0
1.4375,-15616.0,-3584.0,4416.0
1.44,-15616.0,-3712.0,4544.0
1.4425,-15616.0,-3648.0,4416.0
1.445,-15680.0,-3648.0,4544.0
1.4475,-15616.0,-3584.0,4480.0
1.45,-15616.0,-3520.0,4416.0
1.4525,-15552.0,-3456.0,4288.0
1.455,-15552.0,-3520.0,4352.0
1.4575,-15616.0,-3520.0,4352.0
1.46,-15616.0,-3520.0,4352.0
1.4625,-15680.0,-3456.0,4352.0
1.465,-15744.0,-3520.0,4352.0
1.4675,-15744.0,-3456.0,4288.0
1.47,-15808.0,-3456.0,4288.0
1.4725,-15808.0,-3392.0,4288.0
1.475,-15808.0,-3456.0,4224.0
1.4775,-15872.0,-3456.0,4224.0
1.48,-15936.0,-3520.0,4288.0
1.4825,-16000.0,-3520.0,4224.0
1.485,-16000.0,-3456.0,4224.0
1.4875,-16128.0,-3456.0,4224.0
1.49,-16064.0,-3520.0,4224.0
1.4925,-16192.0,-3520.0,4288.0
1.495,-16192.0,-3584.0,4288.0
1.4975,-16192.0,-3520.0,4288.0
1.5,-16192.0,-3584.0,4288.0
1.5025,-16256.0,-3584.0,4288.0
1.505,-16320.0,-3520.0,4288.0
1.5075,-16384.0,-3520.0,4224.0
1.51,-16448.0,-3520.0,4224.0
1.5125,-16512.0,-3520.0,4224.0
1.515,-16512.0,-3520.0,4224.0
1.5175,-16448.0,-3520.0,4288.0
1.52,-16512.0,-3584.0,4352.0
1.5225,-16448.0,-3456.0,4416.0
1.525,-16448.0,-3456.0,4224.0
1.5275,-16448.0,-3456.0,4160.0
1.53,-16448.0,-3392.0,4224.0
1.5325,-16512.0,-3456.0,4352.0
1.535,-16384.0,-3456.0,4288.0
1.5375,-16384.0,-3392.0,4224.0
1.54,-16320.0,-3456.0,4352.0
1.5425,-16192.0,-3392.0,4288.0
1.545,-16128.0,-3328.0,4224.0
1.5475,-16192.0,-3392.0,4352.0
1.55,-16128.0,-3392.0,4352.0
1.5525,-16128.0,-3328.0,4288.0
1.555,-16064.0,-3392.0,4288.0
1.5575,-16000.0,-3328.0,4416.0
1.56,-16000.0,-3328.0,4288.0
1.5625,-15872.0,-3200.0,4288.0
1.565,-15936.0,-3264.0,4288.0
1.5675,-15936.0,-3200.0,4288.0
1.57,-15872.0,-3200.0,4288.0
1.5725,-15808.0,-3200.0,4288.0
1.575,-15808.0,-3200.0,4288.0
1.5775,-15744.0,-3200.0,4352.0
1.58,-15744.0,-3136.0,4352.0
1.5825,-15744.0,-3136.0,4288.0
1.585,-15680.0,-3072.0,4288.0
1.5875,-15616.0,-3136.0,4352.0
1.59,-15616.0,-3072.0,4352.0
1.5925,-15552.0,-3008.0,4352.0
1.595,-15488.0,-3072.0,4288.0
1.5975,-15488.0,-3072.0,4288.0
1.6,-15488.0,-3008.0,4416.0
1.6025,-15488.0,-3008.0,4352.0
1.605,-15360.0,-2944.0,4288.0
1.6075,-15360.0,-2944.0,4288.0
1.61,-15360.0,-2944.0,4224.0
1.6125,-15424.0,-3008.0,4224.0
1.615,-15488.0,-3008.0,4224.0
1.6175,-15424.0,-3008.0,4224.0
1.62,-15424.0,-3008.0,4160.0
1.6225,-15424.0,-3008.0,4032.0
1.625,-15488.0,-3008.0,3968.0
1.6275,-15552.0,-3072.0,4096.0
1.63,-15616.0,-3136.0,4096.0
1.6325,-15616.0,-3136.0,4096.0
1.635,-15680.0,-3136.0,4032.0
1.6375,-15680.0,-3136.0,4032.0
1.64,-15680.0,-3136.0,3968.0
1.6425,-15744.0,-3072.0,4032.0
1.645,-15744.0,-3072.0,4032.0
1.6475,-15808.0,-3136.0,4032.0
1.65,-15744.0,-3136.0,3968.0
1.6525,-15744.0,-3072.0,3968.0
1.655,-15744.0,-3200.0,3968.0
1.6575,-15744.0,-3200.0,3968.0
1.66,-15680.0,-3136.0,3968.0
1.6625,-15680.0,-3200.0,4096.0
1.665,-15680.0,-3200.0,4032.0
1.6675,-15680.0,-3200.0,3968.0
1.67,-15744.0,-3200.0,4096.0
1.6725,-15744.0,-3200.0,4032.0
1.675,-15744.0,-3264.0,3968.0
1.6775,-15744.0,-3264.0,3968.0
1.68,-15680.0,-3328.0,4096.0
1.6825,-15680.0,-3328.0,4032.0
1.685,-15552.0,-3328.0,3904.0
1.6875,-15488.0,-3392.0,3904.0
1.69,-15488.0,-3392.0,3968.0
1.6925,-15552.0,-3392.0,3968.0
1.695,-15552.0,-3392.0,3968.0
1.6975,-15488.0,-3392.0,3968.0
1.7,-15488.0,-3328.0,3968.0
1.7025,-15488.0,-3328.0,3904.0
1.705,-15488.0,-3264.0,3840.0
1.7075,-15488.0,-3328.0,3776.0
1.71,-15488.0,-3328.0,3776.0
1.7125,-15552.0,-3328.0,3776.0
1.715,-15616.0,-3392.0,3776.0
1.7175,-15616.0,-3392.0,3712.0
1.72,-15680.0,-3392.0,3712.0
1.7225,-15744.0,-3456.0,3712.0
1.725,-15744.0,-3456.0,3776.0
1.7275,-15808.0,-3520.0,3712.0
1.73,-15744.0,-3456.0,3712.0
1.7325,-15744.0,-3456.0,3712.0
1.735,-15808.0,-3456.0,3712.0
1.7375,-15744.0,-3520.0,3712.0
1.74,-15872.0,-3456.0,3712.0
1.7425,-15872.0,-3520.0,3712.0
1.745,-15872.0,-3520.0,3712.0
1.7475,-15872.0,-3520.0,3712.0
1.75,-15872.0,-3584.0,3712.0
1.7525,-15872.0,-3648.0,3712.0
1.755,-15936.0,-3584.0,3712.0
1.7575,-15872.0,-3648.0,3712.0
1.76,-16000.0,-3776.0,3776.0
1.7625,-15936.0,-3712.0,3840.0
1.765,-15872.0,-3712.0,3648.0
1.7675,-15872.0,-3712.0,3648.0
1.77,-15808.0,-3712.0,3776.0
1.7725,-15808.0,-3712.0,3840.0
1.775,-15744.0,-3776.0,3904.0
1.7775,-15744.0,-3776.0,3776.0
1.78,-15680.0,-3648.0,3712.0
1.7825,-15552.0,-3648.0,3712.0
1.785,-15552.0,-3648.0,3776.0
1.7875,-15424.0,-3584.0,3776.0
1.79,-15360.0,-3648.0,3840.0
1.7925,-15296.0,-3584.0,3968.0
1.795,-15296.0,-3584.0,4032.0
1.7975,-15232.0,-3584.0,4096.0
1.8,-15296.0,-3456.0,4224.0
1.8025,-15296.0,-3520.0,4288.0
1.805,-15232.0,-3520.0,4288.0
1.8075,-15232.0,-3456.0,4224.0
1.81,-15296.0,-3456.0,4288.0
1.8125,-15296.0,-3392.0,4352.0
1.815,-15360.0,-3328.0,4288.0
1.8175,-15296.0,-3328.0,4352.0
1.82,-15296.0,-3328.0,4352.0
1.8225,-15360.0,-3328.0,4352.0
1.825,-15360.0,-3328.0,4416.0
1.8275,-15296.0,-3264.0,4416.0
1.83,-15360.0,-3264.0,4416.0
1.8325,-15424.0,-3328.0,4480.0
1.835,-15424.0,-3264.0,4416.0
1.8375,-15488.0,-3264.0,4416.0
1.84,-15680.0,-3328.0,4480.0
1.8425,-15744.0,-3328.0,4480.0
1.845,-15680.0,-3328.0,4544.0
1.8475,-15872.0,-3328.0,4608.0
1.85,-15808.0,-3328.0,4544.0
1.8525,-15872.0,-3328.0,4416.0
1.855,-15872.0,-3328.0,4352.0
1.8575,-16000.0,-3392.0,4416.0
1.86,-16064.0,-3456.0,4544.0
1.8625,-16064.0,-3456.0,4608.0
1.865,-16128.0,-3456.0,4480.0
1.8675,-16064.0,-3392.0,4416.0
1.87,-16128.0,-3520.0,4544.0
1.8725,-16192.0,-3520.0,4544.0
1.875,-16256.0,-3584.0,4544.0
1.8775,-16256.0,-3584.0,4544.0
1.88,-16256.0,-3584.0,4544.0
1.8825,-16192.0,-3584.0,4544.0
1.885,-16256.0,-3648.0,4544.0
1.8875,-16256.0,-3648.0,4544.0
1.89,-16320.0,-3648.0,4544.0
1.8925,-16320.0,-3648.0,4608.0
1.895,-16256.0,-3648.0,4416.0
1.8975,-16320.0,-3648.0,4544.0
1.9,-16256.0,-3648.0,4416.0
1.9025,-16192.0,-3648.0,4480.0
1.905,-16192.0,-3712.0,4480.0
1.9075,-16128.0,-3648.0,4608.0
1.91,-16064.0,-3648.0,4608.0
1.9125,-16128.0,-3584.0,4608.0
1.915,-16064.0,-3584.0,4480.0
1.9175,-16000.0,-3456.0,4544.0
1.92,-15872.0,-3520.0,4608.0
1.9225,-15808.0,-3456.0,4608.0
1.925,-15744.0,-3520.0,4608.0
1.9275,-15616.0,-3456.0,4544.0
1.93,-15552.0,-3328.0,4480.0
1.9325,-15488.0,-3328.0,4480.0
1.935,-15488.0,-3328.0,4608.0
1.9375,-15360.0,-3264.0,4608.0
1.94,-15232.0,-3200.0,4608.0
1.9425,-15104.0,-3072.0,4544.0
1.945,-14976.0,-3072.0,4544.0
1.9475,-14912.0,-3072.0,4544.0
1.95,-14848.0,-2944.0,4608.0
1.9525,-14720.0,-2944.0,4736.0
1.955,-14528.0,-2880.0,4864.0
1.9575,-14528.0,-2816.0,4992.0
1.96,-14336.0,-2816.0,5120.0
1.9625,-14272.0,-2816.0,5248.0
1.965,-14272.0,-2816.0,5440.0
1.9675,-14208.0,-2816.0,5632.0
1.97,-14080.0,-2816.0,5632.0
1.9725,-13952.0,-2816.0,5632.0
1.975,-13888.0,-2752.0,5696.0
1.9775,-13824.0,-2688.0,5824.0
1.98,-13760.0,-2688.0,5888.0
1.9825,-13696.0,-2688.0,5952.0
1.985,-13696.0,-2688.0,5952.0
1.9875,-13696.0,-2688.0,5952.0
1.99,-13632.0,-2688.0,5952.0
1.9925,-13696.0,-2688.0,5952.0
1.995,-13696.0,-2624.0,6016.0
1.9975,-13696.0,-2560.0,6080.0
2.0,-13632.0,-2560.0,6144.0
2.0025,-13568.0,-2624.0,6144.0
2.005,-13632.0,-2496.0,6080.0
2.0075,-13632.0,-2432.0,6208.0
2.01,-13760.0,-2496.0,6272.0
2.0125,-13888.0,-2496.0,6336.0
2.015,-13824.0,-2624.0,6208.0
2.0175,-13888.0,-2624.0,6144.0
2.02,-14016.0,-2752.0,6336.0
2.0225,-14080.0,-2816.0,6272.0
2.025,-14144.0,-2880.0,6144.0
2.0275,-14208.0,-2816.0,6272.0
2.03,-14336.0,-2880.0,6272.0
2.0325,-14400.0,-2880.0,6336.0
2.035,-14528.0,-2944.0,6336.0
2.0375,-14592.0,-2944.0,6336.0
2.04,-14720.0,-3008.0,6464.0
2.0425,-14720.0,-3008.0,6592.0
2.045,-14784.0,-3072.0,6656.0
2.0475,-14848.0,-3072.0,6720.0
2.05,-14912.0,-3136.0,6720.0
2.0525,-14976.0,-3136.0,6720.0
2.055,-15040.0,-3200.0,6848.0
2.0575,-14976.0,-3264.0,6848.0
2.06,-15104.0,-3328.0,6912.0
2.0625,-15040.0,-3328.0,6976.0
2.065,-15104.0,-3328.0,6976.0
2.0675,-15360.0,-3328.0,7040.0
2.07,-15168.0,-3328.0,7040.0
2.0725,-15232.0,-3328.0,7104.0
2.075,-15168.0,-3328.0,7040.0
2.0775,-15168.0,-3328.0,7040.0
2.08,-15232.0,-3328.0,7232.0
2.0825,-15232.0,-3328.0,7168.0
2.085,-15232.0,-3328.0,7168.0
2.0875,-15232.0,-3328.0,7104.0
2.09,-15360.0,-3328.0,7040.0
2.0925,-15488.0,-3328.0,6976.0
2.095,-15680.0,-3392.0,7040.0
2.0975,-15808.0,-3456.0,6912.0
2.1,-16000.0,-3520.0,6848.0
2.1025,-16064.0,-3456.0,6720.0
2.105,-16256.0,-3456.0,6720.0
2.1075,-16640.0,-3584.0,6784.0
2.11,-16768.0,-3584.0,6720.0
2.1125,-16960.0,-3712.0,6592.0
2.115,-17152.0,-3712.0,6592.0
2.1175,-17344.0,-3712.0,6528.0
2.12,-17472.0,-3712.0,6528.0
2.1225,-17600.0,-3712.0,6528.0
2.125,-17664.0,-3776.0,6592.0
2.1275,-17728.0,-3840.0,6592.0
2.13,-17600.0,-3904.0,6528.0
2.1325,-17536.0,-3904.0,6528.0
2.135,-17472.0,-3840.0,6592.0
2.1375,-17344.0,-3840.0,6592.0
2.14,-17152.0,-3840.0,6528.0
2.1425,-17024.0,-3840.0,6528.0
2.145,-16896.0,-3776.0,6528.0
2.1475,-16768.0,-3712.0,6464.0
2.15,-16640.0,-3712.0,6528.0
2.1525,-16448.0,-3712.0,6464.0
2.155,-16256.0,-3648.0,6400.0
2.1575,-16128.0,-3648.0,6400.0
2.16,-15744.0,-3584.0,6336.0
2.1625,-15616.0,-3584.0,6336.0
2.165,-15488.0,-3520.0,6336.0
2.1675,-15296.0,-3456.0,6208.0
2.17,-15168.0,-3520.0,6144.0
2.1725,-15040.0,-3456.0,6080.0
2.175,-15040.0,-3456.0,6144.0
2.1775,-14912.0,-3456.0,6144.0
2.18,-14848.0,-3520.0,6080.0
2.1825,-14784.0,-3520.0,6016.0
2.185,-14720.0,-3456.0,5888.0
2.1875,-14720.0,-3328.0,5824.0
2.19,-14656.0,-3264.0,5760.0
2.1925,-14656.0,-3200.0,5760.0
2.195,-14656.0,-3200.0,5568.0
2.1975,-14528.0,-3200.0,5568.0
2.2,-14592.0,-3200.0,5440.0
2.2025,-14592.0,-3200.0,5504.0
2.205,-14656.0,-3136.0,5440.0
2.2075,-14720.0,-3200.0,5312.0
2.21,-14720.0,-3200.0,5184.0
2.2125,-14784.0,-3200.0,5184.0
2.215,-14848.0,-3264.0,5184.0
2.2175,-14912.0,-3200.0,5120.0
2.22,-15040.0,-3200.0,5184.0
2.2225,-15040.0,-3200.0,5056.0
2.225,-15104.0,-3200.0,5056.0
2.2275,-15104.0,-3200.0,4992.0
2.23,-15104.0,-3200.0,4992.0
2.2325,-15232.0,-3200.0,4928.0
2.235,-15232.0,-3264.0,4928.0
2.2375,-15232.0,-3200.0,4864.0
2.24,-15424.0,-3328.0,4864.0
2.2425,-15424.0,-3328.0,4736.0
2.245,-15424.0,-3264.0,4672.0
2.2475,-15488.0,-3392.0,4608.0
2.25,-15616.0,-3392.0,4608.0
2.2525,-15680.0,-3456.0,4608.0
2.255,-15616.0,-3520.0,4608.0
2.2575,-15680.0,-3520.0,4544.0
2.26,-15680.0,-3520.0,4416.0
2.2625,-15680.0,-3520.0,4288.0
2.265,-15744.0,-3584.0,4288.0
2.2675,-15744.0,-3648.0,4096.0
2.27,-15744.0,-3712.0,4160.0
2.2725,-15744.0,-3712.0,4096.0
2.275,-15808.0,-3776.0,4096.0
2.2775,-15808.0,-3776.0,4096.0
2.28,-15808.0,-3840.0,4032.0
2.2825,-15808.0,-3840.0,3904.0
2.285,-15744.0,-3840.0,3968.0
2.2875,-15680.0,-3840.0,3968.0
2.29,-15680.0,-3904.0,3968.0
2.2925,-15680.0,-3904.0,3904.0
2.295,-15616.0,-3968.0,3968.0
2.2975,-15552.0,-3968.0,3840.0
2.3,-15488.0,-3968.0,3904.0
2.3025,-15488.0,-3968.0,3904.0
2.305,-15488.0,-3840.0,3840.0
2.3075,-15232.0,-3904.0,3904.0
2.31,-15360.0,-3840.0,3840.0
2.3125,-15296.0,-3840.0,3840.0
2.315,-15232.0,-3840.0,3904.0
2.3175,-15232.0,-3712.0,3904.0
2.32,-15232.0,-3712.0,3904.0
2.3225,-15104.0,-3584.0,3776.0
2.325,-14976.0,-3584.0,3840.0
2.3275,-14976.0,-3648.0,3904.0
2.33,-14912.0,-3584.0,3840.0
2.3325,-14976.0,-3584.0,3776.0
2.335,-14976.0,-3584.0,3776.0
2.3375,-14976.0,-3648.0,3904.0
2.34,-14912.0,-3584.0,3840.0
2.3425,-14848.0,-3456.0,3648.0
2.345,-14912.0,-3456.0,3712.0
2.3475,-14784.0,-3456.0,3648.0
2.35,-14848.0,-3584.0,3648.0
2.3525,-14912.0,-3584.0,3712.0
2.355,-14976.0,-3648.0,3712.0
2.3575,-14976.0,-3648.0,3712.0
2.36,-14976.0,-3520.0,3712.0
2.3625,-15040.0,-3584.0,3712.0
2.365,-15040.0,-3584.0,3712.0
2.3675,-15104.0,-3584.0,3776.0
2.37,-15168.0,-3584.0,3776.0
2.3725,-15168.0,-3584.0,3712.0
2.375,-15168.0,-3584.0,3712.0
2.3775,-15168.0,-3648.0,3584.0
2.38,-15296.0,-3648.0,3648.0
2.3825,-15360.0,-3648.0,3648.0
2.385,-15424.0,-3712.0,3712.0
2.3875,-15488.0,-3712.0,3648.0
2.39,-15552.0,-3776.0,3584.0
2.3925,-15616.0,-3776.0,3648.0
2.395,-15680.0,-3776.0,3648.0
2.3975,-15744.0,-3776.0,3584.0
2.4,-15808.0,-3776.0,3584.0
2.4025,-15872.0,-3840.0,3584.0
2.405,-15872.0,-3840.0,3584.0
2.4075,-15872.0,-3840.0,3456.0
2.41,-15936.0,-3840.0,3456.0
2.4125,-16000.0,-3904.0,3520.0
2.415,-16000.0,-3904.0,3584.0
2.4175,-16064.0,-3904.0,3520.0
2.42,-16064.0,-3904.0,3520.0
2.4225,-16064.0,-3968.0,3456.0
2.425,-16064.0,-3968.0,3584.0
2.4275,-16128.0,-3968.0,3520.0
2.43,-16128.0,-3968.0,3456.0
2.4325,-16128.0,-4032.0,3456.0
2.435,-16128.0,-4032.0,3456.0
2.4375,-16192.0,-4096.0,3520.0
2.44,-16192.0,-4032.0,3520.0
2.4425,-16128.0,-4096.0,3520.0
2.445,-16192.0,-4096.0,3456.0
2.4475,-16192.0,-4032.0,3392.0
2.45,-16192.0,-4032.0,3456.0
2.4525,-16128.0,-4096.0,3456.0
2.455,-16128.0,-4096.0,3456.0
2.4575,-16192.0,-4032.0,3456.0
2.46,-16192.0,-4096.0,3456.0
2.4625,-16192.0,-4096.0,3456.0
2.465,-16192.0,-4032.0,3456.0
2.4675,-16128.0,-4096.0,3520.0
2.47,-16064.0,-4032.0,3520.0
2.4725,-16064.0,-4032.0,3520.0
2.475,-16128.0,-4096.0,3456.0
2.4775,-16192.0,-4032.0,3584.0
2.48,-16128.0,-4032.0,3648.0
2.4825,-16064.0,-3968.0,3648.0
2.485,-16064.0,-3904.0,3584.0
2.4875,-16000.0,-3968.0,3584.0
2.49,-16064.0,-3968.0,3584.0
2.4925,-16064.0,-3968.0,3648.0
2.495,-16000.0,-3904.0,3712.0
2.4975,-16000.0,-3904.0,3584.0
2.5,-16064.0,-3840.0,3648.0
2.5025,-16128.0,-3904.0,3712.0
2.505,-16000.0,-3776.0,3648.0
2.5075,-16064.0,-3840.0,3712.0
2.51,-16064.0,-3904.0,3712.0
2.5125,-16128.0,-3840.0,3776.0
2.515,-16128.0,-3776.0,3840.0
2.5175,-16128.0,-3776.0,3712.0
2.52,-16128.0,-3776.0,3648.0
2.5225,-16192.0,-3776.0,3648.0
2.525,-16192.0,-3776.0,3712.0
2.5275,-16256.0,-3712.0,3712.0
2.53,-16192.0,-3776.0,3776.0
2.5325,-16256.0,-3776.0,3712.0
2.535,-16320.0,-3776.0,3712.0
2.5375,-16320.0,-3840.0,3712.0
2.54,-16320.0,-3776.0,3712.0
2.5425,-16320.0,-3840.0,3712.0
2.545,-16384.0,-3712.0,3712.0
2.5475,-16448.0,-3840.0,3776.0
2.55,-16512.0,-3840.0,3776.0
2.5525,-16512.0,-3840.0,3712.0
2.555,-16448.0,-3840.0,3584.0
2.5575,-16576.0,-3840.0,3648.0
2.56,-16704.0,-3904.0,3840.0
2.5625,-16640.0,-3904.0,3840.0
2.565,-16576.0,-3840.0,3776.0
2.5675,-16512.0,-3776.0,3648.0
2.57,-16448.0,-3776.0,3648.0
2.5725,-16512.0,-3840.0,3648.0
2.575,-16448.0,-3840.0,3776.0
2.5775,-16384.0,-3840.0,3712.0
2.58,-16320.0,-3776.0,3712.0
2.5825,-16320.0,-3776.0,3712.0
2.585,-16320.0,-3712.0,3712.0
2.5875,-16256.0,-3776.0,3712.0
2.59,-16128.0,-3712.0,3776.0
2.5925,-16128.0,-3776.0,3776.0
2.595,-16128.0,-3712.0,3776.0
2.5975,-16064.0,-3648.0,3776.0
2.6,-16064.0,-3648.0,3840.0
2.6025,-16064.0,-3648.0,3840.0
2.605,-16000.0,-3584.0,3776.0
2.6075,-15936.0,-3584.0,3840.0
2.61,-15872.0,-3520.0,3904.0
2.6125,-15872.0,-3520.0,3904.0
2.615,-15808.0,-3520.0,3904.0
2.6175,-15744.0,-3520.0,3968.0
2.62,-15680.0,-3520.0,3968.0
2.6225,-15744.0,-3456.0,3968.0
2.625,-15616.0,-3392.0,3968.0
2.6275,-15680.0,-3392.0,4032.0
2.63,-15552.0,-3328.0,4032.0
2.6325,-15552.0,-3392.0,4160.0
2.635,-15488.0,-3328.0,4096.0
2.6375,-15424.0,-3328.0,4096.0
2.64,-15232.0,-3264.0,4096.0
2.6425,-15168.0,-3328.0,4096.0
2.645,-15168.0,-3328.0,4160.0
2.6475,-15040.0,-3328.0,4224.0
2.65,-14912.0,-3328.0,4096.0
2.6525,-14784.0,-3328.0,4096.0
2.655,-14720.0,-3264.0,4032.0
2.6575,-14720.0,-3328.0,4160.0
2.66,-14592.0,-3328.0,4032.0
2.6625,-14592.0,-3264.0,4096.0
2.665,-14592.0,-3328.0,4160.0
2.6675,-14528.0,-3328.0,4032.0
2.67,-14464.0,-3264.0,4032.0
2.6725,-14464.0,-3328.0,4096.0
2.675,-14336.0,-3264.0,4096.0
2.6775,-14336.0,-3264.0,4096.0
2.68,-14400.0,-3264.0,4096.0
2.6825,-14336.0,-3264.0,4160.0
2.685,-14336.0,-3264.0,4096.0
2.6875,-14400.0,-3200.0,4032.0
2.69,-14400.0,-3264.0,4032.0
2.6925,-14400.0,-3200.0,4032.0
2.695,-14400.0,-3200.0,4096.0
2.6975,-14464.0,-3136.0,4160.0
2.7,-14400.0,-3136.0,4160.0
2.7025,-14336.0,-3136.0,4160.0
2.705,-14400.0,-3136.0,4224.0
2.7075,-14400.0,-3200.0,4224.0
2.71,-14400.0,-3200.0,4096.0
2.7125,-14464.0,-3200.0,4160.0
2.715,-14528.0,-3200.0,4224.0
2.7175,-14592.0,-3264.0,4096.0
2.72,-14848.0,-3328.0,4224.0
2.7225,-14784.0,-3264.0,4160.0
2.725,-14784.0,-3200.0,4160.0
2.7275,-14848.0,-3264.0,4096.0
2.73,-14976.0,-3264.0,4096.0
2.7325,-15040.0,-3200.0,4096.0
2.735,-15168.0,-3200.0,4160.0
2.7375,-15168.0,-3264.0,4032.0
2.74,-15232.0,-3200.0,4032.0
2.7425,-15296.0,-3264.0,3968.0
2.745,-15616.0,-3264.0,3968.0
2.7475,-15744.0,-3328.0,3968.0
2.75,-15872.0,-3392.0,3968.0
2.7525,-16000.0,-3456.0,4032.0
2.755,-16128.0,-3456.0,3968.0
2.7575,-16320.0,-3456.0,3968.0
2.76,-16448.0,-3520.0,3968.0
2.7625,-16640.0,-3520.0,4032.0
2.765,-16832.0,-3584.0,4032.0
2.7675,-16960.0,-3584.0,4096.0
2.77,-17088.0,-3584.0,4096.0
2.7725,-17344.0,-3648.0,4160.0
2.775,-17472.0,-3712.0,4160.0
2.7775,-17536.0,-3712.0,4096.0
2.78,-17600.0,-3712.0,4160.0
2.7825,-17728.0,-3712.0,4224.0
2.785,-17792.0,-3712.0,4288.0
2.7875,-17728.0,-3712.0,4224.0
2.79,-17728.0,-3776.0,4224.0
2.7925,-17728.0,-3776.0,4288.0
2.795,-17728.0,-3776.0,4288.0
2.7975,-17664.0,-3776.0,4352.0
2.8,-17408.0,-3776.0,4416.0
2.8025,-17216.0,-3776.0,4352.0
2.805,-17024.0,-3712.0,4224.0
2.8075,-16896.0,-3776.0,4416.0
2.81,-16768.0,-3712.0,4416.0
2.8125,-16576.0,-3648.0,4288.0
2.815,-16448.0,-3776.0,4352.0
2.8175,-16320.0,-3776.0,4480.0
2.82,-16192.0,-3712.0,4480.0
2.8225,-16000.0,-3776.0,4480.0
2.825,-15872.0,-3776.0,4480.0
2.8275,-15744.0,-3776.0,4480.0
2.83,-15616.0,-3776.0,4544.0
2.8325,-15488.0,-3776.0,4480.0
2.835,-15360.0,-3648.0,4544.0
2.8375,-15232.0,-3712.0,4608.0
2.84,-15104.0,-3712.0,4608.0
2.8425,-15104.0,-3712.0,4608.0
2.845,-14976.0,-3648.0,4672.0
2.8475,-14976.0,-3648.0,4608.0
2.85,-14912.0,-3712.0,4672.0
2.8525,-14912.0,-3648.0,4608.0
2.855,-14912.0,-3648.0,4608.0
2.8575,-14912.0,-3648.0,4608.0
2.86,-14976.0,-3648.0,4608.0
2.8625,-14976.0,-3712.0,4544.0
2.865,-14976.0,-3648.0,4480.0
2.8675,-14976.0,-3712.0,4544.0
2.87,-15104.0,-3712.0,4480.0
2.8725,-15104.0,-3712.0,4608.0
2.875,-15168.0,-3776.0,4608.0
2.8775,-15232.0,-3776.0,4672.0
2.88,-15296.0,-3776.0,4672.0
2.8825,-15360.0,-3712.0,4736.0
2.885,-15424.0,-3712.0,4864.0
2.8875,-15424.0,-3840.0,4864.0
2.89,-15552.0,-3840.0,4800.0
2.8925,-15552.0,-3904.0,4736.0
2.895,-15552.0,-3904.0,4736.0
2.8975,-15680.0,-3968.0,4800.0
2.9,-15808.0,-3968.0,4928.0
2.9025,-15808.0,-3968.0,4928.0
2.905,-15744.0,-3840.0,4864.0
2.9075,-15744.0,-3904.0,4864.0
2.91,-15808.0,-3968.0,4864.0
2.9125,-15744.0,-3968.0,4928.0
2.915,-15744.0,-4032.0,4864.0
2.9175,-15744.0,-4160.0,4864.0
2.92,-15808.0,-4160.0,4864.0
2.9225,-15808.0,-4096.0,4800.0
2.925,-15872.0,-4224.0,4800.0
2.9275,-15808.0,-4224.0,4800.0
2.93,-15744.0,-4224.0,4800.0
2.9325,-15744.0,-4224.0,4864.0
2.935,-15744.0,-4224.0,4736.0
2.9375,-15808.0,-4288.0,4736.0
2.94,-15808.0,-4288.0,4800.0
2.9425,-15808.0,-4352.0,4800.0
2.945,-15744.0,-4288.0,4800.0
2.9475,-15744.0,-4352.0,4736.0
2.95,-15680.0,-4288.0,4736.0
2.9525,-15616.0,-4224.0,4736.0
2.955,-15680.0,-4224.0,4736.0
2.9575,-15616.0,-4224.0,4736.0
2.96,-15552.0,-4224.0,4800.0
2.9625,-15488.0,-4160.0,4672.0
2.965,-15424.0,-4096.0,4544.0
2.9675,-15360.0,-4096.0,4544.0
2.97,-15424.0,-4096.0,4608.0
2.9725,-15360.0,-4096.0,4544.0
2.975,-15424.0,-4096.0,4480.0
2.9775,-15360.0,-4096.0,4544.0
2.98,-15360.0,-4032.0,4480.0
2.9825,-15296.0,-3968.0,4352.0
2.985,-15296.0,-3904.0,4352.0
2.9875,-15360.0,-3904.0,4416.0
2.99,-15360.0,-3840.0,4352.0
2.9925,-15360.0,-3904.0,4480.0
2.995,-15360.0,-3904.0,4480.0
2.9975,-15488.0,-3840.0,4480.0
3.0,-15424.0,-3840.0,4480.0
3.0025,-15424.0,-3840.0,4480.0
3.005,-15424.0,-3840.0,4480.0
3.0075,-15424.0,-3904.0,4416.0
3.01,-15488.0,-3840.0,4480.0
3.0125,-15488.0,-3840.0,4480.0
3.015,-15488.0,-3840.0,4416.0
3.0175,-15488.0,-3968.0,4416.0
3.02,-15488.0,-3968.0,4352.0
3.0225,-15552.0,-3904.0,4352.0
3.025,-15616.0,-3968.0,4416.0
3.0275,-15680.0,-4032.0,4352.0
3.03,-15680.0,-4032.0,4352.0
3.0325,-15680.0,-4032.0,4416.0
3.035,-15616.0,-3968.0,4352.0
3.0375,-15616.0,-3968.0,4288.0
3.04,-15680.0,-4032.0,4288.0
3.0425,-15616.0,-3968.0,4288.0
3.045,-15616.0,-3904.0,4160.0
3.0475,-15552.0,-3904.0,4224.0
3.05,-15616.0,-3840.0,4224.0
3.0525,-15616.0,-3840.0,4096.0
3.055,-15680.0,-3904.0,4224.0
3.0575,-15680.0,-3904.0,4224.0
3.06,-15552.0,-3840.0,4096.0
3.0625,-15552.0,-3904.0,4096.0
3.065,-15552.0,-3904.0,4032.0
3.0675,-15488.0,-3840.0,4096.0
3.07,-15552.0,-3840.0,4096.0
3.0725,-15552.0,-3840.0,4032.0
3.075,-15488.0,-3776.0,4032.0
3.0775,-15488.0,-3712.0,4032.0
3.08,-15552.0,-3776.0,4096.0
3.0825,-15552.0,-3776.0,4032.0
3.085,-15552.0,-3776.0,4096.0
3.0875,-15488.0,-3712.0,4096.0
3.09,-15552.0,-3584.0,4096.0
3.0925,-15488.0,-3712.0,4032.0
3.095,-15488.0,-3712.0,4096.0
3.0975,-15488.0,-3648.0,4160.0
3.1,-15488.0,-3648.0,4160.0
3.1025,-15488.0,-3648.0,4160.0
3.105,-15488.0,-3648.0,4160.0
3.1075,-15488.0,-3584.0,4160.0
3.11,-15488.0,-3584.0,4096.0
3.1125,-15424.0,-3584.0,4096.0
3.115,-15488.0,-3648.0,4096.0
3.1175,-15488.0,-3584.0,4096.0
3.12,-15424.0,-3648.0,4224.0
3.1225,-15424.0,-3648.0,4224.0
3.125,-15360.0,-3648.0,4224.0
3.1275,-15296.0,-3584.0,4096.0
3.13,-15296.0,-3520.0,4160.0
3.1325,-15360.0,-3456.0,4224.0
3.135,-15360.0,-3584.0,4352.0
3.1375,-15360.0,-3520.0,4352.0
3.14,-15296.0,-3520.0,4224.0
3.1425,-15360.0,-3520.0,4224.0
3.145,-15360.0,-3584.0,4288.0
3.1475,-15360.0,-3584.0,4352.0
3.15,-15424.0,-3520.0,4288.0
3.1525,-15360.0,-3584.0,4288.0
3.155,-15424.0,-3648.0,4352.0
3.1575,-15424.0,-3584.0,4352.0
3.16,-15488.0,-3520.0,4352.0
3.1625,-15424.0,-3648.0,4416.0
3.165,-15424.0,-3648.0,4352.0
3.1675,-15488.0,-3648.0,4416.0
3.17,-15488.0,-3648.0,4416.0
3.1725,-15488.0,-3648.0,4480.0
3.175,-15488.0,-3648.0,4480.0
3.1775,-15424.0,-3584.0,4480.0
3.18,-15488.0,-3520.0,4416.0
3.1825,-15552.0,-3584.0,4416.0
3.185,-15488.0,-3584.0,4416.0
3.1875,-15488.0,-3520.0,4480.0
3.19,-15616.0,-3584.0,4416.0
3.1925,-15488.0,-3648.0,4480.0
3.195,-15552.0,-3584.0,4480.0
3.1975,-15552.0,-3584.0,4480.0
3.2,-15616.0,-3648.0,4544.0
3.2025,-15616.0,-3648.0,4480.0
3.205,-15552.0,-3584.0,4416.0
3.2075,-15616.0,-3584.0,4480.0
3.21,-15680.0,-3648.0,4544.0
3.2125,-15680.0,-3648.0,4544.0
3.215,-15680.0,-3648.0,4544.0
3.2175,-15552.0,-3648.0,4544.0
3.22,-15552.0,-3648.0,4544.0
3.2225,-15552.0,-3648.0,4608.0
3.225,-15616.0,-3712.0,4672.0
3.2275,-15680.0,-3712.0,4736.0
3.23,-15616.0,-3712.0,4672.0
3.2325,-15680.0,-3648.0,4672.0
3.235,-15616.0,-3648.0,4672.0
3.2375,-15680.0,-3648.0,4736.0
3.24,-15616.0,-3584.0,4736.0
3.2425,-15552.0,-3584.0,4800.0
3.245,-15616.0,-3584.0,4800.0
3.2475,-15616.0,-3584.0,4800.0
3.25,-15616.0,-3584.0,4800.0
3.2525,-15552.0,-3584.0,4736.0
3.255,-15552.0,-3584.0,4736.0
3.2575,-15552.0,-3648.0,4800.0
3.26,-15552.0,-3584.0,4864.0
3.2625,-15552.0,-3584.0,4864.0
3.265,-15488.0,-3520.0,4864.0
3.2675,-15552.0,-3456.0,4864.0
3.27,-15552.0,-3456.0,4800.0
3.2725,-15552.0,-3520.0,4800.0
3.275,-15616.0,-3520.0,4800.0
3.2775,-15552.0,-3584.0,4736.0
3.28,-15552.0,-3648.0,4864.0
3.2825,-15552.0,-3584.0,4800.0
3.285,-15552.0,-3584.0,4736.0
3.2875,-15488.0,-3520.0,4736.0
3.29,-15552.0,-3520.0,4800.0
3.2925,-15552.0,-3520.0,4800.0
3.295,-15552.0,-3584.0,4928.0
3.2975,-15552.0,-3584.0,4928.0
3.3,-15552.0,-3584.0,4736.0
3.3025,-15616.0,-3584.0,4864.0
3.305,-15616.0,-3584.0,4928.0
3.3075,-15680.0,-3648.0,4992.0
3.31,-15616.0,-3584.0,4864.0
3.3125,-15616.0,-3584.0,4800.0
3.315,-15616.0,-3648.0,4864.0
3.3175,-15616.0,-3584.0,4864.0
3.32,-15680.0,-3584.0,4864.0
3.3225,-15680.0,-3520.0,4928.0
3.325,-15744.0,-3584.0,4928.0
3.3275,-15744.0,-3584.0,4864.0
3.33,-15744.0,-3584.0,4800.0
3.3325,-15680.0,-3520.0,4800.0
3.335,-15680.0,-3520.0,4864.0
3.3375,-15680.0,-3520.0,4800.0
3.34,-15680.0,-3584.0,4736.0
3.3425,-15680.0,-3584.0,4736.0
3.345,-15680.0,-3584.0,4800.0
3.3475,-15424.0,-3584.0,4800.0
3.35,-15680.0,-3520.0,4864.0
3.3525,-15680.0,-3520.0,4800.0
3.355,-15680.0,-3520.0,4864.0
3.3575,-15680.0,-3584.0,4928.0
3.36,-15616.0,-3584.0,5056.0
3.3625,-15680.0,-3648.0,5120.0
3.365,-15616.0,-3584.0,5184.0
3.3675,-15488.0,-3584.0,5056.0
3.37,-15488.0,-3520.0,4992.0
3.3725,-15488.0,-3520.0,5056.0
3.375,-15488.0,-3456.0,5120.0
3.3775,-15488.0,-3520.0,5248.0
3.38,-15424.0,-3456.0,5248.0
3.3825,-15360.0,-3456.0,5120.0
3.385,-15424.0,-3456.0,5184.0
3.3875,-15424.0,-3520.0,5056.0
3.39,-15360.0,-3584.0,5120.0
3.3925,-15296.0,-3520.0,5184.0
3.395,-15296.0,-3520.0,5184.0
3.3975,-15296.0,-3520.0,5184.0
3.4,-15296.0,-3520.0,5248.0
3.4025,-15296.0,-3584.0,5120.0
3.405,-15296.0,-3520.0,5120.0
3.4075,-15296.0,-3584.0,5184.0
3.41,-15232.0,-3520.0,5120.0
3.4125,-15296.0,-3584.0,5120.0
3.415,-15232.0,-3456.0,5120.0
3.4175,-15168.0,-3520.0,5056.0
3.42,-15168.0,-3584.0,5056.0
3.4225,-15232.0,-3520.0,5056.0
3.425,-15296.0,-3584.0,5056.0
3.4275,-15296.0,-3520.0,5056.0
3.43,-15360.0,-3584.0,5120.0
3.4325,-15360.0,-3584.0,5120.0
3.435,-15360.0,-3584.0,5120.0
3.4375,-15424.0,-3520.0,5120.0
3.44,-15488.0,-3584.0,5248.0
3.4425,-15552.0,-3712.0,5184.0
3.445,-15488.0,-3712.0,5120.0
3.4475,-15488.0,-3712.0,5120.0
3.45,-15552.0,-3712.0,5248.0
3.4525,-15616.0,-3712.0,5248.0
3.455,-15680.0,-3712.0,5312.0
3.4575,-15680.0,-3712.0,5248.0
3.46,-15680.0,-3712.0,5120.0
3.4625,-15744.0,-3712.0,5184.0
3.465,-15808.0,-3776.0,5248.0
3.4675,-15744.0,-3712.0,5120.0
3.47,-15808.0,-3840.0,5184.0
3.4725,-15744.0,-3776.0,5184.0
3.475,-15744.0,-3840.0,5248.0
3.4775,-15808.0,-3840.0,5248.0
3.48,-15808.0,-3904.0,5184.0
3.4825,-15744.0,-3904.0,5184.0
3.485,-15680.0,-3904.0,5184.0
3.4875,-15744.0,-3968.0,5184.0
3.49,-15744.0,-3968.0,5184.0
3.4925,-15744.0,-3904.0,5248.0
3.495,-15744.0,-3968.0,5248.0
3.4975,-15680.0,-3968.0,5248.0
3.5,-15680.0,-3968.0,5312.0
3.5025,-15616.0,-3968.0,5248.0
3.505,-15616.0,-3968.0,5248.0
3.5075,-15616.0,-3968.0,5248.0
3.51,-15552.0,-3968.0,5248.0
3.5125,-15488.0,-3904.0,5248.0
3.515,-15424.0,-3968.0,5248.0
3.5175,-15424.0,-3904.0,5184.0
3.52,-15424.0,-3968.0,5184.0
3.5225,-15360.0,-3904.0,5184.0
3.525,-15296.0,-3904.0,5120.0
3.5275,-15232.0,-3840.0,5184.0
3.53,-15104.0,-3840.0,5056.0
3.5325,-15104.0,-3840.0,5120.0
3.535,-15232.0,-3840.0,5120.0
3.5375,-15168.0,-3840.0,5184.0
3.54,-15104.0,-3904.0,5184.0
3.5425,-14976.0,-3904.0,4992.0
3.545,-14976.0,-3904.0,4992.0
3.5475,-15040.0,-3840.0,4992.0
3.55,-15104.0,-3904.0,5120.0
3.5525,-15040.0,-3904.0,5056.0
3.555,-15040.0,-3904.0,5120.0
3.5575,-15104.0,-3904.0,5056.0
3.56,-15040.0,-3904.0,5056.0
3.5625,-15104.0,-3904.0,5120.0
3.565,-15104.0,-3968.0,5120.0
3.5675,-15104.0,-3968.0,5056.0
3.57,-15104.0,-3904.0,5056.0
3.5725,-15104.0,-3904.0,5120.0
3.575,-15104.0,-3904.0,4992.0
3.5775,-15104.0,-3840.0,4992.0
3.58,-15040.0,-3904.0,4992.0
3.5825,-15104.0,-3904.0,4928.0
3.585,-15104.0,-3904.0,4928.0
3.5875,-15104.0,-3904.0,4992.0
3.59,-15104.0,-3840.0,4928.0
3.5925,-15168.0,-3840.0,4864.0
3.595,-15232.0,-3840.0,4864.0
3.5975,-15232.0,-3840.0,4800.0
3.6,-15296.0,-3840.0,4864.0
3.6025,-15296.0,-3776.0,4928.0
3.605,-15232.0,-3776.0,4800.0
3.6075,-15232.0,-3712.0,4736.0
3.61,-15232.0,-3776.0,4736.0
3.6125,-15296.0,-3840.0,4928.0
3.615,-15296.0,-3904.0,4928.0
3.6175,-15296.0,-3904.0,4864.0
3.62,-15232.0,-3968.0,4864.0
3.6225,-15232.0,-3968.0,4736.0
3.625,-15168.0,-3904.0,4608.0
3.6275,-15104.0,-3968.0,4736.0
3.63,-15104.0,-3968.0,4736.0
3.6325,-15104.0,-4032.0,4736.0
3.635,-15104.0,-4032.0,4800.0
3.6375,-15040.0,-4032.0,4736.0
3.64,-15104.0,-4096.0,4736.0
3.6425,-15040.0,-4032.0,4800.0
3.645,-15040.0,-4096.0,4736.0
3.6475,-14976.0,-4032.0,4736.0
3.65,-15040.0,-3968.0,4736.0
3.6525,-15040.0,-3968.0,4672.0
3.655,-14976.0,-3968.0,4736.0
3.6575,-14976.0,-3968.0,4800.0
3.66,-14976.0,-3968.0,4800.0
3.6625,-15040.0,-3968.0,4800.0
3.665,-14976.0,-3904.0,4800.0
3.6675,-14912.0,-3904.0,4736.0
3.67,-14976.0,-3968.0,4800.0
3.6725,-14912.0,-3968.0,4736.0
3.675,-14912.0,-3904.0,4800.0
3.6775,-14976.0,-3904.0,4800.0
3.68,-15040.0,-3904.0,4800.0
3.6825,-15040.0,-3776.0,4800.0
3.685,-14976.0,-3840.0,4672.0
3.6875,-15040.0,-3840.0,4736.0
3.69,-15040.0,-3840.0,4864.0
3.6925,-15040.0,-3840.0,4800.0
3.695,-15040.0,-3904.0,4736.0
3.6975,-15040.0,-3840.0,4544.0
3.7,-15104.0,-3840.0,4608.0
3.7025,-15104.0,-3840.0,4672.0
3.705,-15104.0,-3904.0,4544.0
3.7075,-15104.0,-3840.0,4608.0
3.71,-15104.0,-3840.0,4672.0
3.7125,-15104.0,-3840.0,4736.0
3.715,-15168.0,-3904.0,4864.0
3.7175,-15232.0,-3904.0,4736.0
3.72,-15168.0,-3904.0,4800.0
3.7225,-15168.0,-3904.0,4800.0
3.725,-15232.0,-3904.0,4736.0
3.7275,-15296.0,-3968.0,4736.0
3.73,-15296.0,-3968.0,4800.0
3.7325,-15232.0,-4032.0,4800.0
3.735,-15232.0,-4096.0,4736.0
3.7375,-15232.0,-4096.0,4800.0
3.74,-15360.0,-4096.0,4864.0
3.7425,-15296.0,-4160.0,4864.0
3.745,-15360.0,-4160.0,4864.0
3.7475,-15296.0,-4160.0,4928.0
3.75,-15296.0,-4160.0,5056.0
3.7525,-15232.0,-4096.0,5120.0
3.755,-15232.0,-4160.0,5184.0
3.7575,-15296.0,-4160.0,5312.0
3.76,-15232.0,-4096.0,5312.0
3.7625,-15232.0,-4160.0,5120.0
3.765,-15296.0,-4096.0,5184.0
3.7675,-15232.0,-4032.0,5184.0
3.77,-15296.0,-3968.0,5056.0
3.7725,-15232.0,-3968.0,5056.0
3.775,-15232.0,-3968.0,5120.0
3.7775,-15232.0,-3968.0,5120.0
3.78,-15168.0,-3904.0,4992.0
3.7825,-15168.0,-3968.0,4928.0
3.785,-15232.0,-3968.0,4992.0
3.7875,-15232.0,-4032.0,4928.0
3.79,-15168.0,-4096.0,4928.0
3.7925,-15232.0,-4096.0,4928.0
3.795,-15232.0,-4160.0,4992.0
3.7975,-15232.0,-4160.0,4992.0
3.8,-15232.0,-4224.0,4992.0
3.8025,-15168.0,-4160.0,4992.0
3.805,-15232.0,-4224.0,4992.0
3.8075,-15296.0,-4224.0,5056.0
3.81,-15232.0,-4160.0,5056.0
3.8125,-15168.0,-4160.0,5056.0
3.815,-15232.0,-4160.0,5056.0
3.8175,-15104.0,-4032.0,5056.0
3.82,-15104.0,-4096.0,5056.0
3.8225,-15104.0,-4096.0,5056.0
3.825,-15040.0,-4096.0,5056.0
3.8275,-15040.0,-4096.0,5056.0
3.83,-14976.0,-4032.0,5056.0
3.8325,-14976.0,-4032.0,5120.0
3.835,-14848.0,-4032.0,5184.0
3.8375,-14912.0,-3904.0,5184.0
3.84,-14784.0,-3840.0,5056.0
3.8425,-14656.0,-3840.0,5184.0
3.845,-14720.0,-3840.0,5248.0
3.8475,-14720.0,-3776.0,5248.0
3.85,-14592.0,-3712.0,5184.0
3.8525,-14528.0,-3776.0,5248.0
3.855,-14528.0,-3776.0,5312.0
3.8575,-14464.0,-3776.0,5376.0
3.86,-14464.0,-3776.0,5440.0
3.8625,-14400.0,-3776.0,5248.0
3.865,-14336.0,-3776.0,5312.0
3.8675,-14336.0,-3712.0,5312.0
3.87,-14208.0,-3712.0,5376.0
3.8725,-14080.0,-3712.0,5312.0
3.875,-14080.0,-3648.0,5184.0
3.8775,-14080.0,-3648.0,5248.0
3.88,-14016.0,-3648.0,5248.0
3.8825,-13952.0,-3584.0,5248.0
3.885,-13952.0,-3520.0,5312.0
3.8875,-13888.0,-3520.0,5312.0
3.89,-13824.0,-3584.0,5312.0
3.8925,-13824.0,-3648.0,5312.0
3.895,-13696.0,-3648.0,5376.0
3.8975,-13696.0,-3712.0,5440.0
3.9,-13632.0,-3648.0,5504.0
3.9025,-13568.0,-3648.0,5568.0
3.905,-13568.0,-3648.0,5568.0
3.9075,-13504.0,-3712.0,5568.0
3.91,-13504.0,-3648.0,5568.0
3.9125,-13504.0,-3648.0,5568.0
3.915,-13440.0,-3584.0,5568.0
3.9175,-13376.0,-3584.0,5632.0
3.92,-13376.0,-3648.0,5632.0
3.9225,-13376.0,-3584.0,5632.0
3.925,-13312.0,-3520.0,5440.0
3.9275,-13312.0,-3584.0,5440.0
3.93,-13376.0,-3648.0,5568.0
3.9325,-13440.0,-3648.0,5568.0
3.935,-13376.0,-3648.0,5440.0
3.9375,-13376.0,-3584.0,5376.0
3.94,-13376.0,-3584.0,5440.0
3.9425,-13376.0,-3584.0,5568.0
3.945,-13440.0,-3584.0,5504.0
3.9475,-13504.0,-3648.0,5376.0
3.95,-13504.0,-3648.0,5312.0
3.9525,-13568.0,-3712.0,5248.0
3.955,-13632.0,-3712.0,5120.0
3.9575,-13696.0,-3712.0,5184.0
3.96,-13760.0,-3648.0,5184.0
3.9625,-13760.0,-3648.0,5120.0
3.965,-13760.0,-3648.0,4928.0
3.9675,-13824.0,-3520.0,4992.0
3.97,-13824.0,-3520.0,5056.0
3.9725,-13888.0,-3520.0,5056.0
3.975,-13888.0,-3520.0,5056.0
3.9775,-13888.0,-3520.0,5056.0
3.98,-13824.0,-3520.0,4992.0
3.9825,-13952.0,-3520.0,4992.0
3.985,-13952.0,-3584.0,4864.0
3.9875,-13952.0,-3584.0,4928.0
3.99,-14016.0,-3584.0,4864.0
3.9925,-14016.0,-3584.0,4928.0
3.995,-14016.0,-3584.0,4928.0
3.9975,-14016.0,-3520.0,4864.0
4.0,-14016.0,-3456.0,4928.0
4.0025,-14016.0,-3456.0,4992.0
4.005,-14016.0,-3392.0,4992.0
4.0075,-14016.0,-3456.0,4864.0
4.01,-14016.0,-3456.0,4864.0
4.0125,-14080.0,-3456.0,4800.0
4.015,-14144.0,-3456.0,4800.0
4.0175,-14144.0,-3520.0,4800.0
4.02,-14144.0,-3456.0,4800.0
4.0225,-14208.0,-3584.0,4864.0
4.025,-14144.0,-3584.0,4864.0
4.0275,-14144.0,-3520.0,4864.0
4.03,-14208.0,-3520.0,4864.0
4.0325,-14208.0,-3520.0,4864.0
4.035,-14208.0,-3584.0,4928.0
4.0375,-14144.0,-3520.0,4992.0
4.04,-14144.0,-3584.0,5056.0
4.0425,-14144.0,-3584.0,5120.0
4.045,-14144.0,-3648.0,5120.0
4.0475,-14144.0,-3648.0,5184.0
4.05,-14080.0,-3648.0,5184.0
4.0525,-14016.0,-3648.0,5184.0
4.055,-13952.0,-3648.0,5248.0
4.0575,-13952.0,-3648.0,5184.0
4.06,-13952.0,-3648.0,5248.0
4.0625,-13952.0,-3584.0,5312.0
4.065,-13952.0,-3648.0,5312.0
4.0675,-13952.0,-3648.0,5376.0
4.07,-13888.0,-3584.0,5376.0
4.0725,-13888.0,-3520.0,5440.0
4.075,-13952.0,-3520.0,5376.0
4.0775,-13952.0,-3520.0,5440.0
4.08,-14016.0,-3520.0,5440.0
4.0825,-14144.0,-3520.0,5504.0
4.085,-14144.0,-3520.0,5504.0
4.0875,-14144.0,-3456.0,5504.0
4.09,-14144.0,-3456.0,5312.0
4.0925,-14144.0,-3456.0,5312.0
4.095,-14272.0,-3456.0,5376.0
4.0975,-14272.0,-3456.0,5440.0
4.1,-14336.0,-3456.0,5440.0
4.1025,-14464.0,-3456.0,5504.0
4.105,-14464.0,-3392.0,5504.0
4.1075,-14400.0,-3456.0,5504.0
4.11,-14400.0,-3456.0,5568.0
4.1125,-14400.0,-3392.0,5568.0
4.115,-14336.0,-3392.0,5568.0
4.1175,-14336.0,-3328.0,5568.0
4.12,-14464.0,-3328.0,5568.0
4.1225,-14400.0,-3392.0,5696.0
4.125,-14400.0,-3392.0,5760.0
4.1275,-14400.0,-3392.0,5696.0
4.13,-14400.0,-3392.0,5760.0
4.1325,-14400.0,-3392.0,5760.0
4.135,-14464.0,-3456.0,5824.0
4.1375,-14400.0,-3392.0,5824.0
4.14,-14400.0,-3328.0,6016.0
4.1425,-14400.0,-3392.0,6016.0
4.145,-14464.0,-3328.0,5952.0
4.1475,-14528.0,-3392.0,5952.0
4.15,-14528.0,-3456.0,5824.0
4.1525,-14592.0,-3392.0,5888.0
4.155,-14656.0,-3392.0,5760.0
4.1575,-14656.0,-3392.0,5760.0
4.16,-14720.0,-3392.0,5824.0
4.1625,-14720.0,-3456.0,5760.0
4.165,-14656.0,-3456.0,5824.0
4.1675,-14720.0,-3392.0,5632.0
4.17,-14720.0,-3456.0,5696.0
4.1725,-14784.0,-3520.0,5696.0
4.175,-14784.0,-3456.0,5632.0
4.1775,-14848.0,-3456.0,5760.0
4.18,-14912.0,-3584.0,5952.0
4.1825,-14976.0,-3520.0,5952.0
4.185,-14976.0,-3456.0,5760.0
4.1875,-15040.0,-3456.0,5824.0
4.19,-15040.0,-3456.0,5824.0
4.1925,-15104.0,-3456.0,5952.0
4.195,-15104.0,-3520.0,5888.0
4.1975,-15168.0,-3520.0,5888.0
4.2,-15168.0,-3520.0,5952.0
4.2025,-15168.0,-3520.0,5952.0
4.205,-15232.0,-3520.0,5888.0
4.2075,-15232.0,-3520.0,5952.0
4.21,-15232.0,-3584.0,5952.0
4.2125,-15232.0,-3584.0,5888.0
4.215,-15232.0,-3520.0,5888.0
4.2175,-15232.0,-3520.0,5824.0
4.22,-15168.0,-3584.0,5952.0
4.2225,-15168.0,-3520.0,5888.0
4.225,-15168.0,-3520.0,5888.0
4.2275,-15168.0,-3584.0,5888.0
4.23,-15104.0,-3648.0,5888.0
4.2325,-15104.0,-3584.0,5952.0
4.235,-15040.0,-3584.0,6016.0
4.2375,-14976.0,-3584.0,6016.0
4.24,-14976.0,-3712.0,6080.0
4.2425,-14912.0,-3712.0,6016.0
4.245,-14784.0,-3648.0,6016.0
4.2475,-14720.0,-3648.0,5952.0
4.25,-14656.0,-3584.0,5888.0
4.2525,-14656.0,-3648.0,5952.0
4.255,-14656.0,-3648.0,6144.0
4.2575,-14656.0,-3584.0,6208.0
4.26,-14528.0,-3648.0,6272.0
4.2625,-14528.0,-3584.0,6080.0
4.265,-14528.0,-3584.0,6208.0
4.2675,-14656.0,-3648.0,6208.0
4.27,-14656.0,-3584.0,6208.0
4.2725,-14656.0,-3584.0,6272.0
4.275,-14656.0,-3584.0,6272.0
4.2775,-14656.0,-3520.0,6208.0
4.28,-14656.0,-3520.0,6144.0
4.2825,-14656.0,-3584.0,6144.0
4.285,-14720.0,-3520.0,6080.0
4.2875,-14656.0,-3584.0,6080.0
4.29,-14592.0,-3520.0,6016.0
4.2925,-14592.0,-3456.0,6080.0
4.295,-14592.0,-3520.0,6080.0
4.2975,-14656.0,-3584.0,5952.0
4.3,-14656.0,-3712.0,6016.0
4.3025,-14656.0,-3712.0,6080.0
4.305,-14720.0,-3712.0,6080.0
4.3075,-14784.0,-3776.0,6016.0
4.31,-14784.0,-3840.0,6016.0
4.3125,-14912.0,-3776.0,6016.0
4.315,-14912.0,-3776.0,6016.0
4.3175,-14976.0,-3840.0,6016.0
4.32,-14976.0,-3904.0,6080.0
4.3225,-14976.0,-3904.0,6016.0
4.325,-14912.0,-3840.0,6016.0
4.3275,-14912.0,-3840.0,5952.0
4.33,-14976.0,-3840.0,6016.0
4.3325,-15040.0,-3904.0,6080.0
4.335,-15040.0,-3904.0,6016.0
4.3375,-15040.0,-3968.0,6080.0
4.34,-15104.0,-3968.0,6016.0
4.3425,-15104.0,-3968.0,5952.0
4.345,-15104.0,-3904.0,5888.0
4.3475,-15040.0,-3840.0,5888.0
4.35,-15040.0,-3840.0,5952.0
4.3525,-14976.0,-3840.0,6080.0
4.355,-14976.0,-3776.0,6080.0
4.3575,-14976.0,-3776.0,6016.0
4.36,-14912.0,-3712.0,6016.0
4.3625,-14784.0,-3712.0,6016.0
4.365,-14848.0,-3648.0,6016.0
4.3675,-14720.0,-3648.0,6144.0
4.37,-14720.0,-3584.0,6144.0
4.3725,-14592.0,-3520.0,6144.0
4.375,-14592.0,-3520.0,6080.0
4.3775,-14528.0,-3584.0,6080.0
4.38,-14528.0,-3584.0,6144.0
4.3825,-14464.0,-3520.0,6144.0
4.385,-14336.0,-3456.0,6208.0
4.3875,-14272.0,-3456.0,6208.0
4.39,-14272.0,-3456.0,6272.0
4.3925,-14208.0,-3456.0,6208.0
4.395,-14208.0,-3392.0,6336.0
4.3975,-14144.0,-3392.0,6336.0
4.4,-14208.0,-3392.0,6400.0
4.4025,-14144.0,-3392.0,6528.0
4.405,-14080.0,-3328.0,6464.0
4.4075,-14080.0,-3392.0,6336.0
4.41,-14144.0,-3392.0,6400.0
4.4125,-14144.0,-3392.0,6528.0
4.415,-14208.0,-3456.0,6592.0
4.4175,-14144.0,-3456.0,6528.0
4.42,-14144.0,-3456.0,6592.0
4.4225,-14080.0,-3520.0,6528.0
4.425,-14208.0,-3520.0,6592.0
4.4275,-14272.0,-3520.0,6592.0
4.43,-14272.0,-3520.0,6592.0
4.4325,-14272.0,-3584.0,6528.0
4.435,-14272.0,-3584.0,6592.0
4.4375,-14336.0,-3584.0,6656.0
4.44,-14336.0,-3648.0,6720.0
4.4425,-14336.0,-3584.0,6656.0
4.445,-14336.0,-3584.0,6592.0
4.4475,-14336.0,-3584.0,6528.0
4.45,-14272.0,-3584.0,6592.0
4.4525,-14272.0,-3584.0,6656.0
4.455,-14272.0,-3584.0,6720.0
4.4575,-14144.0,-3584.0,6720.0
4.46,-14144.0,-3584.0,6784.0
4.4625,-14144.0,-3584.0,6848.0
4.465,-14208.0,-3520.0,6848.0
4.4675,-14208.0,-3584.0,6848.0
4.47,-14208.0,-3584.0,6784.0
4.4725,-14080.0,-3584.0,6784.0
4.475,-14144.0,-3712.0,6784.0
4.4775,-14144.0,-3712.0,6848.0
4.48,-14080.0,-3712.0,6848.0
4.4825,-14080.0,-3712.0,6912.0
4.485,-13952.0,-3648.0,6912.0
4.4875,-13888.0,-3584.0,6784.0
4.49,-14016.0,-3584.0,6848.0
4.4925,-14080.0,-3712.0,6912.0
4.495,-14144.0,-3776.0,6912.0
4.4975,-14080.0,-3776.0,6912.0
4.5,-14016.0,-3776.0,6848.0
4.5025,-14016.0,-3776.0,6848.0
4.505,-13952.0,-3776.0,6720.0
4.5075,-13952.0,-3776.0,6784.0
4.51,-13952.0,-3776.0,6848.0
4.5125,-13952.0,-3712.0,6848.0
4.515,-13888.0,-3776.0,6848.0
4.5175,-13888.0,-3776.0,6848.0
4.52,-13888.0,-3776.0,6848.0
4.5225,-13888.0,-3712.0,6912.0
4.525,-13888.0,-3712.0,6912.0
4.5275,-13824.0,-3712.0,6848.0
4.53,-13824.0,-3712.0,6848.0
4.5325,-13824.0,-3712.0,6912.0
4.535,-13696.0,-3648.0,6912.0
4.5375,-13760.0,-3712.0,6976.0
4.54,-13632.0,-3776.0,6976.0
4.5425,-13632.0,-3776.0,6976.0
4.545,-13568.0,-3776.0,6976.0
4.5475,-13568.0,-3776.0,7104.0
4.55,-13440.0,-3776.0,7104.0
4.5525,-13376.0,-3712.0,7104.0
4.555,-13376.0,-3648.0,7104.0
4.5575,-13312.0,-3712.0,7104.0
4.56,-13248.0,-3648.0,7104.0
4.5625,-13312.0,-3648.0,7232.0
4.565,-13312.0,-3520.0,7232.0
4.5675,-13248.0,-3584.0,7168.0
4.57,-13248.0,-3520.0,7040.0
4.5725,-13248.0,-3584.0,7232.0
4.575,-13312.0,-3584.0,7232.0
4.5775,-13312.0,-3584.0,7168.0
4.58,-13312.0,-3648.0,7168.0
4.5825,-13376.0,-3712.0,7040.0
4.585,-13440.0,-3712.0,7104.0
4.5875,-13440.0,-3776.0,7040.0
4.59,-13440.0,-3776.0,7040.0
4.5925,-13440.0,-3712.0,7040.0
4.595,-13376.0,-3648.0,7104.0
4.5975,-13376.0,-3584.0,7168.0
4.6,-13376.0,-3584.0,7168.0
4.6025,-13376.0,-3584.0,7168.0
4.605,-13440.0,-3584.0,7168.0
4.6075,-13440.0,-3584.0,7296.0
4.61,-13504.0,-3520.0,7232.0
4.6125,-13504.0,-3584.0,7296.0
4.615,-13504.0,-3584.0,7296.0
4.6175,-13568.0,-3648.0,7360.0
4.62,-13632.0,-3712.0,7232.0
4.6225,-13632.0,-3712.0,7232.0
4.625,-13696.0,-3776.0,7232.0
4.6275,-13696.0,-3840.0,7104.0
4.63,-13824.0,-3840.0,7104.0
4.6325,-13888.0,-3904.0,7040.0
4.635,-13952.0,-3904.0,7168.0
4.6375,-14080.0,-3904.0,7232.0
4.64,-14208.0,-4032.0,7360.0
4.6425,-14208.0,-3968.0,7424.0
4.645,-14208.0,-3968.0,7360.0
4.6475,-14208.0,-3904.0,7296.0
4.65,-14272.0,-3904.0,7296.0
4.6525,-14336.0,-3904.0,7424.0
4.655,-14400.0,-3904.0,7488.0
4.6575,-14464.0,-3968.0,7616.0
4.66,-14464.0,-3968.0,7680.0
4.6625,-14400.0,-3840.0,7552.0
4.665,-14528.0,-3904.0,7680.0
4.6675,-14464.0,-3840.0,7744.0
4.67,-14464.0,-3904.0,7872.0
4.6725,-14464.0,-3904.0,7872.0
4.675,-14464.0,-3904.0,7872.0
4.6775,-14528.0,-3840.0,7936.0
4.68,-14528.0,-3840.0,7872.0
4.6825,-14528.0,-3840.0,7872.0
4.685,-14528.0,-3840.0,7936.0
4.6875,-14464.0,-3840.0,8000.0
4.69,-14464.0,-3776.0,7872.0
4.6925,-14464.0,-3776.0,7872.0
4.695,-14528.0,-3776.0,7744.0
4.6975,-14464.0,-3712.0,7744.0
4.7,-14528.0,-3712.0,7744.0
4.7025,-14528.0,-3712.0,7744.0
4.705,-14592.0,-3648.0,7808.0
4.7075,-14592.0,-3584.0,7744.0
4.71,-14656.0,-3648.0,7808.0
4.7125,-14656.0,-3648.0,7872.0
4.715,-14656.0,-3584.0,7872.0
4.7175,-14656.0,-3584.0,7872.0
4.72,-14720.0,-3712.0,8000.0
4.7225,-14656.0,-3776.0,8000.0
4.725,-14720.0,-3776.0,8128.0
4.7275,-14720.0,-3712.0,8192.0
4.73,-14720.0,-3712.0,8256.0
4.7325,-14720.0,-3712.0,8192.0
4.735,-14720.0,-3712.0,8320.0
4.7375,-14848.0,-3712.0,8384.0
4.74,-14784.0,-3712.0,8448.0
4.7425,-14784.0,-3712.0,8448.0
4.745,-14848.0,-3712.0,8384.0
4.7475,-14848.0,-3648.0,8512.0
4.75,-14848.0,-3712.0,8512.0
4.7525,-14912.0,-3584.0,8576.0
4.755,-14912.0,-3648.0,8640.0
4.7575,-14912.0,-3648.0,8640.0
4.76,-14912.0,-3584.0,8576.0
4.7625,-14976.0,-3520.0,8576.0
4.765,-14976.0,-3520.0,8576.0
4.7675,-15040.0,-3520.0,8576.0
4.77,-14976.0,-3520.0,8576.0
4.7725,-14976.0,-3520.0,8576.0
4.775,-14976.0,-3520.0,8640.0
4.7775,-14976.0,-3456.0,8640.0
4.78,-14912.0,-3456.0,8576.0
4.7825,-14912.0,-3520.0,8576.0
4.785,-14848.0,-3520.0,8640.0
4.7875,-14912.0,-3520.0,8640.0
4.79,-14848.0,-3520.0,8640.0
4.7925,-14784.0,-3520.0,8704.0
4.795,-14720.0,-3456.0,8704.0
4.7975,-14720.0,-3456.0,8704.0
4.8,-14656.0,-3520.0,8704.0
4.8025,-14528.0,-3392.0,8640.0
4.805,-14400.0,-3328.0,8576.0
4.8075,-14400.0,-3392.0,8512.0
4.81,-14400.0,-3392.0,8640.0
4.8125,-14464.0,-3328.0,8640.0
4.815,-14400.0,-3392.0,8576.0
4.8175,-14400.0,-3392.0,8640.0
4.82,-14336.0,-3328.0,8512.0
4.8225,-14208.0,-3328.0,8384.0
4.825,-14208.0,-3328.0,8384.0
4.8275,-14272.0,-3328.0,8384.0
4.83,-14272.0,-3264.0,8384.0
4.8325,-14272.0,-3264.0,8384.0
4.835,-14272.0,-3328.0,8512.0
4.8375,-14272.0,-3392.0,8576.0
4.84,-14272.0,-3392.0,8576.0
4.8425,-14208.0,-3456.0,8576.0
4.845,-14208.0,-3520.0,8576.0
4.8475,-14208.0,-3520.0,8576.0
4.85,-14272.0,-3456.0,8512.0
4.8525,-14208.0,-3456.0,8448.0
4.855,-14208.0,-3584.0,8512.0
4.8575,-14208.0,-3520.0,8512.0
4.86,-14144.0,-3456.0,8448.0
4.8625,-14144.0,-3520.0,8512.0
4.865,-14144.0,-3456.0,8640.0
4.8675,-14144.0,-3520.0,8576.0
4.87,-14016.0,-3520.0,8640.0
4.8725,-14016.0,-3456.0,8640.0
4.875,-13952.0,-3392.0,8704.0
4.8775,-13952.0,-3392.0,8768.0
4.88,-13824.0,-3328.0,8896.0
4.8825,-13760.0,-3200.0,8832.0
4.885,-13696.0,-3264.0,8768.0
4.8875,-13632.0,-3264.0,8704.0
4.89,-13504.0,-3264.0,8768.0
4.8925,-13440.0,-3264.0,8704.0
4.895,-13312.0,-3200.0,8832.0
4.8975,-13376.0,-3264.0,8896.0
4.9,-13312.0,-3328.0,8960.0
4.9025,-13184.0,-3264.0,8896.0
4.905,-13120.0,-3200.0,8832.0
4.9075,-13120.0,-3200.0,8768.0
4.91,-13056.0,-3200.0,8768.0
4.9125,-13056.0,-3200.0,8704.0
4.915,-13056.0,-3200.0,8704.0
4.9175,-13120.0,-3264.0,8704.0
4.92,-13056.0,-3200.0,8704.0
4.9225,-13056.0,-3200.0,8704.0
4.925,-12992.0,-3200.0,8704.0
4.9275,-12928.0,-3200.0,8640.0
4.93,-12992.0,-3200.0,8640.0
4.9325,-12928.0,-3264.0,8640.0
4.935,-12928.0,-3264.0,8640.0
4.9375,-12864.0,-3328.0,8576.0
4.94,-12864.0,-3328.0,8576.0
4.9425,-12800.0,-3392.0,8640.0
4.945,-12800.0,-3456.0,8576.0
4.9475,-12800.0,-3456.0,8576.0
4.95,-12800.0,-3584.0,8576.0
4.9525,-12800.0,-3584.0,8640.0
4.955,-12800.0,-3584.0,8640.0
4.9575,-12864.0,-3584.0,8704.0
4.96,-12864.0,-3712.0,8704.0
4.9625,-12928.0,-3712.0,8768.0
4.965,-12928.0,-3584.0,8704.0
4.9675,-12864.0,-3712.0,8768.0
4.97,-12800.0,-3584.0,8832.0
4.9725,-12736.0,-3520.0,8896.0
4.975,-12672.0,-3520.0,8704.0
4.9775,-12608.0,-3456.0,8704.0
4.98,-12672.0,-3520.0,8832.0
4.9825,-12608.0,-3520.0,8832.0
4.985,-12672.0,-3392.0,8768.0
4.9875,-12736.0,-3392.0,8704.0
4.99,-12736.0,-3392.0,8704.0
4.9925,-12736.0,-3392.0,8640.0
4.995,-12800.0,-3520.0,8576.0
4.9975,-12928.0,-3584.0,8640.0
5.0,-12928.0,-3520.0,8704.0
5.0025,-12928.0,-3456.0,8768.0
5.005,-12992.0,-3392.0,8768.0
5.0075,-12928.0,-3392.0,8704.0
5.01,-12928.0,-3328.0,8704.0
5.0125,-13056.0,-3264.0,8768.0
5.015,-12992.0,-3200.0,8768.0
5.0175,-13056.0,-3200.0,8768.0
5.02,-12992.0,-3200.0,8896.0
5.0225,-13056.0,-3200.0,8896.0
5.025,-13120.0,-3200.0,8960.0
5.0275,-13056.0,-3200.0,8896.0
5.03,-13056.0,-3200.0,8960.0
5.0325,-13056.0,-3264.0,9024.0
5.035,-13120.0,-3328.0,9088.0
5.0375,-13120.0,-3264.0,9088.0
5.04,-13312.0,-3264.0,9216.0
5.0425,-13376.0,-3200.0,9088.0
5.045,-13312.0,-3136.0,9088.0
5.0475,-13376.0,-3200.0,9088.0
5.05,-13440.0,-3136.0,9216.0
5.0525,-13568.0,-3072.0,9344.0
5.055,-13632.0,-2944.0,9344.0
5.0575,-13632.0,-3008.0,9536.0
5.06,-13760.0,-2944.0,9536.0
5.0625,-13824.0,-2944.0,9600.0
5.065,-14016.0,-2944.0,9728.0
5.0675,-14080.0,-2944.0,9856.0
5.07,-14208.0,-2944.0,10048.0
5.0725,-14272.0,-2880.0,10176.0
5.075,-14336.0,-2880.0,10304.0
5.0775,-14336.0,-2944.0,10432.0
5.08,-14400.0,-2944.0,10560.0
5.0825,-14464.0,-2880.0,10688.0
5.085,-14464.0,-2880.0,10688.0
5.0875,-14528.0,-2816.0,10816.0
5.09,-14528.0,-2816.0,10944.0
5.0925,-14528.0,-2816.0,10880.0
5.095,-14528.0,-2688.0,10944.0
5.0975,-14464.0,-2688.0,11072.0
5.1,-14464.0,-2688.0,11136.0
5.1025,-14464.0,-2624.0,11136.0
5.105,-14464.0,-2624.0,11072.0
5.1075,-14464.0,-2624.0,11008.0
5.11,-14400.0,-2560.0,10880.0
5.1125,-14336.0,-2496.0,10880.0
5.115,-14336.0,-2496.0,10816.0
5.1175,-14400.0,-2496.0,10752.0
5.12,-14528.0,-2560.0,10752.0
5.1225,-14528.0,-2496.0,10688.0
5.125,-14464.0,-2496.0,10496.0
5.1275,-14528.0,-2496.0,10560.0
5.13,-14592.0,-2560.0,10560.0
5.1325,-14592.0,-2496.0,10496.0
5.135,-14528.0,-2560.0,10496.0
5.1375,-14592.0,-2432.0,10560.0
5.14,-14528.0,-2432.0,10624.0
5.1425,-14592.0,-2368.0,10560.0
5.145,-14592.0,-2368.0,10752.0
5.1475,-14592.0,-2368.0,10880.0
5.15,-14592.0,-2368.0,10944.0
5.1525,-14592.0,-2368.0,11072.0
5.155,-14656.0,-2304.0,11136.0
5.1575,-14592.0,-2304.0,11136.0
5.16,-14592.0,-2304.0,11328.0
5.1625,-14592.0,-2304.0,11264.0
5.165,-14528.0,-2368.0,11264.0
5.1675,-14528.0,-2432.0,11264.0
5.17,-14528.0,-2432.0,11328.0
5.1725,-14528.0,-2560.0,11264.0
5.175,-14528.0,-2560.0,11264.0
5.1775,-14464.0,-2560.0,11264.0
5.18,-14464.0,-2560.0,11264.0
5.1825,-14464.0,-2624.0,11200.0
5.185,-14336.0,-2624.0,11072.0
5.1875,-14336.0,-2624.0,11008.0
5.19,-14208.0,-2624.0,10944.0
5.1925,-14144.0,-2624.0,10944.0
5.195,-14144.0,-2624.0,10944.0
5.1975,-14144.0,-2624.0,10880.0
5.2,-14016.0,-2624.0,10816.0
5.2025,-13952.0,-2688.0,10752.0
5.205,-13824.0,-2688.0,10624.0
5.2075,-13824.0,-2688.0,10560.0
5.21,-13824.0,-2624.0,10688.0
5.2125,-13696.0,-2624.0,10688.0
5.215,-13632.0,-2560.0,10624.0
5.2175,-13568.0,-2560.0,10560.0
5.22,-13632.0,-2624.0,10624.0
5.2225,-13632.0,-2624.0,10688.0
5.225,-13632.0,-2560.0,10688.0
5.2275,-13696.0,-2560.0,10560.0
5.23,-13632.0,-2560.0,10624.0
5.2325,-13632.0,-2560.0,10688.0
5.235,-13632.0,-2560.0,10752.0
5.2375,-13632.0,-2560.0,10688.0
5.24,-13696.0,-2560.0,10816.0
5.2425,-13632.0,-2560.0,10880.0
5.245,-13632.0,-2560.0,10880.0
5.2475,-13632.0,-2560.0,10880.0
5.25,-13632.0,-2496.0,10880.0
5.2525,-13632.0,-2496.0,10944.0
5.255,-13632.0,-2496.0,10944.0
5.2575,-13632.0,-2496.0,11008.0
5.26,-13696.0,-2496.0,11072.0
5.2625,-13696.0,-2432.0,11136.0
5.265,-13696.0,-2432.0,11072.0
5.2675,-13824.0,-2432.0,11072.0
5.27,-13824.0,-2368.0,11008.0
5.2725,-13824.0,-2368.0,11008.0
5.275,-13888.0,-2368.0,11008.0
5.2775,-13888.0,-2432.0,11072.0
5.28,-13760.0,-2432.0,11008.0
5.2825,-13760.0,-2432.0,10944.0
5.285,-13632.0,-2368.0,10752.0
5.2875,-13824.0,-2432.0,10816.0
5.29,-13824.0,-2496.0,10816.0
5.2925,-13888.0,-2496.0,10816.0
5.295,-13952.0,-2496.0,10816.0
5.2975,-13824.0,-2560.0,10688.0
5.3,-13888.0,-2560.0,10752.0
5.3025,-13824.0,-2496.0,10880.0
5.305,-13888.0,-2496.0,11008.0
5.3075,-13952.0,-2496.0,11008.0
5.31,-13952.0,-2432.0,11072.0
5.3125,-13952.0,-2496.0,11136.0
5.315,-13952.0,-2496.0,11008.0
5.3175,-13952.0,-2560.0,11008.0
5.32,-13952.0,-2560.0,10880.0
5.3225,-13952.0,-2560.0,10944.0
5.325,-13952.0,-2496.0,10880.0
5.3275,-14080.0,-2496.0,10880.0
5.33,-14144.0,-2432.0,10880.0
5.3325,-14080.0,-2432.0,10880.0
5.335,-14016.0,-2496.0,10880.0
5.3375,-14080.0,-2496.0,10816.0
5.34,-14080.0,-2496.0,10752.0
5.3425,-14080.0,-2560.0,10688.0
5.345,-14080.0,-2496.0,10624.0
5.3475,-14080.0,-2496.0,10624.0
5.35,-14080.0,-2496.0,10560.0
5.3525,-14144.0,-2432.0,10624.0
5.355,-14080.0,-2496.0,10560.0
5.3575,-14208.0,-2560.0,10624.0
5.36,-14336.0,-2624.0,10816.0
5.3625,-14272.0,-2560.0,10816.0
5.365,-14272.0,-2496.0,10752.0
5.3675,-14336.0,-2432.0,10816.0
5.37,-14464.0,-2432.0,11008.0
5.3725,-14464.0,-2432.0,11136.0
5.375,-14400.0,-2432.0,11200.0
5.3775,-14400.0,-2496.0,11200.0
5.38,-14464.0,-2432.0,11264.0
5.3825,-14464.0,-2304.0,11200.0
5.385,-14464.0,-2304.0,11328.0
5.3875,-14528.0,-2304.0,11392.0
5.39,-14464.0,-2368.0,11392.0
5.3925,-14528.0,-2432.0,11328.0
5.395,-14464.0,-2432.0,11392.0
5.3975,-14464.0,-2432.0,11392.0
5.4,-14464.0,-2368.0,11328.0
5.4025,-14464.0,-2432.0,11328.0
5.405,-14464.0,-2368.0,11392.0
5.4075,-14464.0,-2368.0,11328.0
5.41,-14400.0,-2368.0,11200.0
5.4125,-14400.0,-2432.0,11200.0
5.415,-14400.0,-2432.0,11200.0
5.4175,-14400.0,-2432.0,11136.0
5.42,-14400.0,-2432.0,11072.0
5.4225,-14400.0,-2432.0,11072.0
5.425,-14400.0,-2432.0,11072.0
5.4275,-14400.0,-2496.0,11072.0
5.43,-14464.0,-2496.0,11008.0
5.4325,-14400.0,-2496.0,11008.0
5.435,-14400.0,-2496.0,11008.0
5.4375,-14400.0,-2432.0,11072.0
5.44,-14336.0,-2432.0,11008.0
5.4425,-14272.0,-2432.0,11136.0
5.445,-14272.0,-2368.0,11136.0
5.4475,-14272.0,-2304.0,11072.0
5.45,-14336.0,-2368.0,11200.0
5.4525,-14336.0,-2368.0,11264.0
5.455,-14272.0,-2304.0,11136.0
5.4575,-14336.0,-2304.0,11200.0
5.46,-14272.0,-2368.0,11456.0
5.4625,-14400.0,-2304.0,11584.0
5.465,-14400.0,-2304.0,11648.0
5.4675,-14336.0,-2240.0,11584.0
5.47,-14336.0,-2240.0,11520.0
5.4725,-14336.0,-2240.0,11648.0
5.475,-14272.0,-2240.0,11712.0
5.4775,-14336.0,-2112.0,11648.0
5.48,-14272.0,-2048.0,11712.0
5.4825,-14208.0,-2112.0,11776.0
5.485,-14208.0,-2176.0,11712.0
5.4875,-14208.0,-2176.0,11712.0
5.49,-14208.0,-2176.0,11712.0
5.4925,-14208.0,-2240.0,11712.0
5.495,-14208.0,-2240.0,11648.0
5.4975,-14208.0,-2304.0,11584.0
5.5,-14208.0,-2304.0,11520.0
5.5025,-14208.0,-2368.0,11648.0
5.505,-14272.0,-2432.0,11584.0
5.5075,-14272.0,-2368.0,11648.0
5.51,-14272.0,-2368.0,11520.0
5.5125,-14272.0,-2304.0,11456.0
5.515,-14272.0,-2304.0,11456.0
5.5175,-14272.0,-2304.0,11520.0
5.52,-14336.0,-2240.0,11648.0
5.5225,-14336.0,-2176.0,11520.0
5.525,-14336.0,-2176.0,11520.0
5.5275,-14272.0,-2048.0,11584.0
5.53,-14272.0,-2048.0,11712.0
5.5325,-14336.0,-2112.0,11776.0
5.535,-14272.0,-2048.0,11712.0
5.5375,-14272.0,-1984.0,11712.0
5.54,-14208.0,-2048.0,11584.0
5.5425,-14208.0,-2048.0,11648.0
5.545,-14208.0,-2048.0,11648.0
5.5475,-14144.0,-2048.0,11648.0
5.55,-14144.0,-1984.0,11648.0
5.5525,-14080.0,-2048.0,11648.0
5.555,-14080.0,-2048.0,11712.0
5.5575,-14016.0,-2048.0,11712.0
5.56,-14016.0,-1984.0,11648.0
5.5625,-14016.0,-1920.0,11648.0
5.565,-13888.0,-1856.0,11648.0
5.5675,-13888.0,-1856.0,11584.0
5.57,-13824.0,-1792.0,11520.0
5.5725,-13760.0,-1728.0,11456.0
5.575,-13760.0,-1728.0,11392.0
5.5775,-13696.0,-1792.0,11392.0
5.58,-13696.0,-1792.0,11264.0
5.5825,-13696.0,-1792.0,11264.0
5.585,-13696.0,-1792.0,11392.0
5.5875,-13760.0,-1792.0,11328.0
5.59,-13696.0,-1728.0,11328.0
5.5925,-13632.0,-1664.0,11328.0
5.595,-13632.0,-1728.0,11328.0
5.5975,-13632.0,-1728.0,11264.0
5.6,-13632.0,-1728.0,11328.0
5.6025,-13632.0,-1728.0,11264.0
5.605,-13632.0,-1664.0,11136.0
5.6075,-13696.0,-1600.0,11072.0
5.61,-13760.0,-1664.0,11072.0
5.6125,-13760.0,-1728.0,11072.0
5.615,-13760.0,-1728.0,11008.0
5.6175,-13760.0,-1728.0,11008.0
5.62,-13760.0,-1664.0,10880.0
5.6225,-13824.0,-1792.0,11008.0
5.625,-13824.0,-1792.0,11008.0
5.6275,-13824.0,-1728.0,11072.0
5.63,-13824.0,-1728.0,11008.0
5.6325,-13824.0,-1728.0,10944.0
5.635,-13888.0,-1728.0,10944.0
5.6375,-13888.0,-1792.0,10944.0
5.64,-13888.0,-1856.0,10944.0
5.6425,-13888.0,-1920.0,10944.0
5.645,-13952.0,-1920.0,10944.0
5.6475,-13952.0,-1920.0,11008.0
5.65,-14016.0,-1984.0,10944.0
5.6525,-14080.0,-1920.0,11008.0
5.655,-14080.0,-1920.0,10944.0
5.6575,-14080.0,-1920.0,10944.0
5.66,-14016.0,-1920.0,10944.0
5.6625,-14080.0,-1984.0,10880.0
5.665,-14080.0,-1984.0,10816.0
5.6675,-14144.0,-2048.0,10880.0
5.67,-14144.0,-2048.0,10880.0
5.6725,-14080.0,-2176.0,10880.0
5.675,-14208.0,-2240.0,10816.0
5.6775,-14208.0,-2304.0,10816.0
5.68,-14208.0,-2368.0,10816.0
5.6825,-14208.0,-2368.0,10688.0
5.685,-14144.0,-2240.0,10560.0
5.6875,-14144.0,-2240.0,10560.0
5.69,-14208.0,-2240.0,10432.0
5.6925,-14272.0,-2304.0,10560.0
5.695,-14272.0,-2240.0,10496.0
5.6975,-14208.0,-2176.0,10304.0
5.7,-14272.0,-2240.0,10304.0
5.7025,-14336.0,-2304.0,10368.0
5.705,-14272.0,-2304.0,10496.0
5.7075,-14400.0,-2368.0,10560.0
5.71,-14400.0,-2304.0,10496.0
5.7125,-14400.0,-2368.0,10496.0
5.715,-14400.0,-2304.0,10432.0
5.7175,-14464.0,-2240.0,10496.0
5.72,-14464.0,-2240.0,10496.0
5.7225,-14464.0,-2240.0,10560.0
5.725,-14400.0,-2176.0,10560.0
5.7275,-14464.0,-2176.0,10496.0
5.73,-14464.0,-2240.0,10496.0
5.7325,-14400.0,-2240.0,10496.0
5.735,-14400.0,-2368.0,10432.0
5.7375,-14464.0,-2368.0,10496.0
5.74,-14528.0,-2432.0,10560.0
5.7425,-14464.0,-2432.0,10560.0
5.745,-14464.0,-2560.0,10496.0
5.7475,-14528.0,-2560.0,10496.0
5.75,-14592.0,-2624.0,10496.0
5.7525,-14592.0,-2688.0,10432.0
5.755,-14592.0,-2688.0,10432.0
5.7575,-14592.0,-2688.0,10432.0
5.76,-14592.0,-2624.0,10496.0
5.7625,-14592.0,-2624.0,10368.0
5.765,-14528.0,-2560.0,10240.0
5.7675,-14592.0,-2560.0,10304.0
5.77,-14656.0,-2560.0,10368.0
5.7725,-14592.0,-2496.0,10368.0
5.775,-14528.0,-2496.0,10176.0
5.7775,-14528.0,-2432.0,9984.0
5.78,-14528.0,-2368.0,10048.0
5.7825,-14400.0,-2432.0,9984.0
5.785,-14336.0,-2432.0,10048.0
5.7875,-14400.0,-2496.0,9984.0
5.79,-14464.0,-2496.0,9984.0
5.7925,-14464.0,-2496.0,9984.0
5.795,-14400.0,-2432.0,9984.0
5.7975,-14336.0,-2368.0,9984.0
5.8,-14336.0,-2368.0,9984.0
5.8025,-14400.0,-2304.0,10048.0
5.805,-14336.0,-2304.0,10048.0
5.8075,-14336.0,-2304.0,10176.0
5.81,-14272.0,-2176.0,10112.0
5.8125,-14272.0,-2176.0,10176.0
5.815,-14272.0,-2112.0,10176.0
5.8175,-14272.0,-2112.0,10112.0
5.82,-14208.0,-2240.0,10112.0
5.8225,-14336.0,-2304.0,9984.0
5.825,-14400.0,-2304.0,9984.0
5.8275,-14400.0,-2368.0,9920.0
5.83,-14464.0,-2432.0,9984.0
5.8325,-14528.0,-2432.0,9984.0
5.835,-14464.0,-2368.0,9984.0
5.8375,-14464.0,-2368.0,9984.0
5.84,-14400.0,-2368.0,9792.0
5.8425,-14464.0,-2368.0,9856.0
5.845,-14528.0,-2432.0,9856.0
5.8475,-14464.0,-2368.0,9728.0
5.85,-14464.0,-2368.0,9664.0
5.8525,-14400.0,-2304.0,9600.0
5.855,-14464.0,-2368.0,9600.0
5.8575,-14464.0,-2432.0,9600.0
5.86,-14464.0,-2368.0,9536.0
5.8625,-14336.0,-2304.0,9408.0
5.865,-14400.0,-2304.0,9472.0
5.8675,-14400.0,-2240.0,9472.0
5.87,-14400.0,-2240.0,9536.0
5.8725,-14336.0,-2240.0,9664.0
5.875,-14272.0,-2176.0,9728.0
5.8775,-14336.0,-2240.0,9792.0
5.88,-14336.0,-2240.0,9792.0
5.8825,-14272.0,-2240.0,9728.0
5.885,-14336.0,-2176.0,9792.0
5.8875,-14272.0,-2176.0,9792.0
5.89,-14208.0,-2176.0,9664.0
5.8925,-14208.0,-2112.0,9664.0
5.895,-14144.0,-2112.0,9664.0
5.8975,-14144.0,-1984.0,9600.0
5.9,-14144.0,-1984.0,9536.0
5.9025,-14080.0,-2048.0,9408.0
5.905,-14016.0,-2048.0,9344.0
5.9075,-14016.0,-1920.0,9344.0
5.91,-14080.0,-1920.0,9280.0
5.9125,-13952.0,-1920.0,9216.0
5.915,-13952.0,-1984.0,9152.0
5.9175,-13952.0,-2048.0,9088.0
5.92,-14016.0,-2176.0,9088.0
5.9225,-13952.0,-2112.0,9088.0
5.925,-13952.0,-2176.0,8960.0
5.9275,-13952.0,-2176.0,8960.0
5.93,-13952.0,-2240.0,9024.0
5.9325,-13888.0,-2240.0,9152.0
5.935,-13888.0,-2240.0,9088.0
5.9375,-13888.0,-2368.0,9024.0
5.94,-13824.0,-2304.0,9024.0
5.9425,-13888.0,-2304.0,9024.0
5.945,-13952.0,-2432.0,9024.0
5.9475,-13952.0,-2432.0,9024.0
5.95,-13888.0,-2432.0,9024.0
5.9525,-13888.0,-2432.0,9024.0
5.955,-13888.0,-2368.0,9024.0
5.9575,-13824.0,-2304.0,9024.0
5.96,-13760.0,-2304.0,9024.0
5.9625,-13696.0,-2368.0,9088.0
5.965,-13696.0,-2368.0,9024.0
5.9675,-13632.0,-2368.0,8960.0
5.97,-13632.0,-2368.0,8960.0
5.9725,-13696.0,-2368.0,8896.0
5.975,-13696.0,-2368.0,8896.0
5.9775,-13760.0,-2432.0,8832.0
5.98,-13696.0,-2432.0,8768.0
5.9825,-13760.0,-2368.0,8704.0
5.985,-13696.0,-2368.0,8704.0
5.9875,-13696.0,-2368.0,8768.0
5.99,-13696.0,-2368.0,8704.0
5.9925,-13760.0,-2368.0,8704.0
5.995,-13760.0,-2368.0,8768.0
5.9975,-13824.0,-2304.0,8768.0
6.0,-13888.0,-2304.0,8896.0
6.0025,-13888.0,-2304.0,8768.0
6.005,-13824.0,-2304.0,8768.0
6.0075,-13888.0,-2304.0,8832.0
6.01,-13888.0,-2304.0,8896.0
6.0125,-13952.0,-2304.0,8960.0
6.015,-13952.0,-2304.0,8960.0
6.0175,-13952.0,-2304.0,8960.0
6.02,-14016.0,-2304.0,8896.0
6.0225,-14016.0,-2304.0,8896.0
6.025,-14144.0,-2304.0,8832.0
6.0275,-14208.0,-2240.0,8960.0
6.03,-14208.0,-2240.0,8896.0
6.0325,-14272.0,-2304.0,8960.0
6.035,-14272.0,-2368.0,8960.0
6.0375,-14272.0,-2368.0,8960.0
6.04,-14336.0,-2368.0,8960.0
6.0425,-14400.0,-2368.0,8896.0
6.045,-14400.0,-2368.0,8896.0
6.0475,-14400.0,-2496.0,8832.0
6.05,-14528.0,-2560.0,8832.0
6.0525,-14528.0,-2560.0,8768.0
6.055,-14592.0,-2624.0,8768.0
6.0575,-14656.0,-2688.0,8832.0
6.06,-14592.0,-2752.0,8832.0
6.0625,-14592.0,-2816.0,8896.0
6.065,-14592.0,-2880.0,8832.0
6.0675,-14592.0,-2816.0,8832.0
6.07,-14656.0,-2880.0,8832.0
6.0725,-14592.0,-2880.0,8896.0
6.075,-14656.0,-2816.0,8896.0
6.0775,-14592.0,-2816.0,8832.0
6.08,-14656.0,-2880.0,8896.0
6.0825,-14720.0,-2880.0,8768.0
6.085,-14592.0,-2880.0,8768.0
6.0875,-14592.0,-2944.0,8832.0
6.09,-14656.0,-2944.0,8960.0
6.0925,-14592.0,-2944.0,9024.0
6.095,-14592.0,-2880.0,9024.0
6.0975,-14592.0,-2816.0,9024.0
6.1,-14528.0,-2752.0,8960.0
6.1025,-14464.0,-2688.0,8960.0
6.105,-14528.0,-2752.0,8960.0
6.1075,-14528.0,-2752.0,9024.0
6.11,-14528.0,-2688.0,8960.0
6.1125,-14528.0,-2688.0,8960.0
6.115,-14528.0,-2688.0,8960.0
6.1175,-14528.0,-2624.0,8896.0
6.12,-14528.0,-2560.0,8896.0
6.1225,-14592.0,-2560.0,8960.0
6.125,-14592.0,-2560.0,8896.0
6.1275,-14656.0,-2560.0,8960.0
6.13,-14656.0,-2560.0,8832.0
6.1325,-14592.0,-2560.0,8896.0
6.135,-14592.0,-2560.0,8896.0
6.1375,-14656.0,-2560.0,8832.0
6.14,-14592.0,-2560.0,8896.0
6.1425,-14656.0,-2560.0,8832.0
6.145,-14656.0,-2560.0,8768.0
6.1475,-14656.0,-2624.0,8768.0
6.15,-14656.0,-2624.0,8768.0
6.1525,-14656.0,-2688.0,8704.0
6.155,-14720.0,-2688.0,8704.0
6.1575,-14720.0,-2752.0,8640.0
6.16,-14848.0,-2752.0,8704.0
6.1625,-14720.0,-2688.0,8640.0
6.165,-14720.0,-2688.0,8640.0
6.1675,-14720.0,-2688.0,8640.0
6.17,-14656.0,-2688.0,8576.0
6.1725,-14656.0,-2560.0,8704.0
6.175,-14784.0,-2688.0,8832.0
6.1775,-14784.0,-2688.0,8832.0
6.18,-14784.0,-2688.0,8768.0
6.1825,-14720.0,-2752.0,8768.0
6.185,-14784.0,-2816.0,8768.0
6.1875,-14784.0,-2816.0,8768.0
6.19,-14784.0,-2880.0,8768.0
6.1925,-14784.0,-2880.0,8768.0
6.195,-14784.0,-2944.0,8768.0
6.1975,-14784.0,-3008.0,8704.0
6.2,-14848.0,-3008.0,8704.0
6.2025,-14784.0,-3008.0,8576.0
6.205,-14784.0,-3008.0,8576.0
6.2075,-14784.0,-2944.0,8640.0
6.21,-14784.0,-2944.0,8576.0
6.2125,-14720.0,-3008.0,8576.0
6.215,-14720.0,-2944.0,8640.0
6.2175,-14656.0,-2944.0,8704.0
6.22,-14656.0,-2880.0,8768.0
6.2225,-14656.0,-2944.0,8768.0
6.225,-14656.0,-2880.0,8768.0
6.2275,-14592.0,-2944.0,8768.0
6.23,-14592.0,-2880.0,8768.0
6.2325,-14528.0,-2944.0,8704.0
6.235,-14592.0,-2944.0,8768.0
6.2375,-14592.0,-2944.0,8704.0
6.24,-14592.0,-2944.0,8832.0
6.2425,-14528.0,-2880.0,8768.0
6.245,-14528.0,-2880.0,8768.0
6.2475,-14400.0,-2816.0,8768.0
6.25,-14336.0,-2880.0,8640.0
6.2525,-14336.0,-2944.0,8640.0
6.255,-14400.0,-2944.0,8640.0
6.2575,-14400.0,-2944.0,8704.0
6.26,-14272.0,-2944.0,8640.0
6.2625,-14336.0,-2944.0,8512.0
6.265,-14272.0,-2880.0,8512.0
6.2675,-14272.0,-2880.0,8576.0
6.27,-14208.0,-2880.0,8576.0
6.2725,-14208.0,-2816.0,8576.0
6.275,-14144.0,-2816.0,8576.0
6.2775,-14080.0,-2880.0,8448.0
6.28,-14080.0,-2944.0,8448.0
6.2825,-14080.0,-2944.0,8512.0
6.285,-14080.0,-3008.0,8512.0
6.2875,-14016.0,-3008.0,8512.0
6.29,-14080.0,-3072.0,8512.0
6.2925,-14016.0,-3072.0,8448.0
6.295,-14016.0,-3136.0,8448.0
6.2975,-14016.0,-3200.0,8448.0
6.3,-14016.0,-3200.0,8448.0
6.3025,-14016.0,-3200.0,8448.0
6.305,-13952.0,-3136.0,8448.0
6.3075,-13952.0,-3136.0,8384.0
6.31,-13952.0,-3136.0,8384.0
6.3125,-13952.0,-3072.0,8448.0
6.315,-13952.0,-3072.0,8448.0
6.3175,-13888.0,-3008.0,8384.0
6.32,-13952.0,-2880.0,8320.0
6.3225,-13888.0,-2880.0,8192.0
6.325,-13888.0,-2816.0,8256.0
6.3275,-13888.0,-2880.0,8256.0
6.33,-13888.0,-2944.0,8320.0
6.3325,-13888.0,-2944.0,8192.0
6.335,-13760.0,-2880.0,8128.0
6.3375,-13760.0,-2880.0,8064.0
6.34,-13824.0,-2944.0,8064.0
6.3425,-13824.0,-3008.0,8128.0
6.345,-13824.0,-3008.0,8064.0
6.3475,-13760.0,-3008.0,7936.0
6.35,-13760.0,-2944.0,7936.0
6.3525,-13696.0,-3008.0,7872.0
6.355,-13696.0,-3008.0,7872.0
6.3575,-13760.0,-3008.0,7872.0
6.36,-13696.0,-3072.0,7808.0
6.3625,-13632.0,-3008.0,7872.0
6.365,-13696.0,-2944.0,7936.0
6.3675,-13760.0,-2944.0,7872.0
6.37,-13760.0,-2944.0,7808.0
6.3725,-13760.0,-3008.0,7808.0
6.375,-13824.0,-3072.0,7744.0
6.3775,-13888.0,-3008.0,7744.0
6.38,-13952.0,-3136.0,7616.0
6.3825,-13888.0,-3136.0,7552.0
6.385,-13952.0,-3136.0,7552.0
6.3875,-13952.0,-3136.0,7552.0
6.39,-13888.0,-3072.0,7552.0
6.3925,-13952.0,-3008.0,7488.0
6.395,-13952.0,-3072.0,7424.0
6.3975,-13888.0,-3072.0,7488.0
6.4,-14016.0,-3200.0,7552.0
6.4025,-13952.0,-3200.0,7424.0
6.405,-14016.0,-3200.0,7360.0
6.4075,-14016.0,-3264.0,7296.0
6.41,-14016.0,-3200.0,7296.0
6.4125,-14016.0,-3200.0,7360.0
6.415,-14016.0,-3328.0,7296.0
6.4175,-14016.0,-3264.0,7296.0
6.42,-14016.0,-3264.0,7168.0
6.4225,-14080.0,-3264.0,7232.0
6.425,-14080.0,-3264.0,7232.0
6.4275,-14144.0,-3328.0,7232.0
6.43,-14144.0,-3328.0,7168.0
6.4325,-14272.0,-3264.0,7104.0
6.435,-14208.0,-3264.0,7232.0
6.4375,-14208.0,-3264.0,7168.0
6.44,-14272.0,-3264.0,7168.0
6.4425,-14272.0,-3264.0,7104.0
6.445,-14272.0,-3264.0,7040.0
6.4475,-14208.0,-3328.0,7040.0
6.45,-14272.0,-3328.0,7040.0
6.4525,-14208.0,-3392.0,6976.0
6.455,-14272.0,-3456.0,6912.0
6.4575,-14272.0,-3520.0,6912.0
6.46,-14336.0,-3520.0,6912.0
6.4625,-14400.0,-3520.0,6912.0
6.465,-14400.0,-3520.0,6912.0
6.4675,-14464.0,-3520.0,6848.0
6.47,-14464.0,-3584.0,6848.0
6.4725,-14400.0,-3584.0,6848.0
6.475,-14464.0,-3584.0,6848.0
6.4775,-14464.0,-3584.0,6784.0
6.48,-14592.0,-3648.0,6848.0
6.4825,-14592.0,-3648.0,6784.0
6.485,-14592.0,-3584.0,6848.0
6.4875,-14464.0,-3584.0,6720.0
6.49,-14528.0,-3584.0,6784.0
6.4925,-14592.0,-3648.0,6784.0
6.495,-14592.0,-3648.0,6912.0
6.4975,-14592.0,-3584.0,6848.0
6.5,-14528.0,-3520.0,6784.0
6.5025,-14528.0,-3584.0,6848.0
6.505,-14592.0,-3584.0,6976.0
6.5075,-14528.0,-3584.0,6720.0
6.51,-14592.0,-3648.0,6784.0
6.5125,-14528.0,-3648.0,6784.0
6.515,-14592.0,-3712.0,6784.0
6.5175,-14528.0,-3712.0,6784.0
6.52,-14592.0,-3776.0,6784.0
6.5225,-14592.0,-3776.0,6720.0
6.525,-14592.0,-3712.0,6720.0
6.5275,-14720.0,-3712.0,6656.0
6.53,-14720.0,-3776.0,6656.0
6.5325,-14720.0,-3712.0,6656.0
6.535,-14720.0,-3776.0,6656.0
6.5375,-14720.0,-3712.0,6592.0
6.54,-14720.0,-3712.0,6592.0
6.5425,-14656.0,-3776.0,6528.0
6.545,-14656.0,-3776.0,6528.0
6.5475,-14592.0,-3712.0,6528.0
6.55,-14656.0,-3648.0,6464.0
6.5525,-14720.0,-3712.0,6464.0
6.555,-14656.0,-3712.0,6528.0
6.5575,-14656.0,-3712.0,6592.0
6.56,-14656.0,-3712.0,6592.0
6.5625,-14656.0,-3712.0,6720.0
6.565,-14592.0,-3648.0,6720.0
6.5675,-14528.0,-3584.0,6656.0
6.57,-14464.0,-3520.0,6592.0
6.5725,-14400.0,-3456.0,6720.0
6.575,-14464.0,-3520.0,6784.0
6.5775,-14464.0,-3456.0,6848.0
6.58,-14336.0,-3456.0,6720.0
6.5825,-14272.0,-3392.0,6592.0
6.585,-14272.0,-3392.0,6720.0
6.5875,-14272.0,-3392.0,6656.0
6.59,-14336.0,-3328.0,6656.0
6.5925,-14336.0,-3328.0,6592.0
6.595,-14272.0,-3328.0,6592.0
6.5975,-14208.0,-3264.0,6592.0
6.6,-14208.0,-3264.0,6528.0
6.6025,-14208.0,-3264.0,6592.0
6.605,-14208.0,-3264.0,6528.0
6.6075,-14208.0,-3264.0,6528.0
6.61,-14144.0,-3328.0,6464.0
6.6125,-14144.0,-3328.0,6464.0
6.615,-14208.0,-3328.0,6464.0
6.6175,-14208.0,-3392.0,6464.0
6.62,-14144.0,-3456.0,6464.0
6.6225,-14208.0,-3456.0,6464.0
6.625,-14144.0,-3392.0,6464.0
6.6275,-14144.0,-3520.0,6400.0
6.63,-14144.0,-3456.0,6400.0
6.6325,-14144.0,-3456.0,6400.0
6.635,-14144.0,-3520.0,6464.0
6.6375,-14208.0,-3520.0,6592.0
6.64,-14080.0,-3456.0,6656.0
6.6425,-14016.0,-3456.0,6592.0
6.645,-13952.0,-3392.0,6464.0
6.6475,-13952.0,-3456.0,6464.0
6.65,-14080.0,-3456.0,6592.0
6.6525,-14080.0,-3456.0,6592.0
6.655,-14016.0,-3456.0,6592.0
6.6575,-13952.0,-3392.0,6464.0
6.66,-13888.0,-3456.0,6272.0
6.6625,-13888.0,-3584.0,6272.0
6.665,-13952.0,-3584.0,6336.0
6.6675,-13952.0,-3520.0,6272.0
6.67,-13952.0,-3520.0,6208.0
6.6725,-13952.0,-3520.0,6208.0
6.675,-13888.0,-3456.0,6144.0
6.6775,-13888.0,-3392.0,6144.0
6.68,-13824.0,-3456.0,6080.0
6.6825,-13888.0,-3520.0,6080.0
6.685,-13952.0,-3648.0,6016.0
6.6875,-13952.0,-3584.0,5952.0
6.69,-13952.0,-3584.0,6016.0
6.6925,-13824.0,-3520.0,5952.0
6.695,-13888.0,-3584.0,6016.0
6.6975,-13888.0,-3520.0,5952.0
6.7,-13888.0,-3520.0,5952.0
6.7025,-13888.0,-3520.0,5952.0
6.705,-13952.0,-3520.0,5952.0
6.7075,-13888.0,-3520.0,5952.0
6.71,-13824.0,-3456.0,5888.0
6.7125,-13888.0,-3392.0,5824.0
6.715,-13888.0,-3392.0,5760.0
6.7175,-13824.0,-3392.0,5888.0
6.72,-13888.0,-3392.0,6016.0
6.7225,-13760.0,-3328.0,6016.0
6.725,-13760.0,-3264.0,6208.0
6.7275,-13696.0,-3264.0,6208.0
6.73,-13696.0,-3200.0,6208.0
6.7325,-13632.0,-3072.0,6208.0
6.735,-13632.0,-3072.0,6336.0
6.7375,-13696.0,-3136.0,6400.0
6.74,-13760.0,-3136.0,6272.0
6.7425,-13632.0,-3136.0,6208.0
6.745,-13696.0,-3072.0,6272.0
6.7475,-13632.0,-3072.0,6336.0
6.75,-13760.0,-3072.0,6336.0
6.7525,-13760.0,-3008.0,6272.0
6.755,-13696.0,-2944.0,6336.0
6.7575,-13696.0,-3008.0,6336.0
6.76,-13696.0,-3008.0,6336.0
6.7625,-13696.0,-3008.0,6336.0
6.765,-13760.0,-3008.0,6208.0
6.7675,-13760.0,-3008.0,6272.0
6.77,-13696.0,-3072.0,6208.0
6.7725,-13696.0,-3072.0,6272.0
6.775,-13760.0,-3072.0,6272.0
6.7775,-13760.0,-3072.0,6144.0
6.78,-13696.0,-3200.0,6208.0
6.7825,-13760.0,-3200.0,6144.0
6.785,-13696.0,-3200.0,6080.0
6.7875,-13696.0,-3200.0,6080.0
6.79,-13632.0,-3200.0,6080.0
6.7925,-13696.0,-3200.0,6016.0
6.795,-13632.0,-3264.0,6016.0
6.7975,-13632.0,-3264.0,5952.0
6.8,-13632.0,-3392.0,5888.0
6.8025,-13632.0,-3392.0,5824.0
6.805,-13696.0,-3456.0,5888.0
6.8075,-13696.0,-3392.0,5952.0
6.81,-13632.0,-3456.0,5760.0
6.8125,-13632.0,-3520.0,5824.0
6.815,-13760.0,-3520.0,5952.0
6.8175,-13824.0,-3584.0,5952.0
6.82,-13888.0,-3584.0,6016.0
6.8225,-13824.0,-3520.0,6016.0
6.825,-13824.0,-3520.0,5952.0
6.8275,-13824.0,-3520.0,5952.0
6.83,-13888.0,-3520.0,6080.0
6.8325,-13888.0,-3456.0,6080.0
6.835,-13888.0,-3520.0,6144.0
6.8375,-13888.0,-3520.0,6144.0
6.84,-14016.0,-3456.0,6144.0
6.8425,-14080.0,-3392.0,6144.0
6.845,-14080.0,-3392.0,6080.0
6.8475,-14016.0,-3392.0,6080.0
6.85,-14016.0,-3392.0,6080.0
6.8525,-14080.0,-3392.0,6144.0
6.855,-14016.0,-3392.0,6144.0
6.8575,-14080.0,-3392.0,6144.0
6.86,-14080.0,-3392.0,6144.0
6.8625,-14080.0,-3328.0,6208.0
6.865,-14144.0,-3328.0,6144.0
6.8675,-14144.0,-3328.0,6144.0
6.87,-14144.0,-3328.0,6144.0
6.8725,-14144.0,-3392.0,6144.0
6.875,-14144.0,-3392.0,6144.0
6.8775,-14144.0,-3392.0,6144.0
6.88,-14272.0,-3392.0,6080.0
6.8825,-14336.0,-3392.0,6016.0
6.885,-14208.0,-3392.0,5888.0
6.8875,-14208.0,-3520.0,5952.0
6.89,-14336.0,-3520.0,6016.0
6.8925,-14336.0,-3520.0,6080.0
6.895,-14272.0,-3520.0,6080.0
6.8975,-14272.0,-3456.0,6016.0
6.9,-14336.0,-3456.0,6016.0
6.9025,-14336.0,-3520.0,6208.0
6.905,-14336.0,-3520.0,6080.0
6.9075,-14400.0,-3520.0,6080.0
6.91,-14336.0,-3520.0,6080.0
6.9125,-14400.0,-3520.0,6144.0
6.915,-14400.0,-3520.0,6144.0
6.9175,-14464.0,-3584.0,6080.0
6.92,-14400.0,-3584.0,6080.0
6.9225,-14464.0,-3584.0,6080.0
6.925,-14464.0,-3648.0,6080.0
6.9275,-14400.0,-3648.0,6080.0
6.93,-14400.0,-3712.0,6144.0
6.9325,-14400.0,-3712.0,6080.0
6.935,-14464.0,-3712.0,6144.0
6.9375,-14400.0,-3776.0,6144.0
6.94,-14400.0,-3712.0,6144.0
6.9425,-14400.0,-3712.0,6144.0
6.945,-14400.0,-3648.0,6144.0
6.9475,-14400.0,-3648.0,6208.0
6.95,-14336.0,-3648.0,6144.0
6.9525,-14336.0,-3584.0,6144.0
6.955,-14272.0,-3648.0,6208.0
6.9575,-14272.0,-3648.0,6208.0
6.96,-14272.0,-3712.0,6208.0
6.9625,-14272.0,-3648.0,6144.0
6.965,-14144.0,-3648.0,6016.0
6.9675,-14208.0,-3648.0,6144.0
6.97,-14208.0,-3648.0,6208.0
6.9725,-14144.0,-3584.0,6208.0
6.975,-14080.0,-3584.0,6208.0
6.9775,-14080.0,-3584.0,6144.0
6.98,-14080.0,-3520.0,6208.0
6.9825,-14144.0,-3584.0,6272.0
6.985,-14016.0,-3584.0,6336.0
6.9875,-14016.0,-3520.0,6208.0
6.99,-14080.0,-3456.0,6272.0
6.9925,-14080.0,-3456.0,6336.0
6.995,-13952.0,-3456.0,6272.0
6.9975,-13952.0,-3456.0,6336.0
7.0,-13824.0,-3456.0,6336.0
7.0025,-13888.0,-3520.0,6336.0
7.005,-13824.0,-3456.0,6400.0
7.0075,-13760.0,-3456.0,6400.0
7.01,-13760.0,-3456.0,6464.0
7.0125,-13760.0,-3520.0,6464.0
7.015,-13760.0,-3520.0,6400.0
7.0175,-13760.0,-3520.0,6400.0
7.02,-13760.0,-3520.0,6400.0
7.0225,-13760.0,-3520.0,6464.0
7.025,-13824.0,-3520.0,6464.0
7.0275,-13824.0,-3520.0,6464.0
7.03,-13760.0,-3520.0,6400.0
7.0325,-13696.0,-3520.0,6464.0
7.035,-13760.0,-3584.0,6400.0
7.0375,-13696.0,-3584.0,6400.0
7.04,-13760.0,-3584.0,6400.0
7.0425,-13824.0,-3520.0,6336.0
7.045,-13824.0,-3648.0,6528.0
7.0475,-13824.0,-3712.0,6464.0
7.05,-13760.0,-3712.0,6336.0
7.0525,-13824.0,-3712.0,6336.0
7.055,-13888.0,-3776.0,6400.0
7.0575,-13888.0,-3840.0,6528.0
7.06,-13888.0,-3776.0,6528.0
7.0625,-13824.0,-3776.0,6528.0
7.065,-13888.0,-3776.0,6592.0
7.0675,-13952.0,-3712.0,6528.0
7.07,-13952.0,-3776.0,6464.0
7.0725,-14016.0,-3712.0,6592.0
7.075,-14016.0,-3712.0,6592.0
7.0775,-14080.0,-3776.0,6656.0
7.08,-14080.0,-3776.0,6720.0
7.0825,-14080.0,-3840.0,6720.0
7.085,-14080.0,-3840.0,6720.0
7.0875,-14144.0,-3904.0,6592.0
7.09,-14144.0,-3904.0,6592.0
7.0925,-14208.0,-3904.0,6592.0
7.095,-14272.0,-3968.0,6592.0
7.0975,-14208.0,-4032.0,6528.0
7.1,-14208.0,-3968.0,6592.0
7.1025,-14208.0,-3968.0,6592.0
7.105,-14208.0,-3904.0,6592.0
7.1075,-14272.0,-3840.0,6592.0
7.11,-14336.0,-3840.0,6592.0
7.1125,-14272.0,-3904.0,6592.0
7.115,-14272.0,-3904.0,6592.0
7.1175,-14272.0,-3968.0,6528.0
7.12,-14272.0,-3968.0,6720.0
7.1225,-14272.0,-4032.0,6592.0
7.125,-14208.0,-3968.0,6592.0
7.1275,-14208.0,-3968.0,6528.0
7.13,-14208.0,-4032.0,6528.0
7.1325,-14272.0,-4096.0,6592.0
7.135,-14272.0,-4096.0,6592.0
7.1375,-14208.0,-4096.0,6528.0
7.14,-14208.0,-4096.0,6528.0
7.1425,-14208.0,-4096.0,6528.0
7.145,-14272.0,-4096.0,6464.0
7.1475,-14208.0,-4096.0,6528.0
7.15,-14144.0,-4096.0,6464.0
7.1525,-14080.0,-4032.0,6400.0
7.155,-14080.0,-4096.0,6400.0
7.1575,-14080.0,-4096.0,6400.0
7.16,-14080.0,-4096.0,6400.0
7.1625,-14144.0,-4096.0,6464.0
7.165,-14144.0,-4032.0,6528.0
7.1675,-14080.0,-4032.0,6528.0
7.17,-14080.0,-3968.0,6592.0
7.1725,-14144.0,-3968.0,6592.0
7.175,-14144.0,-3968.0,6528.0
7.1775,-14080.0,-3968.0,6464.0
7.18,-14144.0,-3968.0,6528.0
7.1825,-14144.0,-3904.0,6528.0
7.185,-14144.0,-3840.0,6592.0
7.1875,-14144.0,-3840.0,6528.0
7.19,-14144.0,-3840.0,6592.0
7.1925,-14208.0,-3840.0,6656.0
7.195,-14208.0,-3840.0,6656.0
7.1975,-14272.0,-3840.0,6592.0
7.2,-14336.0,-3968.0,6656.0
7.2025,-14272.0,-3968.0,6528.0
7.205,-14336.0,-4096.0,6592.0
7.2075,-14336.0,-4032.0,6528.0
7.21,-14272.0,-4096.0,6464.0
7.2125,-14272.0,-4032.0,6400.0
7.215,-14336.0,-4096.0,6400.0
7.2175,-14400.0,-4224.0,6464.0
7.22,-14336.0,-4160.0,6464.0
7.2225,-14272.0,-4032.0,6400.0
7.225,-14336.0,-3968.0,6464.0
7.2275,-14272.0,-3968.0,6464.0
7.23,-14336.0,-4032.0,6464.0
7.2325,-14400.0,-4096.0,6528.0
7.235,-14400.0,-4160.0,6592.0
7.2375,-14464.0,-4160.0,6656.0
7.24,-14528.0,-4160.0,6720.0
7.2425,-14528.0,-4160.0,6720.0
7.245,-14528.0,-4288.0,6720.0
7.2475,-14528.0,-4288.0,6720.0
7.25,-14528.0,-4288.0,6720.0
7.2525,-14592.0,-4288.0,6720.0
7.255,-14528.0,-4288.0,6720.0
7.2575,-14528.0,-4352.0,6720.0
7.26,-14592.0,-4352.0,6720.0
7.2625,-14592.0,-4352.0,6720.0
7.265,-14592.0,-4288.0,6720.0
7.2675,-14592.0,-4224.0,6784.0
7.27,-14592.0,-4288.0,6784.0
7.2725,-14592.0,-4288.0,6784.0
7.275,-14528.0,-4352.0,6720.0
7.2775,-14528.0,-4288.0,6720.0
7.28,-14464.0,-4288.0,6720.0
7.2825,-14464.0,-4288.0,6720.0
7.285,-14464.0,-4288.0,6720.0
7.2875,-14400.0,-4352.0,6784.0
7.29,-14336.0,-4352.0,6656.0
7.2925,-14336.0,-4352.0,6720.0
7.295,-14400.0,-4352.0,6784.0
7.2975,-14400.0,-4224.0,6720.0
7.3,-14336.0,-4224.0,6656.0
7.3025,-14336.0,-4224.0,6592.0
7.305,-14336.0,-4288.0,6656.0
7.3075,-14336.0,-4288.0,6592.0
7.31,-14272.0,-4288.0,6656.0
7.3125,-14272.0,-4288.0,6720.0
7.315,-14272.0,-4160.0,6848.0
7.3175,-14272.0,-4160.0,6848.0
7.32,-14336.0,-4160.0,6848.0
7.3225,-14336.0,-4288.0,6784.0
7.325,-14336.0,-4288.0,6912.0
7.3275,-14336.0,-4288.0,6912.0
7.33,-14400.0,-4288.0,6912.0
7.3325,-14400.0,-4288.0,6912.0
7.335,-14400.0,-4288.0,6976.0
7.3375,-14400.0,-4288.0,6976.0
7.34,-14400.0,-4224.0,6976.0
7.3425,-14464.0,-4288.0,6976.0
7.345,-14400.0,-4288.0,6912.0
7.3475,-14336.0,-4288.0,6848.0
7.35,-14336.0,-4288.0,6912.0
7.3525,-14272.0,-4288.0,6848.0
7.355,-14336.0,-4288.0,6848.0
7.3575,-14336.0,-4352.0,6784.0
7.36,-14336.0,-4352.0,6848.0
7.3625,-14272.0,-4352.0,6784.0
7.365,-14208.0,-4352.0,6656.0
7.3675,-14208.0,-4416.0,6656.0
7.37,-14208.0,-4416.0,6784.0
7.3725,-14272.0,-4480.0,6848.0
7.375,-14208.0,-4416.0,6720.0
7.3775,-14144.0,-4416.0,6592.0
7.38,-14144.0,-4416.0,6656.0
7.3825,-14208.0,-4480.0,6720.0
7.385,-14272.0,-4416.0,6848.0
7.3875,-14272.0,-4416.0,6784.0
7.39,-14208.0,-4352.0,6848.0
7.3925,-14208.0,-4352.0,6784.0
7.395,-14080.0,-4352.0,6784.0
7.3975,-14080.0,-4352.0,6848.0
7.4,-14080.0,-4416.0,6912.0
7.4025,-14144.0,-4416.0,6848.0
7.405,-14144.0,-4352.0,6848.0
7.4075,-14144.0,-4416.0,6784.0
7.41,-14208.0,-4416.0,6784.0
7.4125,-14208.0,-4416.0,6848.0
7.415,-14144.0,-4480.0,6912.0
7.4175,-14208.0,-4416.0,6848.0
7.42,-14144.0,-4416.0,6784.0
7.4225,-14144.0,-4352.0,6848.0
7.425,-14144.0,-4352.0,6848.0
7.4275,-14144.0,-4352.0,6784.0
7.43,-14144.0,-4352.0,6848.0
7.4325,-14080.0,-4352.0,6912.0
7.435,-14144.0,-4416.0,6912.0
7.4375,-14144.0,-4352.0,6912.0
7.44,-14144.0,-4352.0,7040.0
7.4425,-14144.0,-4288.0,7104.0
7.445,-14080.0,-4288.0,7104.0
7.4475,-14080.0,-4288.0,7040.0
7.45,-14016.0,-4352.0,7104.0
7.4525,-14080.0,-4288.0,7168.0
7.455,-14080.0,-4352.0,7168.0
7.4575,-14080.0,-4352.0,7104.0
7.46,-14016.0,-4352.0,6976.0
7.4625,-14080.0,-4416.0,6976.0
7.465,-14144.0,-4480.0,6976.0
7.4675,-14080.0,-4480.0,7104.0
7.47,-14080.0,-4480.0,7040.0
7.4725,-14016.0,-4416.0,7040.0
7.475,-14080.0,-4480.0,7040.0
7.4775,-14144.0,-4480.0,7040.0
7.48,-14080.0,-4480.0,7104.0
7.4825,-14080.0,-4416.0,7168.0
7.485,-14080.0,-4480.0,7104.0
7.4875,-14144.0,-4480.0,7104.0
7.49,-14144.0,-4544.0,7104.0
7.4925,-14144.0,-4480.0,7040.0
7.495,-14144.0,-4480.0,7104.0
7.4975,-14144.0,-4480.0,7168.0
7.5,-14144.0,-4480.0,7168.0
7.5025,-14144.0,-4480.0,7168.0
7.505,-14144.0,-4544.0,7168.0
7.5075,-14144.0,-4544.0,7168.0
7.51,-14144.0,-4544.0,7104.0
7.5125,-14144.0,-4608.0,7168.0
7.515,-14208.0,-4608.0,7232.0
7.5175,-14144.0,-4608.0,7104.0
7.52,-14208.0,-4672.0,7168.0
7.5225,-14208.0,-4736.0,7232.0
7.525,-14144.0,-4672.0,7168.0
7.5275,-14144.0,-4672.0,7040.0
7.53,-14144.0,-4736.0,7104.0
7.5325,-14208.0,-4800.0,7168.0
7.535,-14208.0,-4800.0,7232.0
7.5375,-14080.0,-4800.0,7168.0
7.54,-14080.0,-4800.0,7104.0
7.5425,-14144.0,-4800.0,7040.0
7.545,-14208.0,-4800.0,7104.0
7.5475,-14208.0,-4800.0,7232.0
7.55,-14208.0,-4800.0,7232.0
7.5525,-14208.0,-4800.0,7296.0
7.555,-14208.0,-4800.0,7296.0
7.5575,-14272.0,-4736.0,7360.0
7.56,-14208.0,-4736.0,7296.0
7.5625,-14208.0,-4736.0,7296.0
7.565,-14144.0,-4736.0,7360.0
7.5675,-14144.0,-4672.0,7360.0
7.57,-14144.0,-4672.0,7360.0
7.5725,-14144.0,-4672.0,7360.0
7.575,-14144.0,-4672.0,7360.0
7.5775,-14144.0,-4736.0,7296.0
7.58,-14144.0,-4672.0,7424.0
7.5825,-14144.0,-4736.0,7424.0
7.585,-14144.0,-4736.0,7360.0
7.5875,-14144.0,-4736.0,7360.0
7.59,-14208.0,-4736.0,7360.0
7.5925,-14144.0,-4736.0,7360.0
7.595,-14144.0,-4736.0,7360.0
7.5975,-14144.0,-4672.0,7360.0
7.6,-14144.0,-4672.0,7360.0
7.6025,-14144.0,-4608.0,7360.0
7.605,-14080.0,-4608.0,7360.0
7.6075,-14080.0,-4608.0,7232.0
7.61,-14016.0,-4672.0,7296.0
7.6125,-14080.0,-4608.0,7296.0
7.615,-14144.0,-4672.0,7360.0
7.6175,-14144.0,-4672.0,7424.0
7.62,-14144.0,-4672.0,7424.0
7.6225,-14144.0,-4672.0,7296.0
7.625,-14144.0,-4672.0,7296.0
7.6275,-14144.0,-4672.0,7360.0
7.63,-14208.0,-4736.0,7424.0
7.6325,-14208.0,-4672.0,7424.0
7.635,-14144.0,-4672.0,7424.0
7.6375,-14144.0,-4672.0,7488.0
7.64,-14144.0,-4672.0,7488.0
7.6425,-14144.0,-4608.0,7424.0
7.645,-14144.0,-4608.0,7360.0
7.6475,-14144.0,-4608.0,7296.0
7.65,-14080.0,-4608.0,7360.0
7.6525,-14080.0,-4672.0,7360.0
7.655,-14080.0,-4736.0,7424.0
7.6575,-14144.0,-4672.0,7424.0
7.66,-14080.0,-4672.0,7424.0
7.6625,-14080.0,-4736.0,7360.0
7.665,-14080.0,-4736.0,7360.0
7.6675,-14080.0,-4736.0,7360.0
7.67,-14080.0,-4800.0,7424.0
7.6725,-14080.0,-4800.0,7296.0
7.675,-14080.0,-4800.0,7296.0
7.6775,-14080.0,-4736.0,7232.0
7.68,-14080.0,-4736.0,7424.0
7.6825,-14144.0,-4736.0,7360.0
7.685,-14144.0,-4736.0,7488.0
7.6875,-14144.0,-4736.0,7360.0
7.69,-14080.0,-4672.0,7232.0
7.6925,-14016.0,-4608.0,7232.0
7.695,-14144.0,-4608.0,7360.0
7.6975,-14080.0,-4608.0,7296.0
7.7,-14080.0,-4544.0,7296.0
7.7025,-14016.0,-4608.0,7104.0
7.705,-14144.0,-4608.0,7168.0
7.7075,-14144.0,-4608.0,7168.0
7.71,-14144.0,-4608.0,7168.0
7.7125,-14208.0,-4608.0,7168.0
7.715,-14208.0,-4608.0,7104.0
7.7175,-14208.0,-4544.0,7104.0
7.72,-14272.0,-4544.0,7104.0
7.7225,-14272.0,-4544.0,7168.0
7.725,-14208.0,-4544.0,7104.0
7.7275,-14144.0,-4608.0,7040.0
7.73,-14208.0,-4608.0,7104.0
7.7325,-14208.0,-4608.0,7104.0
7.735,-14272.0,-4544.0,7104.0
7.7375,-14272.0,-4608.0,7104.0
7.74,-14272.0,-4544.0,7040.0
7.7425,-14336.0,-4480.0,7104.0
7.745,-14272.0,-4480.0,7168.0
7.7475,-14272.0,-4480.0,7168.0
7.75,-14336.0,-4544.0,7104.0
7.7525,-14272.0,-4480.0,7168.0
7.755,-14336.0,-4544.0,7168.0
7.7575,-14272.0,-4608.0,7168.0
7.76,-14336.0,-4672.0,7104.0
7.7625,-14336.0,-4672.0,7232.0
7.765,-14400.0,-4608.0,7168.0
7.7675,-14336.0,-4544.0,7104.0
7.77,-14336.0,-4544.0,7168.0
7.7725,-14336.0,-4544.0,7296.0
7.775,-14272.0,-4480.0,7360.0
7.7775,-14336.0,-4480.0,7168.0
7.78,-14208.0,-4480.0,7040.0
7.7825,-14272.0,-4480.0,7104.0
7.785,-14272.0,-4480.0,7104.0
7.7875,-14272.0,-4480.0,7168.0
7.79,-14208.0,-4544.0,7104.0
7.7925,-14272.0,-4544.0,7168.0
7.795,-14272.0,-4416.0,7040.0
7.7975,-14272.0,-4416.0,7168.0
7.8,-14272.0,-4416.0,7168.0
7.8025,-14272.0,-4416.0,7104.0
7.805,-14272.0,-4416.0,7104.0
7.8075,-14208.0,-4416.0,7168.0
7.81,-14272.0,-4416.0,7168.0
7.8125,-14208.0,-4480.0,7168.0
7.815,-14144.0,-4416.0,7168.0
7.8175,-14208.0,-4480.0,7104.0
7.82,-14208.0,-4480.0,7104.0
7.8225,-14208.0,-4416.0,7104.0
7.825,-14208.0,-4480.0,7168.0
7.8275,-14272.0,-4480.0,7168.0
7.83,-14272.0,-4416.0,7104.0
7.8325,-14272.0,-4480.0,7104.0
7.835,-14208.0,-4480.0,7040.0
7.8375,-14208.0,-4416.0,7104.0
7.84,-14336.0,-4416.0,7168.0
7.8425,-14272.0,-4416.0,7104.0
7.845,-14272.0,-4416.0,6976.0
7.8475,-14272.0,-4480.0,7104.0
7.85,-14336.0,-4544.0,7104.0
7.8525,-14336.0,-4480.0,7104.0
7.855,-14272.0,-4416.0,6976.0
7.8575,-14336.0,-4416.0,7040.0
7.86,-14336.0,-4416.0,7104.0
7.8625,-14400.0,-4480.0,7296.0
7.865,-14272.0,-4416.0,7168.0
7.8675,-14336.0,-4480.0,7232.0
7.87,-14272.0,-4480.0,7168.0
7.8725,-14272.0,-4480.0,7104.0
7.875,-14272.0,-4480.0,7040.0
7.8775,-14336.0,-4480.0,7104.0
7.88,-14272.0,-4416.0,7168.0
7.8825,-14336.0,-4480.0,7168.0
7.885,-14336.0,-4480.0,7168.0
7.8875,-14272.0,-4480.0,7168.0
7.89,-14272.0,-4480.0,7104.0
7.8925,-14272.0,-4480.0,7168.0
7.895,-14272.0,-4480.0,7168.0
7.8975,-14336.0,-4416.0,7040.0
7.9,-14272.0,-4480.0,7104.0
7.9025,-14336.0,-4416.0,7040.0
7.905,-14272.0,-4352.0,7040.0
7.9075,-14272.0,-4352.0,7040.0
7.91,-14336.0,-4416.0,6976.0
7.9125,-14336.0,-4352.0,7040.0
7.915,-14336.0,-4352.0,7040.0
7.9175,-14272.0,-4352.0,7040.0
7.92,-14272.0,-4352.0,6976.0
7.9225,-14272.0,-4416.0,7040.0
7.925,-14400.0,-4352.0,7104.0
7.9275,-14336.0,-4352.0,7104.0
7.93,-14272.0,-4352.0,6976.0
7.9325,-14272.0,-4352.0,6848.0
7.935,-14272.0,-4352.0,6912.0
7.9375,-14336.0,-4416.0,6976.0
7.94,-14208.0,-4352.0,6976.0
7.9425,-14272.0,-4352.0,6912.0
7.945,-14272.0,-4352.0,6912.0
7.9475,-14272.0,-4352.0,6976.0
7.95,-14336.0,-4352.0,6912.0
7.9525,-14336.0,-4352.0,6976.0
7.955,-14336.0,-4352.0,7040.0
7.9575,-14208.0,-4352.0,7040.0
7.96,-14208.0,-4288.0,6976.0
7.9625,-14208.0,-4288.0,7040.0
7.965,-14208.0,-4288.0,7040.0
7.9675,-14272.0,-4288.0,7040.0
7.97,-14272.0,-4288.0,7040.0
7.9725,-14272.0,-4288.0,7040.0
7.975,-14336.0,-4224.0,7104.0
7.9775,-14336.0,-4224.0,7168.0
7.98,-14272.0,-4288.0,7104.0
7.9825,-14336.0,-4288.0,7232.0
7.985,-14272.0,-4288.0,7168.0
7.9875,-14272.0,-4224.0,7168.0
7.99,-14272.0,-4288.0,7232.0
7.9925,-14336.0,-4224.0,7232.0
7.995,-14336.0,-4160.0,7232.0
7.9975,-14272.0,-4160.0,7232.0
8.0,-14400.0,-4288.0,7168.0
8.0025,-14400.0,-4288.0,7232.0
8.005,-14400.0,-4288.0,7168.0
8.0075,-14208.0,-4288.0,7104.0
8.01,-14208.0,-4224.0,7104.0
8.0125,-14144.0,-4352.0,7168.0
8.015,-14208.0,-4288.0,7232.0
8.0175,-14208.0,-4288.0,7232.0
8.02,-14144.0,-4288.0,7296.0
8.0225,-14144.0,-4288.0,7232.0
8.025,-14080.0,-4224.0,7232.0
8.0275,-14080.0,-4224.0,7296.0
8.03,-14144.0,-4160.0,7360.0
8.0325,-14080.0,-4160.0,7360.0
8.035,-14080.0,-4160.0,7424.0
8.0375,-14080.0,-4096.0,7424.0
8.04,-14080.0,-4160.0,7424.0
8.0425,-14080.0,-4160.0,7360.0
8.045,-14080.0,-4224.0,7424.0
8.0475,-14016.0,-4224.0,7296.0
8.05,-14080.0,-4224.0,7296.0
8.0525,-14080.0,-4224.0,7296.0
8.055,-14080.0,-4224.0,7296.0
8.0575,-14080.0,-4224.0,7296.0
8.06,-14080.0,-4224.0,7296.0
8.0625,-14080.0,-4224.0,7232.0
8.065,-14144.0,-4224.0,7168.0
8.0675,-14144.0,-4224.0,7296.0
8.07,-14144.0,-4224.0,7360.0
8.0725,-14208.0,-4288.0,7360.0
8.075,-14208.0,-4288.0,7360.0
8.0775,-14208.0,-4352.0,7296.0
8.08,-14208.0,-4352.0,7296.0
8.0825,-14208.0,-4352.0,7360.0
8.085,-14272.0,-4352.0,7104.0
8.0875,-14208.0,-4288.0,7104.0
8.09,-14272.0,-4288.0,7104.0
8.0925,-14336.0,-4288.0,7168.0
8.095,-14144.0,-4224.0,7104.0
8.0975,-14208.0,-4224.0,7168.0
8.1,-14208.0,-4224.0,7232.0
8.1025,-14208.0,-4288.0,7232.0
8.105,-14144.0,-4288.0,7232.0
8.1075,-14144.0,-4288.0,7168.0
8.11,-14144.0,-4288.0,7168.0
8.1125,-14144.0,-4288.0,7232.0
8.115,-14080.0,-4288.0,7232.0
8.1175,-14080.0,-4352.0,7232.0
8.12,-14016.0,-4352.0,7232.0
8.1225,-14016.0,-4288.0,7232.0
8.125,-13952.0,-4352.0,7232.0
8.1275,-13888.0,-4288.0,7232.0
8.13,-13888.0,-4288.0,7168.0
8.1325,-13824.0,-4352.0,7168.0
8.135,-13888.0,-4288.0,7232.0
8.1375,-13824.0,-4288.0,7232.0
8.14,-13888.0,-4352.0,7232.0
8.1425,-13760.0,-4352.0,7232.0
8.145,-13760.0,-4288.0,7232.0
8.1475,-13824.0,-4288.0,7168.0
8.15,-13760.0,-4288.0,7232.0
8.1525,-13760.0,-4224.0,7296.0
8.155,-13760.0,-4160.0,7296.0
8.1575,-13696.0,-4224.0,7296.0
8.16,-13760.0,-4224.0,7296.0
8.1625,-13760.0,-4224.0,7296.0
8.165,-13696.0,-4224.0,7232.0
8.1675,-13760.0,-4224.0,7232.0
8.17,-13760.0,-4288.0,7168.0
8.1725,-13760.0,-4288.0,7360.0
8.175,-13696.0,-4352.0,7296.0
8.1775,-13696.0,-4224.0,7104.0
8.18,-13696.0,-4352.0,7296.0
8.1825,-13696.0,-4352.0,7360.0
8.185,-13696.0,-4352.0,7360.0
8.1875,-13760.0,-4352.0,7296.0
8.19,-13760.0,-4288.0,7296.0
8.1925,-13760.0,-4288.0,7168.0
8.195,-13696.0,-4288.0,7168.0
8.1975,-13696.0,-4288.0,7168.0
8.2,-13760.0,-4352.0,7168.0
8.2025,-13696.0,-4352.0,7168.0
8.205,-13760.0,-4352.0,7168.0
8.2075,-13760.0,-4416.0,7104.0
8.21,-13760.0,-4416.0,7168.0
8.2125,-13760.0,-4352.0,7168.0
8.215,-13760.0,-4416.0,7232.0
8.2175,-13760.0,-4416.0,7296.0
8.22,-13632.0,-4288.0,7168.0
8.2225,-13632.0,-4352.0,7232.0
8.225,-13696.0,-4288.0,7296.0
8.2275,-13696.0,-4288.0,7296.0
8.23,-13632.0,-4288.0,7296.0
8.2325,-13632.0,-4352.0,7360.0
8.235,-13632.0,-4352.0,7296.0
8.2375,-13632.0,-4352.0,7232.0
8.24,-13760.0,-4352.0,7296.0
8.2425,-13696.0,-4416.0,7232.0
8.245,-13632.0,-4352.0,7104.0
8.2475,-13696.0,-4352.0,7168.0
8.25,-13760.0,-4416.0,7232.0
8.2525,-13888.0,-4352.0,7360.0
8.255,-13888.0,-4352.0,7296.0
8.2575,-13824.0,-4288.0,7168.0
8.26,-13824.0,-4288.0,7232.0
8.2625,-13888.0,-4352.0,7296.0
8.265,-13888.0,-4352.0,7360.0
8.2675,-13824.0,-4352.0,7424.0
8.27,-13952.0,-4416.0,7424.0
8.2725,-13952.0,-4416.0,7360.0
8.275,-14016.0,-4416.0,7360.0
8.2775,-14016.0,-4544.0,7424.0
8.28,-13952.0,-4544.0,7360.0
8.2825,-13952.0,-4480.0,7424.0
8.285,-13952.0,-4480.0,7360.0
8.2875,-14016.0,-4544.0,7360.0
8.29,-13952.0,-4480.0,7296.0
8.2925,-13888.0,-4480.0,7296.0
8.295,-13888.0,-4480.0,7296.0
8.2975,-13952.0,-4480.0,7296.0
8.3,-13888.0,-4480.0,7360.0
8.3025,-13888.0,-4480.0,7360.0
8.305,-13888.0,-4416.0,7360.0
8.3075,-13888.0,-4416.0,7360.0
8.31,-13888.0,-4352.0,7424.0
8.3125,-13888.0,-4416.0,7360.0
8.315,-13760.0,-4416.0,7360.0
8.3175,-13760.0,-4352.0,7424.0
8.32,-13824.0,-4480.0,7552.0
8.3225,-13824.0,-4352.0,7488.0
8.325,-13760.0,-4352.0,7424.0
8.3275,-13760.0,-4416.0,7424.0
8.33,-13824.0,-4416.0,7488.0
8.3325,-13760.0,-4352.0,7424.0
8.335,-13824.0,-4416.0,7552.0
8.3375,-13824.0,-4480.0,7616.0
8.34,-13824.0,-4480.0,7616.0
8.3425,-13760.0,-4480.0,7552.0
8.345,-13760.0,-4352.0,7488.0
8.3475,-13824.0,-4352.0,7488.0
8.35,-13824.0,-4288.0,7488.0
8.3525,-13760.0,-4288.0,7488.0
8.355,-13824.0,-4288.0,7552.0
8.3575,-13952.0,-4288.0,7552.0
8.36,-13888.0,-4288.0,7552.0
8.3625,-14016.0,-4288.0,7552.0
8.365,-14016.0,-4352.0,7552.0
8.3675,-14016.0,-4352.0,7488.0
8.37,-14016.0,-4352.0,7488.0
8.3725,-14016.0,-4352.0,7488.0
8.375,-14080.0,-4288.0,7488.0
8.3775,-14080.0,-4352.0,7488.0
8.38,-14080.0,-4352.0,7488.0
8.3825,-14144.0,-4352.0,7488.0
8.385,-14208.0,-4416.0,7488.0
8.3875,-14208.0,-4352.0,7552.0
8.39,-14208.0,-4416.0,7488.0
8.3925,-14208.0,-4416.0,7552.0
8.395,-14144.0,-4416.0,7552.0
8.3975,-14144.0,-4416.0,7488.0
8.4,-14208.0,-4480.0,7616.0
8.4025,-14144.0,-4480.0,7552.0
8.405,-14144.0,-4480.0,7552.0
8.4075,-14144.0,-4416.0,7552.0
8.41,-14080.0,-4416.0,7488.0
8.4125,-14016.0,-4352.0,7424.0
8.415,-14080.0,-4352.0,7424.0
8.4175,-14080.0,-4352.0,7552.0
8.42,-14016.0,-4352.0,7424.0
8.4225,-13952.0,-4352.0,7360.0
8.425,-13952.0,-4352.0,7360.0
8.4275,-13952.0,-4288.0,7296.0
8.43,-13888.0,-4352.0,7296.0
8.4325,-13888.0,-4288.0,7296.0
8.435,-13888.0,-4288.0,7360.0
8.4375,-13888.0,-4352.0,7296.0
8.44,-13888.0,-4352.0,7296.0
8.4425,-13824.0,-4288.0,7296.0
8.445,-13824.0,-4288.0,7296.0
8.4475,-13760.0,-4224.0,7296.0
8.45,-13824.0,-4224.0,7296.0
8.4525,-13888.0,-4288.0,7232.0
8.455,-13824.0,-4160.0,7296.0
8.4575,-13824.0,-4224.0,7360.0
8.46,-13760.0,-4224.0,7232.0
8.4625,-13760.0,-4160.0,7232.0
8.465,-13696.0,-4160.0,7232.0
8.4675,-13696.0,-4096.0,7232.0
8.47,-13696.0,-4096.0,7232.0
8.4725,-13696.0,-4032.0,7296.0
8.475,-13696.0,-4032.0,7296.0
8.4775,-13696.0,-4096.0,7296.0
8.48,-13632.0,-4096.0,7232.0
8.4825,-13504.0,-4096.0,7104.0
8.485,-13568.0,-4160.0,7232.0
8.4875,-13568.0,-4160.0,7232.0
8.49,-13568.0,-4224.0,7296.0
8.4925,-13504.0,-4160.0,7232.0
8.495,-13504.0,-4096.0,7104.0
8.4975,-13504.0,-4160.0,7168.0
8.5,-13504.0,-4160.0,7296.0
8.5025,-13504.0,-4096.0,7296.0
8.505,-13376.0,-4096.0,7296.0
8.5075,-13376.0,-4160.0,7168.0
8.51,-13312.0,-4160.0,7104.0
8.5125,-13376.0,-4032.0,7232.0
8.515,-13376.0,-4032.0,7360.0
8.5175,-13312.0,-4032.0,7296.0
8.52,-13248.0,-4032.0,7296.0
8.5225,-13184.0,-4096.0,7232.0
8.525,-13120.0,-4096.0,7296.0
8.5275,-13120.0,-4160.0,7360.0
8.53,-13056.0,-4096.0,7296.0
8.5325,-13056.0,-4096.0,7232.0
8.535,-12992.0,-4096.0,7232.0
8.5375,-12992.0,-4096.0,7232.0
8.54,-12992.0,-4160.0,7296.0
8.5425,-12928.0,-4032.0,7296.0
8.545,-12928.0,-4032.0,7360.0
8.5475,-12992.0,-4032.0,7360.0
8.55,-12992.0,-3968.0,7488.0
8.5525,-12992.0,-3904.0,7488.0
8.555,-12992.0,-3968.0,7424.0
8.5575,-12928.0,-3904.0,7488.0
8.56,-12992.0,-3904.0,7552.0
8.5625,-12928.0,-3904.0,7488.0
8.565,-12864.0,-3904.0,7424.0
8.5675,-12928.0,-3904.0,7360.0
8.57,-13056.0,-3968.0,7360.0
8.5725,-13120.0,-3968.0,7360.0
8.575,-13056.0,-3968.0,7424.0
8.5775,-13120.0,-4032.0,7488.0
8.58,-13120.0,-4096.0,7488.0
8.5825,-13120.0,-4032.0,7360.0
8.585,-13184.0,-4032.0,7296.0
8.5875,-13184.0,-4032.0,7232.0
8.59,-13184.0,-3968.0,7296.0
8.5925,-13120.0,-4032.0,7232.0
8.595,-13184.0,-3968.0,7360.0
8.5975,-13184.0,-3968.0,7360.0
8.6,-13120.0,-4032.0,7360.0
8.6025,-13184.0,-4032.0,7424.0
8.605,-13120.0,-4032.0,7552.0
8.6075,-13184.0,-4032.0,7488.0
8.61,-13120.0,-3968.0,7488.0
8.6125,-13120.0,-4032.0,7488.0
8.615,-13184.0,-4032.0,7488.0
8.6175,-13120.0,-4032.0,7552.0
8.62,-13184.0,-4096.0,7552.0
8.6225,-13120.0,-4160.0,7552.0
8.625,-13120.0,-4096.0,7552.0
8.6275,-13056.0,-4032.0,7680.0
8.63,-13120.0,-4032.0,7680.0
8.6325,-13120.0,-4032.0,7552.0
8.635,-13120.0,-4032.0,7552.0
8.6375,-13120.0,-4096.0,7552.0
8.64,-13056.0,-4160.0,7680.0
8.6425,-13056.0,-4160.0,7680.0
8.645,-13056.0,-4096.0,7680.0
8.6475,-13056.0,-4096.0,7616.0
8.65,-13056.0,-4160.0,7616.0
8.6525,-13056.0,-4096.0,7552.0
8.655,-12992.0,-4096.0,7488.0
8.6575,-12992.0,-4096.0,7488.0
8.66,-13056.0,-4096.0,7616.0
8.6625,-13184.0,-4160.0,7680.0
8.665,-13184.0,-4096.0,7616.0
8.6675,-13184.0,-4096.0,7488.0
8.67,-13184.0,-4096.0,7552.0
8.6725,-13184.0,-4096.0,7552.0
8.675,-13248.0,-4224.0,7552.0
8.6775,-13184.0,-4224.0,7488.0
8.68,-13248.0,-4160.0,7552.0
8.6825,-13248.0,-4224.0,7552.0
8.685,-13248.0,-4224.0,7616.0
8.6875,-13312.0,-4224.0,7616.0
8.69,-13312.0,-4224.0,7552.0
8.6925,-13312.0,-4224.0,7552.0
8.695,-13312.0,-4160.0,7680.0
8.6975,-13312.0,-4096.0,7808.0
8.7,-13312.0,-4224.0,7808.0
8.7025,-13312.0,-4224.0,7808.0
8.705,-13376.0,-4160.0,7872.0
8.7075,-13376.0,-4160.0,7872.0
8.71,-13376.0,-4160.0,7808.0
8.7125,-13440.0,-4160.0,7872.0
8.715,-13440.0,-4224.0,7808.0
8.7175,-13440.0,-4224.0,7872.0
8.72,-13568.0,-4352.0,7872.0
8.7225,-13568.0,-4288.0,7808.0
8.725,-13568.0,-4224.0,7680.0
8.7275,-13568.0,-4288.0,7616.0
8.73,-13568.0,-4352.0,7616.0
8.7325,-13632.0,-4288.0,7680.0
8.735,-13696.0,-4288.0,7616.0
8.7375,-13568.0,-4288.0,7488.0
8.74,-13696.0,-4288.0,7552.0
8.7425,-13760.0,-4288.0,7680.0
8.745,-13632.0,-4288.0,7744.0
8.7475,-13632.0,-4288.0,7808.0
8.75,-13568.0,-4288.0,7872.0
8.7525,-13568.0,-4288.0,7936.0
8.755,-13504.0,-4288.0,7872.0
8.7575,-13440.0,-4288.0,7808.0
8.76,-13440.0,-4224.0,7808.0
8.7625,-13312.0,-4288.0,7936.0
8.765,-13248.0,-4224.0,7872.0
8.7675,-13184.0,-4288.0,7872.0
8.77,-13248.0,-4224.0,7872.0
8.7725,-13184.0,-4224.0,7872.0
8.775,-13248.0,-4224.0,7936.0
8.7775,-13248.0,-4096.0,8128.0
8.78,-13184.0,-4096.0,8064.0
8.7825,-13120.0,-4096.0,8064.0
8.785,-13120.0,-4160.0,7936.0
8.7875,-13184.0,-4096.0,7936.0
8.79,-13184.0,-4096.0,7936.0
8.7925,-13120.0,-4096.0,7936.0
8.795,-13184.0,-4096.0,7936.0
8.7975,-13184.0,-4096.0,8000.0
8.8,-13248.0,-4160.0,8064.0
8.8025,-13184.0,-4096.0,7936.0
8.805,-13184.0,-4160.0,7872.0
8.8075,-13248.0,-4160.0,7936.0
8.81,-13376.0,-4224.0,7936.0
8.8125,-13312.0,-4224.0,8000.0
8.815,-13312.0,-4160.0,7936.0
8.8175,-13312.0,-4160.0,7936.0
8.82,-13248.0,-4096.0,7936.0
8.8225,-13184.0,-4096.0,7936.0
8.825,-13248.0,-4096.0,8064.0
8.8275,-13248.0,-4160.0,8000.0
8.83,-13248.0,-4224.0,8064.0
8.8325,-13248.0,-4224.0,8128.0
8.835,-13184.0,-4160.0,8192.0
8.8375,-13248.0,-4096.0,8192.0
8.84,-13120.0,-4160.0,8128.0
8.8425,-13120.0,-4160.0,8192.0
8.845,-13120.0,-4160.0,8192.0
8.8475,-13120.0,-4160.0,8192.0
8.85,-13056.0,-4224.0,8192.0
8.8525,-12992.0,-4224.0,8128.0
8.855,-12992.0,-4288.0,8064.0
8.8575,-12992.0,-4160.0,8128.0
8.86,-13056.0,-4224.0,8064.0
8.8625,-13120.0,-4224.0,8064.0
8.865,-13056.0,-4224.0,8064.0
8.8675,-13056.0,-4160.0,8064.0
8.87,-13056.0,-4160.0,8064.0
8.8725,-12992.0,-4096.0,8000.0
8.875,-13056.0,-4096.0,8064.0
8.8775,-12992.0,-4096.0,8064.0
8.88,-13120.0,-4096.0,8192.0
8.8825,-13120.0,-4160.0,8192.0
8.885,-13056.0,-4096.0,8128.0
8.8875,-13056.0,-4096.0,8128.0
8.89,-13056.0,-4096.0,8064.0
8.8925,-13056.0,-4096.0,8128.0
8.895,-13120.0,-4096.0,8192.0
8.8975,-13056.0,-4096.0,8320.0
8.9,-13120.0,-4096.0,8192.0
8.9025,-13248.0,-4096.0,8192.0
8.905,-13248.0,-4096.0,8320.0
8.9075,-13248.0,-4032.0,8192.0
8.91,-13248.0,-4096.0,8256.0
8.9125,-13248.0,-4032.0,8320.0
8.915,-13184.0,-4032.0,8320.0
8.9175,-13248.0,-4032.0,8320.0
8.92,-13248.0,-3968.0,8384.0
8.9225,-13248.0,-4032.0,8384.0
8.925,-13312.0,-3968.0,8448.0
8.9275,-13376.0,-3968.0,8448.0
8.93,-13312.0,-3968.0,8448.0
8.9325,-13376.0,-3904.0,8512.0
8.935,-13376.0,-3904.0,8512.0
8.9375,-13376.0,-3904.0,8448.0
8.94,-13440.0,-3904.0,8512.0
8.9425,-13440.0,-3968.0,8448.0
8.945,-13504.0,-3904.0,8448.0
8.9475,-13504.0,-3904.0,8512.0
8.95,-13568.0,-3904.0,8512.0
8.9525,-13568.0,-3968.0,8512.0
8.955,-13504.0,-3968.0,8512.0
8.9575,-13504.0,-3904.0,8576.0
8.96,-13568.0,-3904.0,8768.0
8.9625,-13632.0,-3904.0,8768.0
8.965,-13568.0,-3904.0,8768.0
8.9675,-13568.0,-3840.0,8640.0
8.97,-13568.0,-3904.0,8704.0
8.9725,-13632.0,-3968.0,8896.0
8.975,-13568.0,-3904.0,8832.0
8.9775,-13632.0,-3904.0,8832.0
8.98,-13568.0,-3904.0,8768.0
8.9825,-13632.0,-3904.0,8832.0
8.985,-13824.0,-3968.0,8832.0
8.9875,-13696.0,-3968.0,8768.0
8.99,-13696.0,-3968.0,8768.0
8.9925,-13696.0,-3904.0,8832.0
8.995,-13696.0,-3904.0,8896.0
8.9975,-13760.0,-3968.0,8896.0
9.0,-13760.0,-3968.0,8896.0
9.0025,-13760.0,-3904.0,8960.0
9.005,-13760.0,-3904.0,8960.0
9.0075,-13760.0,-3904.0,8960.0
9.01,-13760.0,-3904.0,8896.0
9.0125,-13696.0,-3904.0,8896.0
9.015,-13696.0,-3904.0,8960.0
9.0175,-13760.0,-3904.0,9024.0
9.02,-13696.0,-3840.0,8960.0
9.0225,-13696.0,-3904.0,8960.0
9.025,-13760.0,-3840.0,9024.0
9.0275,-13760.0,-3904.0,9024.0
9.03,-13760.0,-3840.0,9024.0
9.0325,-13696.0,-3968.0,8960.0
9.035,-13760.0,-3904.0,9024.0
9.0375,-13696.0,-3840.0,8960.0
9.04,-13632.0,-3776.0,9024.0
9.0425,-13696.0,-3776.0,9152.0
9.045,-13632.0,-3712.0,9152.0
9.0475,-13632.0,-3648.0,9152.0
9.05,-13568.0,-3648.0,9152.0
9.0525,-13568.0,-3648.0,9216.0
9.055,-13632.0,-3648.0,9280.0
9.0575,-13632.0,-3648.0,9216.0
9.06,-13568.0,-3520.0,9216.0
9.0625,-13632.0,-3584.0,9152.0
9.065,-13632.0,-3520.0,9216.0
9.0675,-13568.0,-3456.0,9024.0
9.07,-13568.0,-3520.0,9152.0
9.0725,-13568.0,-3520.0,9088.0
9.075,-13568.0,-3520.0,9088.0
9.0775,-13504.0,-3520.0,9152.0
9.08,-13504.0,-3584.0,9152.0
9.0825,-13504.0,-3520.0,9152.0
9.085,-13440.0,-3520.0,9152.0
9.0875,-13376.0,-3456.0,9024.0
9.09,-13376.0,-3520.0,9088.0
9.0925,-13440.0,-3520.0,9088.0
9.095,-13376.0,-3520.0,9088.0
9.0975,-13376.0,-3520.0,9152.0
9.1,-13440.0,-3520.0,9088.0
9.1025,-13376.0,-3520.0,9024.0
9.105,-13440.0,-3520.0,9088.0
9.1075,-13504.0,-3456.0,9024.0
9.11,-13440.0,-3456.0,9024.0
9.1125,-13440.0,-3520.0,9024.0
9.115,-13440.0,-3520.0,9024.0
9.1175,-13504.0,-3456.0,9024.0
9.12,-13568.0,-3456.0,9088.0
9.1225,-13504.0,-3392.0,9024.0
9.125,-13440.0,-3328.0,8960.0
9.1275,-13440.0,-3392.0,8960.0
9.13,-13440.0,-3328.0,9024.0
9.1325,-13504.0,-3392.0,9088.0
9.135,-13440.0,-3392.0,9088.0
9.1375,-13440.0,-3392.0,9088.0
9.14,-13504.0,-3328.0,9024.0
9.1425,-13504.0,-3328.0,9024.0
9.145,-13504.0,-3392.0,9024.0
9.1475,-13568.0,-3392.0,9088.0
9.15,-13568.0,-3456.0,9088.0
9.1525,-13504.0,-3456.0,8960.0
9.155,-13440.0,-3456.0,8896.0
9.1575,-13440.0,-3456.0,8896.0
9.16,-13440.0,-3456.0,8896.0
9.1625,-13440.0,-3392.0,8832.0
9.165,-13440.0,-3392.0,8832.0
9.1675,-13440.0,-3392.0,8768.0
9.17,-13504.0,-3392.0,8768.0
9.1725,-13504.0,-3456.0,8768.0
9.175,-13504.0,-3392.0,8704.0
9.1775,-13504.0,-3456.0,8640.0
9.18,-13504.0,-3456.0,8704.0
9.1825,-13504.0,-3520.0,8704.0
9.185,-13568.0,-3520.0,8704.0
9.1875,-13568.0,-3456.0,8704.0
9.19,-13568.0,-3456.0,8832.0
9.1925,-13568.0,-3456.0,8896.0
9.195,-13504.0,-3456.0,8960.0
9.1975,-13568.0,-3456.0,9024.0
9.2,-13632.0,-3456.0,9280.0
9.2025,-13632.0,-3392.0,9408.0
9.205,-13632.0,-3456.0,9472.0
9.2075,-13632.0,-3328.0,9472.0
9.21,-13632.0,-3264.0,9408.0
9.2125,-13568.0,-3136.0,9280.0
9.215,-13568.0,-3136.0,9408.0
9.2175,-13632.0,-3200.0,9472.0
9.22,-13568.0,-3200.0,9408.0
9.2225,-13504.0,-3200.0,9344.0
9.225,-13504.0,-3136.0,9216.0
9.2275,-13568.0,-3136.0,9280.0
9.23,-13632.0,-3200.0,9280.0
9.2325,-13696.0,-3136.0,9216.0
9.235,-13696.0,-3136.0,9152.0
9.2375,-13632.0,-3200.0,9024.0
9.24,-13632.0,-3200.0,9024.0
9.2425,-13632.0,-3136.0,9152.0
9.245,-13632.0,-3136.0,9152.0
9.2475,-13632.0,-3200.0,9216.0
9.25,-13568.0,-3264.0,9216.0
9.2525,-13632.0,-3200.0,9152.0
9.255,-13632.0,-3200.0,9216.0
9.2575,-13632.0,-3200.0,9280.0
9.26,-13632.0,-3200.0,9280.0
9.2625,-13632.0,-3200.0,9344.0
9.265,-13632.0,-3136.0,9408.0
9.2675,-13696.0,-3136.0,9472.0
9.27,-13696.0,-3200.0,9536.0
9.2725,-13760.0,-3200.0,9472.0
9.275,-13824.0,-3264.0,9536.0
9.2775,-13824.0,-3328.0,9600.0
9.28,-13760.0,-3328.0,9536.0
9.2825,-13888.0,-3392.0,9600.0
9.285,-13824.0,-3328.0,9664.0
9.2875,-13824.0,-3264.0,9600.0
9.29,-13760.0,-3200.0,9664.0
9.2925,-13760.0,-3136.0,9664.0
9.295,-13824.0,-3200.0,9728.0
9.2975,-13824.0,-3136.0,9856.0
9.3,-13696.0,-3072.0,9792.0
9.3025,-13632.0,-3072.0,9664.0
9.305,-13632.0,-3136.0,9664.0
9.3075,-13696.0,-3136.0,9600.0
9.31,-13760.0,-3136.0,9536.0
9.3125,-13760.0,-3136.0,9536.0
9.315,-13824.0,-3136.0,9536.0
9.3175,-13760.0,-3136.0,9472.0
9.32,-13696.0,-3136.0,9344.0
9.3225,-13696.0,-3136.0,9344.0
9.325,-13632.0,-3136.0,9344.0
9.3275,-13568.0,-3072.0,9344.0
9.33,-13632.0,-3072.0,9344.0
9.3325,-13632.0,-3072.0,9344.0
9.335,-13632.0,-3072.0,9344.0
9.3375,-13568.0,-3008.0,9344.0
9.34,-13568.0,-3008.0,9408.0
9.3425,-13504.0,-3008.0,9472.0
9.345,-13504.0,-3008.0,9472.0
9.3475,-13504.0,-2944.0,9472.0
9.35,-13504.0,-2944.0,9472.0
9.3525,-13440.0,-2944.0,9472.0
9.355,-13440.0,-2880.0,9536.0
9.3575,-13312.0,-2880.0,9536.0
9.36,-13504.0,-2880.0,9600.0
9.3625,-13440.0,-2816.0,9536.0
9.365,-13440.0,-2752.0,9472.0
9.3675,-13440.0,-2752.0,9344.0
9.37,-13376.0,-2752.0,9344.0
9.3725,-13376.0,-2688.0,9472.0
9.375,-13376.0,-2624.0,9472.0
9.3775,-13312.0,-2560.0,9344.0
9.38,-13312.0,-2560.0,9344.0
9.3825,-13312.0,-2560.0,9408.0
9.385,-13376.0,-2560.0,9472.0
9.3875,-13376.0,-2560.0,9536.0
9.39,-13312.0,-2560.0,9472.0
9.3925,-13376.0,-2624.0,9472.0
9.395,-13376.0,-2560.0,9408.0
9.3975,-13440.0,-2560.0,9472.0
9.4,-13440.0,-2560.0,9472.0
9.4025,-13440.0,-2560.0,9536.0
9.405,-13440.0,-2624.0,9536.0
9.4075,-13440.0,-2624.0,9536.0
9.41,-13440.0,-2624.0,9600.0
9.4125,-13440.0,-2624.0,9600.0
9.415,-13440.0,-2624.0,9664.0
9.4175,-13376.0,-2624.0,9664.0
9.42,-13376.0,-2624.0,9600.0
9.4225,-13376.0,-2624.0,9600.0
9.425,-13376.0,-2560.0,9664.0
9.4275,-13376.0,-2560.0,9600.0
9.43,-13376.0,-2624.0,9600.0
9.4325,-13376.0,-2624.0,9600.0
9.435,-13440.0,-2496.0,9664.0
9.4375,-13312.0,-2496.0,9536.0
9.44,-13312.0,-2432.0,9536.0
9.4425,-13376.0,-2496.0,9600.0
9.445,-13312.0,-2496.0,9536.0
9.4475,-13248.0,-2496.0,9472.0
9.45,-13248.0,-2560.0,9472.0
9.4525,-13312.0,-2624.0,9536.0
9.455,-13376.0,-2624.0,9600.0
9.4575,-13376.0,-2624.0,9536.0
9.46,-13312.0,-2624.0,9472.0
9.4625,-13312.0,-2624.0,9536.0
9.465,-13376.0,-2624.0,9408.0
9.4675,-13376.0,-2624.0,9472.0
9.47,-13376.0,-2624.0,9536.0
9.4725,-13376.0,-2624.0,9536.0
9.475,-13312.0,-2496.0,9472.0
9.4775,-13376.0,-2496.0,9472.0
9.48,-13376.0,-2432.0,9536.0
9.4825,-13376.0,-2432.0,9536.0
9.485,-13440.0,-2432.0,9472.0
9.4875,-13440.0,-2432.0,9600.0
9.49,-13440.0,-2496.0,9536.0
9.4925,-13376.0,-2496.0,9536.0
9.495,-13504.0,-2432.0,9472.0
9.4975,-13504.0,-2432.0,9536.0
9.5,-13504.0,-2432.0,9472.0
9.5025,-13568.0,-2496.0,9472.0
9.505,-13504.0,-2496.0,9472.0
9.5075,-13568.0,-2560.0,9408.0
9.51,-13568.0,-2496.0,9472.0
9.5125,-13568.0,-2496.0,9472.0
9.515,-13632.0,-2496.0,9536.0
9.5175,-13568.0,-2496.0,9600.0
9.52,-13632.0,-2496.0,9664.0
9.5225,-13632.0,-2496.0,9792.0
9.525,-13632.0,-2432.0,9728.0
9.5275,-13568.0,-2368.0,9664.0
9.53,-13568.0,-2432.0,9792.0
9.5325,-13632.0,-2432.0,9856.0
9.535,-13696.0,-2432.0,9920.0
9.5375,-13696.0,-2368.0,9920.0
9.54,-13568.0,-2368.0,9856.0
9.5425,-13568.0,-2368.0,9792.0
9.545,-13632.0,-2432.0,9728.0
9.5475,-13568.0,-2432.0,9856.0
9.55,-13632.0,-2304.0,9856.0
9.5525,-13696.0,-2240.0,9920.0
9.555,-13696.0,-2368.0,9856.0
9.5575,-13696.0,-2304.0,9792.0
9.56,-13696.0,-2304.0,9792.0
9.5625,-13696.0,-2304.0,9664.0
9.565,-13760.0,-2240.0,9664.0
9.5675,-13760.0,-2240.0,9728.0
9.57,-13760.0,-2240.0,9728.0
9.5725,-13760.0,-2304.0,9792.0
9.575,-13824.0,-2240.0,9792.0
9.5775,-13888.0,-2240.0,9792.0
9.58,-13888.0,-2240.0,9856.0
9.5825,-13888.0,-2240.0,9920.0
9.585,-13888.0,-2240.0,9984.0
9.5875,-13952.0,-2176.0,10048.0
9.59,-13952.0,-2176.0,10048.0
9.5925,-13952.0,-2112.0,10048.0
9.595,-13952.0,-2112.0,10048.0
9.5975,-13952.0,-2112.0,10048.0
9.6,-13888.0,-2176.0,10176.0
9.6025,-13888.0,-2176.0,10048.0
9.605,-13824.0,-2176.0,10048.0
9.6075,-13824.0,-2176.0,10048.0
9.61,-13760.0,-2112.0,10112.0
9.6125,-13760.0,-2176.0,10176.0
9.615,-13760.0,-2176.0,10176.0
9.6175,-13568.0,-2112.0,10048.0
9.62,-13568.0,-2112.0,9984.0
9.6225,-13632.0,-2176.0,9920.0
9.625,-13504.0,-2240.0,9984.0
9.6275,-13504.0,-2176.0,10048.0
9.63,-13440.0,-2112.0,9984.0
9.6325,-13440.0,-2112.0,9984.0
9.635,-13440.0,-2176.0,9984.0
9.6375,-13440.0,-2112.0,9984.0
9.64,-13440.0,-2112.0,9984.0
9.6425,-13440.0,-2112.0,9984.0
9.645,-13504.0,-2048.0,10048.0
9.6475,-13504.0,-2048.0,10048.0
9.65,-13440.0,-2112.0,10048.0
9.6525,-13376.0,-2048.0,9984.0
9.655,-13376.0,-1984.0,9984.0
9.6575,-13376.0,-1920.0,9984.0
9.66,-13376.0,-1984.0,9984.0
9.6625,-13376.0,-1984.0,9984.0
9.665,-13312.0,-1984.0,10048.0
9.6675,-13312.0,-1920.0,10048.0
9.67,-13248.0,-1920.0,9984.0
9.6725,-13248.0,-1856.0,10048.0
9.675,-13248.0,-1856.0,10048.0
9.6775,-13184.0,-1856.0,10112.0
9.68,-13248.0,-1920.0,10240.0
9.6825,-13248.0,-1856.0,10112.0
9.685,-13184.0,-1856.0,9984.0
9.6875,-13248.0,-1856.0,10048.0
9.69,-13248.0,-1856.0,10112.0
9.6925,-13312.0,-1920.0,10176.0
9.695,-13184.0,-1856.0,10176.0
9.6975,-13120.0,-1920.0,10048.0
9.7,-13120.0,-1920.0,10048.0
9.7025,-13120.0,-1856.0,9984.0
9.705,-13056.0,-1856.0,10048.0
9.7075,-13056.0,-1856.0,10048.0
9.71,-13056.0,-1856.0,10048.0
9.7125,-12992.0,-1792.0,10112.0
9.715,-12928.0,-1792.0,10112.0
9.7175,-12864.0,-1792.0,10112.0
9.72,-12864.0,-1856.0,10176.0
9.7225,-12864.0,-1920.0,10112.0
9.725,-12864.0,-1920.0,10048.0
9.7275,-12864.0,-1920.0,10048.0
9.73,-12864.0,-1920.0,10112.0
9.7325,-12864.0,-1856.0,10112.0
9.735,-12800.0,-1856.0,10112.0
9.7375,-12736.0,-1856.0,10176.0
9.74,-12608.0,-1856.0,10176.0
9.7425,-12608.0,-1856.0,10176.0
9.745,-12608.0,-1856.0,10176.0
9.7475,-12608.0,-1856.0,10176.0
9.75,-12608.0,-1856.0,10112.0
9.7525,-12608.0,-1856.0,10112.0
9.755,-12608.0,-1856.0,10176.0
9.7575,-12608.0,-1856.0,10240.0
9.76,-12672.0,-1792.0,10240.0
9.7625,-12544.0,-1664.0,10240.0
9.765,-12608.0,-1600.0,10176.0
9.7675,-12544.0,-1664.0,10368.0
9.77,-12672.0,-1664.0,10432.0
9.7725,-12608.0,-1664.0,10496.0
9.775,-12608.0,-1600.0,10432.0
9.7775,-12672.0,-1664.0,10496.0
9.78,-12672.0,-1664.0,10560.0
9.7825,-12672.0,-1600.0,10432.0
9.785,-12672.0,-1536.0,10560.0
9.7875,-12672.0,-1536.0,10688.0
9.79,-12736.0,-1600.0,10752.0
9.7925,-12736.0,-1536.0,10688.0
9.795,-12800.0,-1600.0,10688.0
9.7975,-12800.0,-1600.0,10688.0
9.8,-12864.0,-1664.0,10624.0
9.8025,-12864.0,-1664.0,10688.0
9.805,-12928.0,-1600.0,10752.0
9.8075,-12992.0,-1664.0,10752.0
9.81,-12992.0,-1664.0,10816.0
9.8125,-13120.0,-1600.0,10752.0
9.815,-13120.0,-1600.0,10688.0
9.8175,-13120.0,-1600.0,10752.0
9.82,-13120.0,-1600.0,10816.0
9.8225,-13120.0,-1408.0,10816.0
9.825,-13120.0,-1408.0,10816.0
9.8275,-13120.0,-1408.0,10816.0
9.83,-13056.0,-1472.0,10880.0
9.8325,-13056.0,-1536.0,10880.0
9.835,-13056.0,-1536.0,10944.0
9.8375,-13056.0,-1664.0,10944.0
9.84,-13248.0,-1792.0,11008.0
9.8425,-13184.0,-1856.0,11008.0
9.845,-13120.0,-1792.0,10944.0
9.8475,-13120.0,-1728.0,10880.0
9.85,-13184.0,-1792.0,10816.0
9.8525,-13248.0,-1792.0,10688.0
9.855,-13312.0,-1856.0,10752.0
9.8575,-13312.0,-1856.0,10816.0
9.86,-13248.0,-1728.0,10880.0
9.8625,-13248.0,-1728.0,10752.0
9.865,-13312.0,-1792.0,10816.0
9.8675,-13376.0,-1728.0,10816.0
9.87,-13376.0,-1792.0,10752.0
9.8725,-13440.0,-1792.0,10816.0
9.875,-13376.0,-1792.0,10816.0
9.8775,-13440.0,-1728.0,10944.0
9.88,-13376.0,-1792.0,10944.0
9.8825,-13376.0,-1728.0,11008.0
9.885,-13376.0,-1728.0,11072.0
9.8875,-13376.0,-1728.0,11072.0
