time_stamp,acc_x,acc_y,acc_z
0.0,-15808.0,-4288.0,3392.0
0.0025,-15808.0,-4224.0,3328.0
0.005,-15808.0,-4288.0,3392.0
0.0075,-15808.0,-4352.0,3328.0
0.01,-15872.0,-4352.0,3328.0
0.0125,-15808.0,-4352.0,3328.0
0.015,-15744.0,-4288.0,3264.0
0.0175,-15808.0,-4288.0,3392.0
0.02,-15808.0,-4288.0,3392.0
0.0225,-15744.0,-4288.0,3456.0
0.025,-15744.0,-4288.0,3520.0
0.0275,-15744.0,-4288.0,3584.0
0.03,-15744.0,-4288.0,3456.0
0.0325,-15744.0,-4352.0,3456.0
0.035,-15680.0,-4352.0,3456.0
0.0375,-15680.0,-4352.0,3456.0
0.04,-15744.0,-4288.0,3392.0
0.0425,-15680.0,-4288.0,3328.0
0.045,-15680.0,-4352.0,3328.0
0.0475,-15680.0,-4352.0,3328.0
0.05,-15680.0,-4288.0,3328.0
0.0525,-15680.0,-4288.0,3328.0
0.055,-15616.0,-4288.0,3328.0
0.0575,-15680.0,-4288.0,3392.0
0.06,-15680.0,-4288.0,3392.0
0.0625,-15680.0,-4288.0,3392.0
0.065,-15680.0,-4288.0,3328.0
0.0675,-15744.0,-4288.0,3328.0
0.07,-15680.0,-4352.0,3392.0
0.0725,-15680.0,-4352.0,3328.0
0.075,-15680.0,-4352.0,3328.0
0.0775,-15616.0,-4352.0,3392.0
0.08,-15744.0,-4352.0,3392.0
0.0825,-15616.0,-4288.0,3456.0
0.085,-15616.0,-4352.0,3328.0
0.0875,-15616.0,-4288.0,3392.0
0.09,-15616.0,-4352.0,3456.0
0.0925,-15680.0,-4352.0,3520.0
0.095,-15616.0,-4352.0,3456.0
0.0975,-15616.0,-4352.0,3456.0
0.1,-15616.0,-4352.0,3584.0
0.1025,-15616.0,-4352.0,3520.0
0.105,-15616.0,-4352.0,3520.0
0.1075,-15616.0,-4416.0,3456.0
0.11,-15616.0,-4288.0,3392.0
0.1125,-15552.0,-4288.0,3456.0
0.115,-15616.0,-4352.0,3456.0
0.1175,-15616.0,-4352.0,3392.0
0.12,-15616.0,-4288.0,3392.0
0.1225,-15552.0,-4288.0,3520.0
0.125,-15552.0,-4288.0,3520.0
0.1275,-15552.0,-4352.0,3520.0
0.13,-15552.0,-4288.0,3456.0
0.1325,-15616.0,-4288.0,3456.0
0.135,-15616.0,-4288.0,3456.0
0.1375,-15680.0,-4288.0,3456.0
0.14,-15616.0,-4288.0,3456.0
0.1425,-15616.0,-4288.0,3392.0
0.145,-15680.0,-4288.0,3392.0
0.1475,-15680.0,-4288.0,3392.0
0.15,-15680.0,-4288.0,3456.0
0.1525,-15680.0,-4288.0,3392.0
0.155,-15680.0,-4288.0,3456.0
0.1575,-15680.0,-4288.0,3456.0
0.16,-15744.0,-4288.0,3456.0
0.1625,-15680.0,-4224.0,3392.0
0.165,-15680.0,-4224.0,3392.0
0.1675,-15680.0,-4224.0,3392.0
0.17,-15744.0,-4224.0,3392.0
0.1725,-15744.0,-4288.0,3392.0
0.175,-15680.0,-4288.0,3456.0
0.1775,-15680.0,-4224.0,3456.0
0.18,-15680.0,-4224.0,3456.0
0.1825,-15680.0,-4224.0,3456.0
0.185,-15744.0,-4224.0,3456.0
0.1875,-15808.0,-4288.0,3520.0
0.19,-15680.0,-4224.0,3456.0
0.1925,-15680.0,-4288.0,3456.0
0.195,-15744.0,-4288.0,3456.0
0.1975,-15744.0,-4288.0,3392.0
0.2,-15680.0,-4224.0,3392.0
0.2025,-15744.0,-4224.0,3392.0
0.205,-15808.0,-4224.0,3392.0
0.2075,-15808.0,-4224.0,3392.0
0.21,-15744.0,-4288.0,3328.0
0.2125,-15744.0,-4288.0,3392.0
0.215,-15744.0,-4288.0,3456.0
0.2175,-15744.0,-4352.0,3392.0
0.22,-15744.0,-4288.0,3328.0
0.2225,-15680.0,-4352.0,3392.0
0.225,-15680.0,-4352.0,3392.0
0.2275,-15680.0,-4352.0,3456.0
0.23,-15744.0,-4288.0,3392.0
0.2325,-15680.0,-4352.0,3392.0
0.235,-15680.0,-4288.0,3392.0
0.2375,-15616.0,-4288.0,3392.0
0.24,-15616.0,-4288.0,3392.0
0.2425,-15680.0,-4224.0,3392.0
0.245,-15680.0,-4288.0,3392.0
0.2475,-15616.0,-4288.0,3328.0
0.25,-15616.0,-4224.0,3392.0
0.2525,-15680.0,-4288.0,3392.0
0.255,-15680.0,-4288.0,3392.0
0.2575,-15680.0,-4288.0,3456.0
0.26,-15680.0,-4288.0,3456.0
0.2625,-15616.0,-4288.0,3456.0
0.265,-15616.0,-4288.0,3456.0
0.2675,-15616.0,-4288.0,3392.0
0.27,-15616.0,-4288.0,3456.0
0.2725,-15616.0,-4224.0,3392.0
0.275,-15616.0,-4224.0,3392.0
0.2775,-15616.0,-4224.0,3392.0
0.28,-15680.0,-4288.0,3328.0
0.2825,-15616.0,-4288.0,3328.0
0.285,-15616.0,-4288.0,3328.0
0.2875,-15616.0,-4288.0,3392.0
0.29,-15616.0,-4224.0,3392.0
0.2925,-15680.0,-4224.0,3392.0
0.295,-15616.0,-4224.0,3392.0
0.2975,-15616.0,-4224.0,3392.0
0.3,-15680.0,-4224.0,3456.0
0.3025,-15680.0,-4224.0,3456.0
0.305,-15616.0,-4224.0,3392.0
0.3075,-15616.0,-4288.0,3328.0
0.31,-15680.0,-4224.0,3392.0
0.3125,-15616.0,-4288.0,3392.0
0.315,-15680.0,-4224.0,3392.0
0.3175,-15680.0,-4288.0,3328.0
0.32,-15680.0,-4288.0,3456.0
0.3225,-15616.0,-4288.0,3392.0
0.325,-15616.0,-4288.0,3264.0
0.3275,-15680.0,-4288.0,3392.0
0.33,-15680.0,-4288.0,3328.0
0.3325,-15680.0,-4224.0,3392.0
0.335,-15680.0,-4224.0,3456.0
0.3375,-15680.0,-4288.0,3392.0
0.34,-15744.0,-4288.0,3392.0
0.3425,-15744.0,-4224.0,3328.0
0.345,-15744.0,-4224.0,3264.0
0.3475,-15808.0,-4288.0,3328.0
0.35,-15808.0,-4288.0,3328.0
0.3525,-15744.0,-4288.0,3328.0
0.355,-15744.0,-4288.0,3392.0
0.3575,-15744.0,-4224.0,3392.0
0.36,-15744.0,-4224.0,3392.0
0.3625,-15680.0,-4224.0,3328.0
0.365,-15680.0,-4288.0,3392.0
0.3675,-15744.0,-4288.0,3328.0
0.37,-15680.0,-4288.0,3456.0
0.3725,-15680.0,-4288.0,3456.0
0.375,-15680.0,-4352.0,3392.0
0.3775,-15680.0,-4288.0,3392.0
0.38,-15680.0,-4288.0,3328.0
0.3825,-15680.0,-4288.0,3328.0
0.385,-15680.0,-4288.0,3328.0
0.3875,-15680.0,-4288.0,3456.0
0.39,-15680.0,-4224.0,3392.0
0.3925,-15616.0,-4224.0,3328.0
0.395,-15616.0,-4288.0,3392.0
0.3975,-15616.0,-4288.0,3392.0
0.4,-15680.0,-4288.0,3328.0
0.4025,-15616.0,-4224.0,3328.0
0.405,-15616.0,-4224.0,3392.0
0.4075,-15680.0,-4288.0,3328.0
0.41,-15616.0,-4288.0,3328.0
0.4125,-15616.0,-4288.0,3392.0
0.415,-15680.0,-4288.0,3392.0
0.4175,-15680.0,-4224.0,3328.0
0.42,-15680.0,-4288.0,3328.0
0.4225,-15680.0,-4288.0,3328.0
0.425,-15680.0,-4288.0,3456.0
0.4275,-15680.0,-4288.0,3392.0
0.43,-15616.0,-4288.0,3264.0
0.4325,-15616.0,-4224.0,3328.0
0.435,-15680.0,-4224.0,3328.0
0.4375,-15680.0,-4224.0,3328.0
0.44,-15680.0,-4224.0,3328.0
0.4425,-15680.0,-4288.0,3328.0
0.445,-15680.0,-4288.0,3392.0
0.4475,-15680.0,-4224.0,3328.0
0.45,-15616.0,-4288.0,3328.0
0.4525,-15680.0,-4224.0,3392.0
0.455,-15744.0,-4224.0,3328.0
0.4575,-15744.0,-4224.0,3264.0
0.46,-15680.0,-4288.0,3264.0
0.4625,-15680.0,-4288.0,3264.0
0.465,-15744.0,-4288.0,3328.0
0.4675,-15744.0,-4288.0,3328.0
0.47,-15744.0,-4288.0,3264.0
0.4725,-15744.0,-4288.0,3264.0
0.475,-15744.0,-4352.0,3264.0
0.4775,-15744.0,-4352.0,3264.0
0.48,-15680.0,-4288.0,3264.0
0.4825,-15680.0,-4288.0,3264.0
0.485,-15680.0,-4288.0,3264.0
0.4875,-15680.0,-4288.0,3264.0
0.49,-15680.0,-4288.0,3200.0
0.4925,-15744.0,-4352.0,3328.0
0.495,-15744.0,-4352.0,3264.0
0.4975,-15680.0,-4288.0,3264.0
0.5,-15680.0,-4288.0,3328.0
0.5025,-15680.0,-4288.0,3200.0
0.505,-15680.0,-4288.0,3200.0
0.5075,-15744.0,-4288.0,3200.0
0.51,-15680.0,-4352.0,3264.0
0.5125,-15680.0,-4288.0,3200.0
0.515,-15616.0,-4288.0,3328.0
0.5175,-15680.0,-4288.0,3328.0
0.52,-15680.0,-4352.0,3392.0
0.5225,-15680.0,-4352.0,3392.0
0.525,-15680.0,-4352.0,3392.0
0.5275,-15616.0,-4352.0,3328.0
0.53,-15616.0,-4352.0,3392.0
0.5325,-15616.0,-4352.0,3328.0
0.535,-15616.0,-4352.0,3328.0
0.5375,-15616.0,-4352.0,3392.0
0.54,-15616.0,-4416.0,3392.0
0.5425,-15552.0,-4352.0,3392.0
0.545,-15616.0,-4352.0,3392.0
0.5475,-15552.0,-4288.0,3328.0
0.55,-15552.0,-4352.0,3392.0
0.5525,-15552.0,-4288.0,3392.0
0.555,-15552.0,-4352.0,3392.0
0.5575,-15552.0,-4288.0,3328.0
0.56,-15552.0,-4416.0,3264.0
0.5625,-15552.0,-4352.0,3328.0
0.565,-15488.0,-4352.0,3200.0
0.5675,-15488.0,-4352.0,3264.0
0.57,-15488.0,-4352.0,3328.0
0.5725,-15488.0,-4224.0,3392.0
0.575,-15488.0,-4288.0,3392.0
0.5775,-15488.0,-4288.0,3328.0
0.58,-15488.0,-4288.0,3328.0
0.5825,-15488.0,-4288.0,3392.0
0.585,-15488.0,-4288.0,3456.0
0.5875,-15552.0,-4288.0,3456.0
0.59,-15488.0,-4288.0,3456.0
0.5925,-15488.0,-4288.0,3392.0
0.595,-15552.0,-4288.0,3328.0
0.5975,-15552.0,-4288.0,3328.0
0.6,-15552.0,-4352.0,3264.0
0.6025,-15552.0,-4288.0,3264.0
0.605,-15616.0,-4352.0,3264.0
0.6075,-15616.0,-4288.0,3392.0
0.61,-15680.0,-4288.0,3328.0
0.6125,-15680.0,-4224.0,3328.0
0.615,-15616.0,-4224.0,3264.0
0.6175,-15680.0,-4288.0,3264.0
0.62,-15680.0,-4288.0,3264.0
0.6225,-15680.0,-4288.0,3264.0
0.625,-15680.0,-4288.0,3264.0
0.6275,-15744.0,-4288.0,3328.0
0.63,-15744.0,-4288.0,3328.0
0.6325,-15744.0,-4288.0,3392.0
0.635,-15744.0,-4288.0,3392.0
0.6375,-15744.0,-4288.0,3392.0
0.64,-15808.0,-4288.0,3264.0
0.6425,-15744.0,-4288.0,3200.0
0.645,-15808.0,-4288.0,3136.0
0.6475,-15744.0,-4288.0,3264.0
0.65,-15808.0,-4352.0,3200.0
0.6525,-15808.0,-4352.0,3328.0
0.655,-15744.0,-4352.0,3264.0
0.6575,-15744.0,-4288.0,3264.0
0.66,-15744.0,-4288.0,3264.0
0.6625,-15744.0,-4288.0,3328.0
0.665,-15680.0,-4288.0,3264.0
0.6675,-15744.0,-4288.0,3200.0
0.67,-15680.0,-4352.0,3264.0
0.6725,-15680.0,-4352.0,3200.0
0.675,-15680.0,-4288.0,3200.0
0.6775,-15680.0,-4288.0,3264.0
0.68,-15680.0,-4288.0,3264.0
0.6825,-15680.0,-4288.0,3264.0
0.685,-15680.0,-4352.0,3264.0
0.6875,-15680.0,-4352.0,3200.0
0.69,-15616.0,-4352.0,3200.0
0.6925,-15680.0,-4416.0,3200.0
0.695,-15680.0,-4352.0,3200.0
0.6975,-15680.0,-4416.0,3264.0
0.7,-15616.0,-4352.0,3264.0
0.7025,-15616.0,-4352.0,3328.0
0.705,-15616.0,-4416.0,3328.0
0.7075,-15616.0,-4352.0,3328.0
0.71,-15616.0,-4352.0,3392.0
0.7125,-15616.0,-4352.0,3456.0
0.715,-15616.0,-4352.0,3392.0
0.7175,-15616.0,-4352.0,3392.0
0.72,-15680.0,-4352.0,3328.0
0.7225,-15680.0,-4352.0,3328.0
0.725,-15616.0,-4416.0,3328.0
0.7275,-15616.0,-4416.0,3328.0
0.73,-15616.0,-4352.0,3392.0
0.7325,-15616.0,-4352.0,3328.0
0.735,-15616.0,-4352.0,3328.0
0.7375,-15680.0,-4352.0,3328.0
0.74,-15680.0,-4352.0,3328.0
0.7425,-15680.0,-4352.0,3264.0
0.745,-15616.0,-4352.0,3264.0
0.7475,-15616.0,-4288.0,3264.0
0.75,-15680.0,-4288.0,3328.0
0.7525,-15680.0,-4288.0,3328.0
0.755,-15680.0,-4288.0,3392.0
0.7575,-15680.0,-4352.0,3456.0
0.76,-15616.0,-4352.0,3392.0
0.7625,-15680.0,-4352.0,3328.0
0.765,-15616.0,-4352.0,3392.0
0.7675,-15680.0,-4352.0,3456.0
0.77,-15680.0,-4288.0,3392.0
0.7725,-15680.0,-4288.0,3392.0
0.775,-15680.0,-4288.0,3392.0
0.7775,-15680.0,-4288.0,3392.0
0.78,-15744.0,-4288.0,3392.0
0.7825,-15680.0,-4352.0,3392.0
0.785,-15680.0,-4352.0,3456.0
0.7875,-15680.0,-4288.0,3456.0
0.79,-15616.0,-4352.0,3456.0
0.7925,-15680.0,-4352.0,3456.0
0.795,-15744.0,-4352.0,3392.0
0.7975,-15680.0,-4352.0,3392.0
0.8,-15680.0,-4352.0,3456.0
0.8025,-15680.0,-4352.0,3392.0
0.805,-15744.0,-4288.0,3392.0
0.8075,-15680.0,-4288.0,3264.0
0.81,-15680.0,-4288.0,3392.0
0.8125,-15808.0,-4288.0,3328.0
0.815,-15808.0,-4352.0,3328.0
0.8175,-15744.0,-4288.0,3328.0
0.82,-15680.0,-4288.0,3456.0
0.8225,-15744.0,-4288.0,3456.0
0.825,-15744.0,-4288.0,3584.0
0.8275,-15744.0,-4288.0,3456.0
0.83,-15680.0,-4288.0,3392.0
0.8325,-15680.0,-4288.0,3456.0
0.835,-15744.0,-4288.0,3456.0
0.8375,-15744.0,-4288.0,3520.0
0.84,-15744.0,-4288.0,3520.0
0.8425,-15744.0,-4288.0,3520.0
0.845,-15616.0,-4224.0,3456.0
0.8475,-15680.0,-4288.0,3584.0
0.85,-15680.0,-4352.0,3456.0
0.8525,-15680.0,-4288.0,3520.0
0.855,-15680.0,-4288.0,3456.0
0.8575,-15616.0,-4352.0,3456.0
0.86,-15680.0,-4288.0,3456.0
0.8625,-15680.0,-4352.0,3456.0
0.865,-15744.0,-4288.0,3520.0
0.8675,-15680.0,-4288.0,3584.0
0.87,-15616.0,-4288.0,3520.0
0.8725,-15680.0,-4288.0,3520.0
0.875,-15680.0,-4288.0,3520.0
0.8775,-15680.0,-4224.0,3456.0
0.88,-15552.0,-4224.0,3520.0
0.8825,-15552.0,-4288.0,3520.0
0.885,-15616.0,-4288.0,3456.0
0.8875,-15616.0,-4288.0,3456.0
0.89,-15616.0,-4288.0,3456.0
0.8925,-15680.0,-4288.0,3392.0
0.895,-15616.0,-4288.0,3392.0
0.8975,-15616.0,-4352.0,3456.0
0.9,-15616.0,-4288.0,3456.0
0.9025,-15616.0,-4352.0,3392.0
0.905,-15616.0,-4352.0,3392.0
0.9075,-15552.0,-4352.0,3392.0
0.91,-15616.0,-4352.0,3456.0
0.9125,-15552.0,-4352.0,3520.0
0.915,-15552.0,-4288.0,3456.0
0.9175,-15616.0,-4352.0,3456.0
0.92,-15552.0,-4288.0,3456.0
0.9225,-15552.0,-4288.0,3456.0
0.925,-15616.0,-4288.0,3456.0
0.9275,-15616.0,-4288.0,3456.0
0.93,-15616.0,-4288.0,3456.0
0.9325,-15616.0,-4288.0,3456.0
0.935,-15616.0,-4288.0,3520.0
0.9375,-15552.0,-4288.0,3456.0
0.94,-15616.0,-4288.0,3392.0
0.9425,-15744.0,-4288.0,3456.0
0.945,-15808.0,-4352.0,3456.0
0.9475,-15680.0,-4288.0,3456.0
0.95,-15680.0,-4352.0,3456.0
0.9525,-15616.0,-4288.0,3456.0
0.955,-15616.0,-4288.0,3456.0
0.9575,-15616.0,-4288.0,3392.0
0.96,-15680.0,-4288.0,3456.0
0.9625,-15680.0,-4288.0,3392.0
0.965,-15680.0,-4288.0,3456.0
0.9675,-15744.0,-4352.0,3456.0
0.97,-15744.0,-4352.0,3456.0
0.9725,-15744.0,-4352.0,3392.0
0.975,-15744.0,-4416.0,3456.0
0.9775,-15616.0,-4352.0,3328.0
0.98,-15680.0,-4352.0,3328.0
0.9825,-15744.0,-4352.0,3328.0
0.985,-15680.0,-4352.0,3392.0
0.9875,-15744.0,-4288.0,3456.0
0.99,-15680.0,-4352.0,3456.0
0.9925,-15680.0,-4288.0,3456.0
0.995,-15680.0,-4288.0,3392.0
0.9975,-15616.0,-4288.0,3392.0
1.0,-15680.0,-4224.0,3456.0
1.0025,-15680.0,-4288.0,3392.0
1.005,-15744.0,-4288.0,3392.0
1.0075,-15680.0,-4288.0,3520.0
1.01,-15680.0,-4288.0,3392.0
1.0125,-15616.0,-4288.0,3456.0
1.015,-15680.0,-4352.0,3392.0
1.0175,-15616.0,-4288.0,3392.0
1.02,-15616.0,-4288.0,3456.0
1.0225,-15616.0,-4288.0,3392.0
1.025,-15680.0,-4352.0,3392.0
1.0275,-15680.0,-4288.0,3392.0
1.03,-15680.0,-4288.0,3392.0
1.0325,-15680.0,-4288.0,3392.0
1.035,-15616.0,-4352.0,3392.0
1.0375,-15616.0,-4352.0,3456.0
1.04,-15552.0,-4352.0,3456.0
1.0425,-15616.0,-4288.0,3328.0
1.045,-15616.0,-4288.0,3328.0
1.0475,-15616.0,-4288.0,3328.0
1.05,-15616.0,-4288.0,3456.0
1.0525,-15616.0,-4288.0,3456.0
1.055,-15616.0,-4288.0,3392.0
1.0575,-15680.0,-4352.0,3392.0
1.06,-15616.0,-4352.0,3392.0
1.0625,-15616.0,-4352.0,3392.0
1.065,-15616.0,-4352.0,3392.0
1.0675,-15616.0,-4352.0,3264.0
1.07,-15552.0,-4352.0,3328.0
1.0725,-15616.0,-4288.0,3264.0
1.075,-15616.0,-4352.0,3328.0
1.0775,-15616.0,-4352.0,3264.0
1.08,-15616.0,-4352.0,3328.0
1.0825,-15616.0,-4352.0,3392.0
1.085,-15552.0,-4352.0,3328.0
1.0875,-15616.0,-4416.0,3328.0
1.09,-15616.0,-4288.0,3328.0
1.0925,-15616.0,-4352.0,3392.0
1.095,-15616.0,-4352.0,3392.0
1.0975,-15616.0,-4352.0,3328.0
1.1,-15616.0,-4352.0,3392.0
1.1025,-15616.0,-4288.0,3328.0
1.105,-15616.0,-4352.0,3328.0
1.1075,-15680.0,-4352.0,3392.0
1.11,-15744.0,-4352.0,3392.0
1.1125,-15744.0,-4352.0,3328.0
1.115,-15680.0,-4352.0,3392.0
1.1175,-15744.0,-4352.0,3328.0
1.12,-15744.0,-4352.0,3392.0
1.1225,-15744.0,-4352.0,3328.0
1.125,-15680.0,-4288.0,3392.0
1.1275,-15744.0,-4352.0,3328.0
1.13,-15616.0,-4352.0,3264.0
1.1325,-15680.0,-4352.0,3328.0
1.135,-15680.0,-4352.0,3392.0
1.1375,-15680.0,-4288.0,3328.0
1.14,-15680.0,-4288.0,3392.0
1.1425,-15616.0,-4352.0,3392.0
1.145,-15616.0,-4352.0,3392.0
1.1475,-15680.0,-4352.0,3328.0
1.15,-15616.0,-4288.0,3328.0
1.1525,-15616.0,-4288.0,3264.0
1.155,-15680.0,-4352.0,3328.0
1.1575,-15616.0,-4352.0,3328.0
1.16,-15680.0,-4352.0,3328.0
1.1625,-15680.0,-4352.0,3328.0
1.165,-15680.0,-4352.0,3264.0
1.1675,-15744.0,-4352.0,3328.0
1.17,-15744.0,-4352.0,3392.0
1.1725,-15680.0,-4352.0,3264.0
1.175,-15680.0,-4352.0,3328.0
1.1775,-15680.0,-4352.0,3328.0
1.18,-15680.0,-4352.0,3392.0
1.1825,-15680.0,-4352.0,3392.0
1.185,-15616.0,-4352.0,3456.0
1.1875,-15680.0,-4352.0,3392.0
1.19,-15616.0,-4352.0,3392.0
1.1925,-15616.0,-4352.0,3456.0
1.195,-15616.0,-4352.0,3392.0
1.1975,-15616.0,-4352.0,3456.0
1.2,-15552.0,-4352.0,3456.0
1.2025,-15488.0,-4416.0,3520.0
1.205,-15488.0,-4352.0,3520.0
1.2075,-15488.0,-4352.0,3456.0
1.21,-15552.0,-4352.0,3392.0
1.2125,-15552.0,-4352.0,3456.0
1.215,-15552.0,-4416.0,3392.0
1.2175,-15552.0,-4416.0,3392.0
1.22,-15488.0,-4416.0,3456.0
1.2225,-15488.0,-4352.0,3392.0
1.225,-15488.0,-4352.0,3328.0
1.2275,-15424.0,-4352.0,3264.0
1.23,-15488.0,-4352.0,3264.0
1.2325,-15424.0,-4352.0,3328.0
1.235,-15488.0,-4352.0,3328.0
1.2375,-15488.0,-4352.0,3328.0
1.24,-15488.0,-4352.0,3328.0
1.2425,-15488.0,-4352.0,3328.0
1.245,-15488.0,-4352.0,3264.0
1.2475,-15488.0,-4288.0,3392.0
1.25,-15424.0,-4288.0,3392.0
1.2525,-15488.0,-4352.0,3456.0
1.255,-15552.0,-4352.0,3392.0
1.2575,-15488.0,-4288.0,3328.0
1.26,-15488.0,-4288.0,3328.0
1.2625,-15488.0,-4288.0,3392.0
1.265,-15488.0,-4352.0,3264.0
1.2675,-15488.0,-4352.0,3264.0
1.27,-15488.0,-4352.0,3328.0
1.2725,-15552.0,-4416.0,3328.0
1.275,-15616.0,-4352.0,3264.0
1.2775,-15552.0,-4352.0,3264.0
1.28,-15616.0,-4480.0,3328.0
1.2825,-15616.0,-4416.0,3328.0
1.285,-15616.0,-4416.0,3328.0
1.2875,-15616.0,-4416.0,3200.0
1.29,-15680.0,-4416.0,3264.0
1.2925,-15680.0,-4416.0,3264.0
1.295,-15680.0,-4480.0,3328.0
1.2975,-15680.0,-4416.0,3328.0
1.3,-15680.0,-4480.0,3328.0
1.3025,-15680.0,-4480.0,3264.0
1.305,-15680.0,-4416.0,3264.0
1.3075,-15680.0,-4416.0,3328.0
1.31,-15744.0,-4416.0,3328.0
1.3125,-15744.0,-4416.0,3264.0
1.315,-15808.0,-4416.0,3264.0
1.3175,-15808.0,-4416.0,3264.0
1.32,-15744.0,-4416.0,3264.0
1.3225,-15744.0,-4416.0,3264.0
1.325,-15744.0,-4416.0,3328.0
1.3275,-15680.0,-4416.0,3328.0
1.33,-15680.0,-4416.0,3328.0
1.3325,-15680.0,-4480.0,3328.0
1.335,-15616.0,-4416.0,3392.0
1.3375,-15680.0,-4480.0,3392.0
1.34,-15680.0,-4544.0,3328.0
1.3425,-15680.0,-4544.0,3328.0
1.345,-15680.0,-4480.0,3328.0
1.3475,-15680.0,-4480.0,3392.0
1.35,-15680.0,-4480.0,3328.0
1.3525,-15680.0,-4416.0,3264.0
1.355,-15680.0,-4416.0,3264.0
1.3575,-15616.0,-4480.0,3328.0
1.36,-15680.0,-4480.0,3264.0
1.3625,-15616.0,-4480.0,3200.0
1.365,-15616.0,-4480.0,3264.0
1.3675,-15616.0,-4544.0,3200.0
1.37,-15616.0,-4544.0,3264.0
1.3725,-15744.0,-4480.0,3328.0
1.375,-15680.0,-4480.0,3328.0
1.3775,-15616.0,-4480.0,3328.0
1.38,-15616.0,-4480.0,3200.0
1.3825,-15616.0,-4544.0,3328.0
1.385,-15680.0,-4480.0,3328.0
1.3875,-15616.0,-4480.0,3328.0
1.39,-15552.0,-4480.0,3328.0
1.3925,-15616.0,-4480.0,3264.0
1.395,-15680.0,-4480.0,3328.0
1.3975,-15552.0,-4416.0,3328.0
1.4,-15616.0,-4416.0,3392.0
1.4025,-15616.0,-4480.0,3328.0
1.405,-15616.0,-4416.0,3328.0
1.4075,-15680.0,-4416.0,3392.0
1.41,-15680.0,-4416.0,3456.0
1.4125,-15616.0,-4480.0,3328.0
1.415,-15552.0,-4480.0,3392.0
1.4175,-15616.0,-4480.0,3456.0
1.42,-15552.0,-4416.0,3456.0
1.4225,-15552.0,-4480.0,3520.0
1.425,-15552.0,-4416.0,3456.0
1.4275,-15552.0,-4480.0,3456.0
1.43,-15616.0,-4480.0,3456.0
1.4325,-15552.0,-4480.0,3392.0
1.435,-15552.0,-4416.0,3456.0
1.4375,-15616.0,-4480.0,3456.0
1.44,-15552.0,-4352.0,3392.0
1.4425,-15552.0,-4416.0,3456.0
1.445,-15552.0,-4416.0,3328.0
1.4475,-15552.0,-4352.0,3392.0
1.45,-15552.0,-4416.0,3456.0
1.4525,-15552.0,-4352.0,3392.0
1.455,-15552.0,-4416.0,3456.0
1.4575,-15552.0,-4416.0,3456.0
1.46,-15616.0,-4416.0,3520.0
1.4625,-15552.0,-4480.0,3520.0
1.465,-15488.0,-4480.0,3392.0
1.4675,-15552.0,-4352.0,3456.0
1.47,-15552.0,-4416.0,3456.0
1.4725,-15616.0,-4416.0,3520.0
1.475,-15616.0,-4416.0,3456.0
1.4775,-15616.0,-4480.0,3392.0
1.48,-15616.0,-4352.0,3520.0
1.4825,-15680.0,-4416.0,3456.0
1.485,-15616.0,-4416.0,3456.0
1.4875,-15616.0,-4416.0,3520.0
1.49,-15616.0,-4416.0,3456.0
1.4925,-15616.0,-4416.0,3456.0
1.495,-15552.0,-4480.0,3520.0
1.4975,-15616.0,-4416.0,3456.0
1.5,-15616.0,-4416.0,3520.0
1.5025,-15616.0,-4480.0,3456.0
1.505,-15680.0,-4416.0,3520.0
1.5075,-15680.0,-4480.0,3456.0
1.51,-15680.0,-4480.0,3456.0
1.5125,-15616.0,-4480.0,3456.0
1.515,-15616.0,-4480.0,3456.0
1.5175,-15616.0,-4480.0,3456.0
1.52,-15616.0,-4480.0,3520.0
1.5225,-15552.0,-4480.0,3584.0
1.525,-15552.0,-4416.0,3456.0
1.5275,-15616.0,-4480.0,3392.0
1.53,-15616.0,-4416.0,3456.0
1.5325,-15680.0,-4416.0,3520.0
1.535,-15680.0,-4416.0,3520.0
1.5375,-15680.0,-4416.0,3584.0
1.54,-15616.0,-4416.0,3392.0
1.5425,-15616.0,-4352.0,3456.0
1.545,-15616.0,-4416.0,3456.0
1.5475,-15616.0,-4416.0,3392.0
1.55,-15616.0,-4480.0,3456.0
1.5525,-15680.0,-4480.0,3520.0
1.555,-15616.0,-4480.0,3520.0
1.5575,-15616.0,-4480.0,3456.0
1.56,-15680.0,-4480.0,3520.0
1.5625,-15680.0,-4416.0,3456.0
1.565,-15616.0,-4416.0,3520.0
1.5675,-15616.0,-4480.0,3520.0
1.57,-15552.0,-4416.0,3520.0
1.5725,-15616.0,-4480.0,3520.0
1.575,-15616.0,-4480.0,3520.0
1.5775,-15552.0,-4480.0,3456.0
1.58,-15552.0,-4480.0,3456.0
1.5825,-15488.0,-4480.0,3392.0
1.585,-15552.0,-4480.0,3392.0
1.5875,-15552.0,-4480.0,3456.0
1.59,-15552.0,-4416.0,3328.0
1.5925,-15552.0,-4416.0,3392.0
1.595,-15552.0,-4416.0,3392.0
1.5975,-15616.0,-4416.0,3520.0
1.6,-15616.0,-4416.0,3520.0
1.6025,-15616.0,-4480.0,3456.0
1.605,-15616.0,-4480.0,3328.0
1.6075,-15552.0,-4416.0,3392.0
1.61,-15488.0,-4480.0,3456.0
1.6125,-15552.0,-4480.0,3456.0
1.615,-15616.0,-4480.0,3520.0
1.6175,-15680.0,-4416.0,3520.0
1.62,-15616.0,-4416.0,3456.0
1.6225,-15552.0,-4416.0,3456.0
1.625,-15616.0,-4416.0,3456.0
1.6275,-15552.0,-4480.0,3456.0
1.63,-15680.0,-4480.0,3520.0
1.6325,-15680.0,-4480.0,3392.0
1.635,-15616.0,-4480.0,3328.0
1.6375,-15616.0,-4480.0,3392.0
1.64,-15616.0,-4416.0,3328.0
1.6425,-15616.0,-4416.0,3328.0
1.645,-15616.0,-4416.0,3392.0
1.6475,-15552.0,-4416.0,3392.0
1.65,-15616.0,-4352.0,3392.0
1.6525,-15552.0,-4416.0,3392.0
1.655,-15552.0,-4416.0,3456.0
1.6575,-15616.0,-4416.0,3328.0
1.66,-15616.0,-4416.0,3328.0
1.6625,-15552.0,-4416.0,3392.0
1.665,-15616.0,-4416.0,3456.0
1.6675,-15552.0,-4416.0,3456.0
1.67,-15616.0,-4352.0,3328.0
1.6725,-15616.0,-4352.0,3392.0
1.675,-15616.0,-4416.0,3392.0
1.6775,-15616.0,-4416.0,3328.0
1.68,-15552.0,-4416.0,3392.0
1.6825,-15552.0,-4416.0,3456.0
1.685,-15552.0,-4352.0,3328.0
1.6875,-15616.0,-4416.0,3328.0
1.69,-15616.0,-4352.0,3456.0
1.6925,-15616.0,-4416.0,3456.0
1.695,-15616.0,-4416.0,3456.0
1.6975,-15616.0,-4416.0,3520.0
1.7,-15616.0,-4416.0,3456.0
1.7025,-15552.0,-4416.0,3392.0
1.705,-15616.0,-4416.0,3392.0
1.7075,-15616.0,-4416.0,3456.0
1.71,-15616.0,-4352.0,3392.0
1.7125,-15552.0,-4352.0,3392.0
1.715,-15616.0,-4352.0,3392.0
1.7175,-15616.0,-4416.0,3392.0
1.72,-15616.0,-4352.0,3392.0
1.7225,-15552.0,-4416.0,3392.0
1.725,-15616.0,-4352.0,3392.0
1.7275,-15552.0,-4352.0,3392.0
1.73,-15616.0,-4352.0,3456.0
1.7325,-15616.0,-4416.0,3392.0
1.735,-15616.0,-4416.0,3328.0
1.7375,-15616.0,-4480.0,3392.0
1.74,-15616.0,-4416.0,3328.0
1.7425,-15616.0,-4416.0,3328.0
1.745,-15616.0,-4416.0,3392.0
1.7475,-15616.0,-4416.0,3456.0
1.75,-15552.0,-4352.0,3456.0
1.7525,-15616.0,-4352.0,3456.0
1.755,-15616.0,-4352.0,3456.0
1.7575,-15552.0,-4416.0,3392.0
1.76,-15616.0,-4416.0,3328.0
1.7625,-15552.0,-4416.0,3328.0
1.765,-15552.0,-4416.0,3328.0
1.7675,-15616.0,-4352.0,3392.0
1.77,-15616.0,-4352.0,3392.0
1.7725,-15616.0,-4352.0,3456.0
1.775,-15552.0,-4352.0,3392.0
1.7775,-15616.0,-4352.0,3392.0
1.78,-15552.0,-4352.0,3392.0
1.7825,-15552.0,-4352.0,3328.0
1.785,-15552.0,-4352.0,3456.0
1.7875,-15552.0,-4352.0,3392.0
1.79,-15616.0,-4352.0,3392.0
1.7925,-15616.0,-4352.0,3328.0
1.795,-15616.0,-4352.0,3456.0
1.7975,-15552.0,-4352.0,3392.0
1.8,-15616.0,-4352.0,3328.0
1.8025,-15616.0,-4416.0,3392.0
1.805,-15616.0,-4352.0,3392.0
1.8075,-15616.0,-4352.0,3328.0
1.81,-15616.0,-4352.0,3328.0
1.8125,-15744.0,-4352.0,3264.0
1.815,-15680.0,-4352.0,3264.0
1.8175,-15680.0,-4352.0,3328.0
1.82,-15680.0,-4352.0,3328.0
1.8225,-15680.0,-4352.0,3392.0
1.825,-15680.0,-4288.0,3456.0
1.8275,-15680.0,-4288.0,3392.0
1.83,-15680.0,-4288.0,3328.0
1.8325,-15680.0,-4352.0,3392.0
1.835,-15680.0,-4352.0,3392.0
1.8375,-15680.0,-4416.0,3328.0
1.84,-15680.0,-4352.0,3392.0
1.8425,-15680.0,-4416.0,3392.0
1.845,-15680.0,-4480.0,3392.0
1.8475,-15616.0,-4416.0,3328.0
1.85,-15680.0,-4352.0,3328.0
1.8525,-15680.0,-4416.0,3328.0
1.855,-15616.0,-4352.0,3392.0
1.8575,-15680.0,-4352.0,3392.0
1.86,-15616.0,-4352.0,3392.0
1.8625,-15616.0,-4288.0,3392.0
1.865,-15680.0,-4288.0,3456.0
1.8675,-15680.0,-4288.0,3328.0
1.87,-15744.0,-4288.0,3456.0
1.8725,-15744.0,-4352.0,3520.0
1.875,-15616.0,-4288.0,3520.0
1.8775,-15616.0,-4352.0,3456.0
1.88,-15616.0,-4352.0,3456.0
1.8825,-15616.0,-4416.0,3520.0
1.885,-15616.0,-4352.0,3584.0
1.8875,-15616.0,-4416.0,3520.0
1.89,-15616.0,-4416.0,3520.0
1.8925,-15616.0,-4416.0,3520.0
1.895,-15616.0,-4416.0,3520.0
1.8975,-15552.0,-4352.0,3456.0
1.9,-15616.0,-4352.0,3456.0
1.9025,-15552.0,-4416.0,3456.0
1.905,-15616.0,-4416.0,3456.0
1.9075,-15616.0,-4352.0,3456.0
1.91,-15552.0,-4352.0,3456.0
1.9125,-15552.0,-4352.0,3456.0
1.915,-15488.0,-4288.0,3392.0
1.9175,-15488.0,-4352.0,3392.0
1.92,-15552.0,-4416.0,3392.0
1.9225,-15488.0,-4352.0,3392.0
1.925,-15488.0,-4352.0,3392.0
1.9275,-15424.0,-4416.0,3328.0
1.93,-15488.0,-4416.0,3392.0
1.9325,-15488.0,-4352.0,3392.0
1.935,-15424.0,-4416.0,3456.0
1.9375,-15424.0,-4416.0,3392.0
1.94,-15424.0,-4416.0,3328.0
1.9425,-15424.0,-4416.0,3392.0
1.945,-15488.0,-4352.0,3328.0
1.9475,-15488.0,-4416.0,3392.0
1.95,-15488.0,-4352.0,3456.0
1.9525,-15488.0,-4352.0,3456.0
1.955,-15488.0,-4288.0,3392.0
1.9575,-15488.0,-4288.0,3392.0
1.96,-15488.0,-4288.0,3392.0
1.9625,-15552.0,-4288.0,3456.0
1.965,-15552.0,-4224.0,3456.0
1.9675,-15552.0,-4352.0,3520.0
1.97,-15552.0,-4352.0,3520.0
1.9725,-15552.0,-4352.0,3520.0
1.975,-15616.0,-4352.0,3456.0
1.9775,-15552.0,-4352.0,3456.0
1.98,-15552.0,-4352.0,3456.0
1.9825,-15616.0,-4352.0,3456.0
1.985,-15616.0,-4352.0,3456.0
1.9875,-15616.0,-4352.0,3392.0
1.99,-15616.0,-4352.0,3392.0
1.9925,-15616.0,-4416.0,3456.0
1.995,-15680.0,-4352.0,3520.0
1.9975,-15680.0,-4288.0,3456.0
2.0,-15744.0,-4352.0,3392.0
2.0025,-15744.0,-4352.0,3392.0
2.005,-15744.0,-4416.0,3328.0
2.0075,-15680.0,-4416.0,3328.0
2.01,-15680.0,-4352.0,3392.0
2.0125,-15680.0,-4416.0,3520.0
2.015,-15680.0,-4352.0,3520.0
2.0175,-15680.0,-4352.0,3520.0
2.02,-15680.0,-4352.0,3520.0
2.0225,-15680.0,-4352.0,3392.0
2.025,-15744.0,-4352.0,3456.0
2.0275,-15616.0,-4352.0,3392.0
2.03,-15616.0,-4352.0,3392.0
2.0325,-15616.0,-4352.0,3328.0
2.035,-15616.0,-4416.0,3328.0
2.0375,-15616.0,-4352.0,3328.0
2.04,-15680.0,-4416.0,3392.0
2.0425,-15616.0,-4416.0,3392.0
2.045,-15680.0,-4416.0,3328.0
2.0475,-15680.0,-4416.0,3392.0
2.05,-15680.0,-4544.0,3392.0
2.0525,-15680.0,-4480.0,3392.0
2.055,-15616.0,-4480.0,3392.0
2.0575,-15616.0,-4480.0,3392.0
2.06,-15680.0,-4480.0,3392.0
2.0625,-15680.0,-4416.0,3456.0
2.065,-15680.0,-4416.0,3520.0
2.0675,-15680.0,-4480.0,3456.0
2.07,-15616.0,-4480.0,3520.0
2.0725,-15616.0,-4480.0,3520.0
2.075,-15616.0,-4480.0,3456.0
2.0775,-15616.0,-4416.0,3456.0
2.08,-15616.0,-4480.0,3520.0
2.0825,-15616.0,-4416.0,3584.0
2.085,-15552.0,-4416.0,3520.0
2.0875,-15552.0,-4352.0,3584.0
2.09,-15552.0,-4352.0,3584.0
2.0925,-15488.0,-4416.0,3520.0
2.095,-15488.0,-4352.0,3520.0
2.0975,-15552.0,-4416.0,3584.0
2.1,-15552.0,-4352.0,3584.0
2.1025,-15552.0,-4416.0,3520.0
2.105,-15552.0,-4352.0,3584.0
2.1075,-15424.0,-4416.0,3520.0
2.11,-15488.0,-4416.0,3520.0
2.1125,-15488.0,-4352.0,3584.0
2.115,-15488.0,-4352.0,3584.0
2.1175,-15488.0,-4416.0,3456.0
2.12,-15488.0,-4352.0,3456.0
2.1225,-15488.0,-4352.0,3456.0
2.125,-15488.0,-4352.0,3456.0
2.1275,-15488.0,-4352.0,3456.0
2.13,-15488.0,-4288.0,3392.0
2.1325,-15488.0,-4352.0,3456.0
2.135,-15488.0,-4352.0,3456.0
2.1375,-15488.0,-4288.0,3456.0
2.14,-15552.0,-4352.0,3456.0
2.1425,-15552.0,-4352.0,3456.0
2.145,-15552.0,-4352.0,3456.0
2.1475,-15488.0,-4416.0,3456.0
2.15,-15488.0,-4352.0,3456.0
2.1525,-15552.0,-4416.0,3456.0
2.155,-15552.0,-4416.0,3456.0
2.1575,-15616.0,-4352.0,3456.0
2.16,-15616.0,-4352.0,3520.0
2.1625,-15616.0,-4416.0,3520.0
2.165,-15616.0,-4352.0,3520.0
2.1675,-15616.0,-4352.0,3520.0
2.17,-15616.0,-4416.0,3456.0
2.1725,-15616.0,-4416.0,3584.0
2.175,-15616.0,-4352.0,3456.0
2.1775,-15616.0,-4352.0,3456.0
2.18,-15616.0,-4288.0,3456.0
2.1825,-15680.0,-4288.0,3392.0
2.185,-15680.0,-4352.0,3520.0
2.1875,-15680.0,-4352.0,3456.0
2.19,-15680.0,-4352.0,3456.0
2.1925,-15680.0,-4288.0,3456.0
2.195,-15680.0,-4352.0,3456.0
2.1975,-15680.0,-4352.0,3456.0
2.2,-15552.0,-4416.0,3456.0
2.2025,-15552.0,-4352.0,3392.0
2.205,-15616.0,-4352.0,3456.0
2.2075,-15680.0,-4352.0,3456.0
2.21,-15680.0,-4416.0,3520.0
2.2125,-15680.0,-4416.0,3456.0
2.215,-15616.0,-4416.0,3392.0
2.2175,-15680.0,-4352.0,3328.0
2.22,-15616.0,-4352.0,3392.0
2.2225,-15680.0,-4416.0,3456.0
2.225,-15680.0,-4416.0,3392.0
2.2275,-15616.0,-4480.0,3328.0
2.23,-15616.0,-4416.0,3392.0
2.2325,-15616.0,-4416.0,3456.0
2.235,-15616.0,-4416.0,3392.0
2.2375,-15616.0,-4416.0,3392.0
2.24,-15680.0,-4416.0,3584.0
2.2425,-15616.0,-4480.0,3456.0
2.245,-15616.0,-4416.0,3392.0
2.2475,-15616.0,-4352.0,3328.0
2.25,-15616.0,-4416.0,3456.0
2.2525,-15488.0,-4416.0,3392.0
2.255,-15552.0,-4416.0,3328.0
2.2575,-15552.0,-4416.0,3392.0
2.26,-15552.0,-4416.0,3456.0
2.2625,-15488.0,-4416.0,3392.0
2.265,-15552.0,-4416.0,3456.0
2.2675,-15552.0,-4352.0,3456.0
2.27,-15552.0,-4416.0,3392.0
2.2725,-15552.0,-4352.0,3392.0
2.275,-15616.0,-4416.0,3456.0
2.2775,-15552.0,-4416.0,3456.0
2.28,-15552.0,-4416.0,3456.0
2.2825,-15552.0,-4416.0,3456.0
2.285,-15616.0,-4416.0,3392.0
2.2875,-15552.0,-4416.0,3392.0
2.29,-15552.0,-4480.0,3456.0
2.2925,-15552.0,-4416.0,3456.0
2.295,-15616.0,-4416.0,3456.0
2.2975,-15552.0,-4416.0,3456.0
2.3,-15616.0,-4416.0,3456.0
2.3025,-15616.0,-4416.0,3456.0
2.305,-15616.0,-4416.0,3392.0
2.3075,-15616.0,-4416.0,3456.0
2.31,-15616.0,-4416.0,3456.0
2.3125,-15616.0,-4416.0,3456.0
2.315,-15552.0,-4416.0,3456.0
2.3175,-15552.0,-4416.0,3392.0
2.32,-15552.0,-4416.0,3520.0
2.3225,-15552.0,-4416.0,3392.0
2.325,-15552.0,-4416.0,3392.0
2.3275,-15552.0,-4352.0,3392.0
2.33,-15552.0,-4480.0,3392.0
2.3325,-15616.0,-4480.0,3456.0
2.335,-15616.0,-4480.0,3392.0
2.3375,-15616.0,-4352.0,3264.0
2.34,-15616.0,-4352.0,3392.0
2.3425,-15616.0,-4352.0,3392.0
2.345,-15616.0,-4352.0,3392.0
2.3475,-15552.0,-4416.0,3392.0
2.35,-15616.0,-4416.0,3456.0
2.3525,-15680.0,-4416.0,3328.0
2.355,-15616.0,-4416.0,3328.0
2.3575,-15616.0,-4416.0,3328.0
2.36,-15680.0,-4416.0,3392.0
2.3625,-15616.0,-4544.0,3328.0
2.365,-15616.0,-4480.0,3392.0
2.3675,-15680.0,-4480.0,3392.0
2.37,-15616.0,-4480.0,3392.0
2.3725,-15616.0,-4480.0,3328.0
2.375,-15616.0,-4480.0,3328.0
2.3775,-15616.0,-4416.0,3328.0
2.38,-15616.0,-4416.0,3392.0
2.3825,-15552.0,-4416.0,3456.0
2.385,-15552.0,-4416.0,3392.0
2.3875,-15616.0,-4416.0,3456.0
2.39,-15616.0,-4352.0,3456.0
2.3925,-15680.0,-4416.0,3456.0
2.395,-15680.0,-4480.0,3456.0
2.3975,-15616.0,-4416.0,3456.0
2.4,-15616.0,-4480.0,3520.0
2.4025,-15616.0,-4480.0,3520.0
2.405,-15552.0,-4480.0,3520.0
2.4075,-15680.0,-4480.0,3456.0
2.41,-15616.0,-4544.0,3456.0
2.4125,-15680.0,-4480.0,3520.0
2.415,-15616.0,-4480.0,3520.0
2.4175,-15616.0,-4544.0,3392.0
2.42,-15616.0,-4480.0,3392.0
2.4225,-15616.0,-4480.0,3328.0
2.425,-15616.0,-4480.0,3328.0
2.4275,-15616.0,-4480.0,3392.0
2.43,-15616.0,-4544.0,3392.0
2.4325,-15616.0,-4480.0,3328.0
2.435,-15616.0,-4544.0,3392.0
2.4375,-15616.0,-4544.0,3456.0
2.44,-15616.0,-4544.0,3456.0
2.4425,-15616.0,-4608.0,3392.0
2.445,-15680.0,-4544.0,3456.0
2.4475,-15680.0,-4544.0,3456.0
2.45,-15680.0,-4544.0,3456.0
2.4525,-15616.0,-4544.0,3456.0
2.455,-15616.0,-4480.0,3392.0
2.4575,-15616.0,-4480.0,3392.0
2.46,-15616.0,-4480.0,3392.0
2.4625,-15552.0,-4480.0,3392.0
2.465,-15552.0,-4480.0,3520.0
2.4675,-15552.0,-4544.0,3456.0
2.47,-15552.0,-4544.0,3456.0
2.4725,-15616.0,-4544.0,3392.0
2.475,-15616.0,-4544.0,3456.0
2.4775,-15616.0,-4544.0,3520.0
2.48,-15616.0,-4544.0,3456.0
2.4825,-15680.0,-4544.0,3456.0
2.485,-15680.0,-4544.0,3392.0
2.4875,-15616.0,-4544.0,3456.0
2.49,-15680.0,-4544.0,3392.0
2.4925,-15680.0,-4544.0,3392.0
2.495,-15744.0,-4544.0,3456.0
2.4975,-15616.0,-4544.0,3456.0
2.5,-15680.0,-4480.0,3392.0
2.5025,-15616.0,-4544.0,3392.0
2.505,-15680.0,-4544.0,3392.0
2.5075,-15616.0,-4608.0,3392.0
2.51,-15616.0,-4608.0,3456.0
2.5125,-15616.0,-4544.0,3456.0
2.515,-15616.0,-4608.0,3392.0
2.5175,-15680.0,-4608.0,3456.0
2.52,-15680.0,-4544.0,3456.0
2.5225,-15616.0,-4544.0,3456.0
2.525,-15552.0,-4544.0,3520.0
2.5275,-15616.0,-4544.0,3456.0
2.53,-15552.0,-4480.0,3392.0
2.5325,-15616.0,-4544.0,3392.0
2.535,-15616.0,-4480.0,3328.0
2.5375,-15616.0,-4544.0,3392.0
2.54,-15616.0,-4544.0,3456.0
2.5425,-15680.0,-4608.0,3456.0
2.545,-15680.0,-4608.0,3456.0
2.5475,-15744.0,-4544.0,3456.0
2.55,-15680.0,-4544.0,3456.0
2.5525,-15680.0,-4480.0,3328.0
2.555,-15680.0,-4544.0,3328.0
2.5575,-15680.0,-4480.0,3328.0
2.56,-15680.0,-4416.0,3392.0
2.5625,-15616.0,-4480.0,3392.0
2.565,-15616.0,-4544.0,3456.0
2.5675,-15616.0,-4544.0,3392.0
2.57,-15616.0,-4544.0,3392.0
2.5725,-15616.0,-4480.0,3456.0
2.575,-15616.0,-4416.0,3456.0
2.5775,-15680.0,-4480.0,3392.0
2.58,-15680.0,-4480.0,3456.0
2.5825,-15680.0,-4480.0,3456.0
2.585,-15616.0,-4416.0,3456.0
2.5875,-15552.0,-4416.0,3456.0
2.59,-15488.0,-4480.0,3456.0
2.5925,-15552.0,-4480.0,3456.0
2.595,-15488.0,-4416.0,3456.0
2.5975,-15488.0,-4480.0,3456.0
2.6,-15488.0,-4480.0,3328.0
2.6025,-15488.0,-4480.0,3392.0
2.605,-15552.0,-4416.0,3328.0
2.6075,-15488.0,-4416.0,3264.0
2.61,-15552.0,-4416.0,3328.0
2.6125,-15488.0,-4416.0,3328.0
2.615,-15488.0,-4480.0,3264.0
2.6175,-15424.0,-4480.0,3200.0
2.62,-15424.0,-4416.0,3264.0
2.6225,-15488.0,-4416.0,3328.0
2.625,-15488.0,-4416.0,3264.0
2.6275,-15552.0,-4480.0,3264.0
2.63,-15488.0,-4416.0,3264.0
2.6325,-15488.0,-4416.0,3264.0
2.635,-15488.0,-4416.0,3264.0
2.6375,-15488.0,-4416.0,3200.0
2.64,-15424.0,-4480.0,3264.0
2.6425,-15488.0,-4416.0,3328.0
2.645,-15488.0,-4416.0,3328.0
2.6475,-15424.0,-4352.0,3264.0
2.65,-15488.0,-4416.0,3264.0
2.6525,-15488.0,-4352.0,3200.0
2.655,-15552.0,-4416.0,3264.0
2.6575,-15552.0,-4352.0,3200.0
2.66,-15552.0,-4416.0,3200.0
2.6625,-15552.0,-4416.0,3200.0
2.665,-15552.0,-4416.0,3200.0
2.6675,-15552.0,-4416.0,3136.0
2.67,-15616.0,-4416.0,3200.0
2.6725,-15616.0,-4416.0,3200.0
2.675,-15616.0,-4416.0,3200.0
2.6775,-15616.0,-4480.0,3136.0
2.68,-15616.0,-4416.0,3136.0
2.6825,-15616.0,-4352.0,3200.0
2.685,-15616.0,-4416.0,3264.0
2.6875,-15680.0,-4352.0,3200.0
2.69,-15680.0,-4416.0,3200.0
2.6925,-15616.0,-4416.0,3200.0
2.695,-15616.0,-4416.0,3136.0
2.6975,-15616.0,-4352.0,3200.0
2.7,-15680.0,-4352.0,3200.0
2.7025,-15616.0,-4416.0,3264.0
2.705,-15616.0,-4352.0,3200.0
2.7075,-15616.0,-4416.0,3264.0
2.71,-15616.0,-4352.0,3264.0
2.7125,-15552.0,-4416.0,3328.0
2.715,-15616.0,-4416.0,3264.0
2.7175,-15552.0,-4480.0,3264.0
2.72,-15552.0,-4480.0,3264.0
2.7225,-15552.0,-4480.0,3328.0
2.725,-15552.0,-4416.0,3328.0
2.7275,-15552.0,-4416.0,3264.0
2.73,-15552.0,-4416.0,3200.0
2.7325,-15616.0,-4416.0,3264.0
2.735,-15616.0,-4480.0,3264.0
2.7375,-15616.0,-4480.0,3264.0
2.74,-15616.0,-4480.0,3328.0
2.7425,-15616.0,-4480.0,3200.0
2.745,-15680.0,-4416.0,3264.0
2.7475,-15680.0,-4416.0,3200.0
2.75,-15680.0,-4480.0,3200.0
2.7525,-15616.0,-4480.0,3264.0
2.755,-15616.0,-4480.0,3264.0
2.7575,-15616.0,-4416.0,3328.0
2.76,-15680.0,-4416.0,3264.0
2.7625,-15616.0,-4416.0,3264.0
2.765,-15680.0,-4416.0,3328.0
2.7675,-15680.0,-4480.0,3328.0
2.77,-15680.0,-4544.0,3328.0
2.7725,-15680.0,-4544.0,3392.0
2.775,-15680.0,-4480.0,3328.0
2.7775,-15744.0,-4544.0,3328.0
2.78,-15680.0,-4544.0,3328.0
2.7825,-15680.0,-4544.0,3264.0
2.785,-15744.0,-4544.0,3264.0
2.7875,-15744.0,-4480.0,3264.0
2.79,-15680.0,-4480.0,3328.0
2.7925,-15744.0,-4480.0,3456.0
2.795,-15680.0,-4544.0,3456.0
2.7975,-15680.0,-4544.0,3392.0
2.8,-15616.0,-4544.0,3456.0
2.8025,-15616.0,-4544.0,3328.0
2.805,-15616.0,-4544.0,3328.0
2.8075,-15616.0,-4544.0,3328.0
2.81,-15680.0,-4608.0,3328.0
2.8125,-15552.0,-4544.0,3328.0
2.815,-15552.0,-4608.0,3328.0
2.8175,-15680.0,-4608.0,3392.0
2.82,-15552.0,-4608.0,3392.0
2.8225,-15552.0,-4608.0,3328.0
2.825,-15616.0,-4608.0,3264.0
2.8275,-15552.0,-4480.0,3392.0
2.83,-15552.0,-4480.0,3456.0
2.8325,-15488.0,-4544.0,3456.0
2.835,-15552.0,-4544.0,3520.0
2.8375,-15488.0,-4544.0,3456.0
2.84,-15488.0,-4608.0,3392.0
2.8425,-15488.0,-4672.0,3392.0
2.845,-15488.0,-4608.0,3456.0
2.8475,-15424.0,-4544.0,3392.0
2.85,-15424.0,-4480.0,3456.0
2.8525,-15488.0,-4480.0,3456.0
2.855,-15488.0,-4544.0,3520.0
2.8575,-15488.0,-4608.0,3520.0
2.86,-15488.0,-4544.0,3456.0
2.8625,-15552.0,-4608.0,3392.0
2.865,-15488.0,-4608.0,3392.0
2.8675,-15488.0,-4480.0,3456.0
2.87,-15552.0,-4480.0,3456.0
2.8725,-15488.0,-4544.0,3520.0
2.875,-15552.0,-4544.0,3520.0
2.8775,-15552.0,-4544.0,3584.0
2.88,-15616.0,-4544.0,3456.0
2.8825,-15552.0,-4608.0,3456.0
2.885,-15616.0,-4544.0,3392.0
2.8875,-15616.0,-4480.0,3328.0
2.89,-15616.0,-4480.0,3392.0
2.8925,-15616.0,-4544.0,3392.0
2.895,-15680.0,-4544.0,3392.0
2.8975,-15680.0,-4544.0,3456.0
2.9,-15616.0,-4544.0,3392.0
2.9025,-15680.0,-4608.0,3328.0
2.905,-15616.0,-4608.0,3392.0
2.9075,-15616.0,-4544.0,3392.0
2.91,-15616.0,-4544.0,3392.0
2.9125,-15680.0,-4480.0,3328.0
2.915,-15616.0,-4480.0,3392.0
2.9175,-15680.0,-4480.0,3392.0
2.92,-15616.0,-4480.0,3456.0
2.9225,-15616.0,-4544.0,3456.0
2.925,-15680.0,-4480.0,3456.0
2.9275,-15680.0,-4480.0,3456.0
2.93,-15680.0,-4480.0,3392.0
2.9325,-15616.0,-4544.0,3456.0
2.935,-15616.0,-4480.0,3392.0
2.9375,-15616.0,-4480.0,3392.0
2.94,-15616.0,-4416.0,3456.0
2.9425,-15616.0,-4480.0,3392.0
2.945,-15616.0,-4480.0,3392.0
2.9475,-15552.0,-4480.0,3392.0
2.95,-15616.0,-4416.0,3392.0
2.9525,-15616.0,-4416.0,3456.0
2.955,-15616.0,-4416.0,3456.0
2.9575,-15616.0,-4480.0,3456.0
2.96,-15616.0,-4480.0,3392.0
2.9625,-15616.0,-4480.0,3328.0
2.965,-15616.0,-4544.0,3328.0
2.9675,-15552.0,-4480.0,3328.0
2.97,-15552.0,-4544.0,3392.0
2.9725,-15552.0,-4480.0,3392.0
2.975,-15488.0,-4480.0,3520.0
2.9775,-15488.0,-4416.0,3456.0
2.98,-15424.0,-4480.0,3520.0
2.9825,-15424.0,-4480.0,3456.0
2.985,-15488.0,-4480.0,3456.0
2.9875,-15552.0,-4544.0,3456.0
2.99,-15552.0,-4480.0,3392.0
2.9925,-15552.0,-4544.0,3328.0
2.995,-15616.0,-4544.0,3392.0
2.9975,-15616.0,-4480.0,3392.0
3.0,-15616.0,-4480.0,3456.0
3.0025,-15616.0,-4480.0,3456.0
3.005,-15616.0,-4480.0,3392.0
3.0075,-15616.0,-4480.0,3328.0
3.01,-15616.0,-4480.0,3392.0
3.0125,-15552.0,-4544.0,3392.0
3.015,-15552.0,-4480.0,3328.0
3.0175,-15552.0,-4480.0,3328.0
3.02,-15552.0,-4480.0,3456.0
3.0225,-15552.0,-4480.0,3456.0
3.025,-15552.0,-4480.0,3456.0
3.0275,-15552.0,-4480.0,3456.0
3.03,-15552.0,-4480.0,3392.0
3.0325,-15552.0,-4480.0,3392.0
3.035,-15552.0,-4480.0,3456.0
3.0375,-15552.0,-4480.0,3456.0
3.04,-15488.0,-4608.0,3456.0
3.0425,-15488.0,-4544.0,3520.0
3.045,-15488.0,-4544.0,3520.0
3.0475,-15488.0,-4544.0,3520.0
3.05,-15552.0,-4544.0,3456.0
3.0525,-15488.0,-4544.0,3392.0
3.055,-15552.0,-4544.0,3392.0
3.0575,-15552.0,-4544.0,3456.0
3.06,-15488.0,-4480.0,3392.0
3.0625,-15488.0,-4544.0,3392.0
3.065,-15488.0,-4544.0,3328.0
3.0675,-15552.0,-4480.0,3328.0
3.07,-15488.0,-4544.0,3328.0
3.0725,-15488.0,-4544.0,3328.0
3.075,-15488.0,-4544.0,3456.0
3.0775,-15552.0,-4544.0,3456.0
3.08,-15488.0,-4480.0,3456.0
3.0825,-15552.0,-4544.0,3328.0
3.085,-15488.0,-4544.0,3392.0
3.0875,-15424.0,-4608.0,3456.0
3.09,-15488.0,-4608.0,3456.0
3.0925,-15488.0,-4544.0,3520.0
3.095,-15488.0,-4544.0,3520.0
3.0975,-15424.0,-4544.0,3456.0
3.1,-15488.0,-4544.0,3456.0
3.1025,-15488.0,-4608.0,3456.0
3.105,-15488.0,-4608.0,3456.0
3.1075,-15424.0,-4544.0,3520.0
3.11,-15424.0,-4608.0,3456.0
3.1125,-15424.0,-4608.0,3456.0
3.115,-15424.0,-4608.0,3520.0
3.1175,-15488.0,-4608.0,3456.0
3.12,-15424.0,-4608.0,3456.0
3.1225,-15360.0,-4544.0,3456.0
3.125,-15424.0,-4544.0,3456.0
3.1275,-15424.0,-4608.0,3456.0
3.13,-15488.0,-4608.0,3520.0
3.1325,-15488.0,-4544.0,3520.0
3.135,-15360.0,-4544.0,3456.0
3.1375,-15424.0,-4608.0,3520.0
3.14,-15360.0,-4544.0,3520.0
3.1425,-15424.0,-4608.0,3584.0
3.145,-15424.0,-4544.0,3520.0
3.1475,-15360.0,-4672.0,3520.0
3.15,-15424.0,-4672.0,3584.0
3.1525,-15424.0,-4608.0,3584.0
3.155,-15360.0,-4608.0,3584.0
3.1575,-15360.0,-4544.0,3648.0
3.16,-15360.0,-4608.0,3648.0
3.1625,-15360.0,-4544.0,3776.0
3.165,-15424.0,-4544.0,3712.0
3.1675,-15488.0,-4544.0,3712.0
3.17,-15424.0,-4480.0,3776.0
3.1725,-15424.0,-4544.0,3840.0
3.175,-15424.0,-4544.0,3840.0
3.1775,-15488.0,-4480.0,3840.0
3.18,-15488.0,-4544.0,3840.0
3.1825,-15488.0,-4544.0,3840.0
3.185,-15552.0,-4544.0,3840.0
3.1875,-15552.0,-4480.0,3840.0
3.19,-15552.0,-4480.0,3840.0
3.1925,-15616.0,-4544.0,3968.0
3.195,-15680.0,-4608.0,3904.0
3.1975,-15680.0,-4608.0,3968.0
3.2,-15616.0,-4608.0,3968.0
3.2025,-15616.0,-4608.0,4096.0
3.205,-15616.0,-4672.0,4032.0
3.2075,-15680.0,-4608.0,4160.0
3.21,-15744.0,-4672.0,4160.0
3.2125,-15744.0,-4672.0,4160.0
3.215,-15808.0,-4672.0,4288.0
3.2175,-15744.0,-4672.0,4160.0
3.22,-15808.0,-4672.0,4160.0
3.2225,-15744.0,-4608.0,4160.0
3.225,-15808.0,-4672.0,4096.0
3.2275,-15808.0,-4608.0,4224.0
3.23,-15872.0,-4672.0,4096.0
3.2325,-15808.0,-4672.0,4096.0
3.235,-15808.0,-4672.0,4032.0
3.2375,-15744.0,-4736.0,4032.0
3.24,-15744.0,-4672.0,4032.0
3.2425,-15808.0,-4736.0,4096.0
3.245,-15808.0,-4672.0,4096.0
3.2475,-15744.0,-4608.0,4096.0
3.25,-15680.0,-4672.0,4032.0
3.2525,-15680.0,-4736.0,4032.0
3.255,-15680.0,-4672.0,4032.0
3.2575,-15680.0,-4608.0,4032.0
3.26,-15616.0,-4608.0,4032.0
3.2625,-15616.0,-4736.0,4096.0
3.265,-15616.0,-4672.0,4160.0
3.2675,-15616.0,-4672.0,4160.0
3.27,-15616.0,-4608.0,4160.0
3.2725,-15616.0,-4672.0,4160.0
3.275,-15552.0,-4672.0,4160.0
3.2775,-15616.0,-4672.0,4160.0
3.28,-15616.0,-4736.0,4224.0
3.2825,-15616.0,-4736.0,4160.0
3.285,-15616.0,-4608.0,4160.0
3.2875,-15616.0,-4608.0,4160.0
3.29,-15552.0,-4608.0,4224.0
3.2925,-15616.0,-4608.0,4160.0
3.295,-15552.0,-4544.0,4096.0
3.2975,-15616.0,-4544.0,4096.0
3.3,-15616.0,-4544.0,4160.0
3.3025,-15616.0,-4480.0,4096.0
3.305,-15616.0,-4544.0,4096.0
3.3075,-15552.0,-4416.0,4096.0
3.31,-15552.0,-4480.0,4032.0
3.3125,-15616.0,-4480.0,4096.0
3.315,-15616.0,-4480.0,4160.0
3.3175,-15680.0,-4480.0,4160.0
3.32,-15616.0,-4416.0,4096.0
3.3225,-15680.0,-4480.0,4160.0
3.325,-15616.0,-4416.0,4096.0
3.3275,-15616.0,-4480.0,4160.0
3.33,-15552.0,-4480.0,4160.0
3.3325,-15616.0,-4480.0,4224.0
3.335,-15488.0,-4416.0,4160.0
3.3375,-15488.0,-4480.0,4096.0
3.34,-15488.0,-4480.0,4160.0
3.3425,-15488.0,-4416.0,4288.0
3.345,-15488.0,-4416.0,4224.0
3.3475,-15424.0,-4416.0,4160.0
3.35,-15424.0,-4416.0,4160.0
3.3525,-15360.0,-4416.0,4160.0
3.355,-15360.0,-4416.0,4160.0
3.3575,-15296.0,-4416.0,4224.0
3.36,-15296.0,-4416.0,4224.0
3.3625,-15360.0,-4416.0,4224.0
3.365,-15296.0,-4416.0,4096.0
3.3675,-15232.0,-4480.0,4096.0
3.37,-15232.0,-4480.0,4160.0
3.3725,-15232.0,-4480.0,4096.0
3.375,-15232.0,-4416.0,4032.0
3.3775,-15232.0,-4480.0,4032.0
3.38,-15168.0,-4544.0,4096.0
3.3825,-15232.0,-4480.0,4096.0
3.385,-15232.0,-4416.0,4032.0
3.3875,-15232.0,-4480.0,4032.0
3.39,-15232.0,-4480.0,4160.0
3.3925,-15232.0,-4480.0,4160.0
3.395,-15232.0,-4480.0,4160.0
3.3975,-15296.0,-4480.0,4160.0
3.4,-15296.0,-4480.0,4096.0
3.4025,-15360.0,-4544.0,4224.0
3.405,-15296.0,-4544.0,4160.0
3.4075,-15296.0,-4608.0,4224.0
3.41,-15296.0,-4672.0,4224.0
3.4125,-15232.0,-4608.0,4288.0
3.415,-15232.0,-4736.0,4352.0
3.4175,-15168.0,-4672.0,4288.0
3.42,-15168.0,-4736.0,4288.0
3.4225,-15168.0,-4672.0,4224.0
3.425,-15232.0,-4736.0,4224.0
3.4275,-15168.0,-4736.0,4224.0
3.43,-15168.0,-4736.0,4288.0
3.4325,-15232.0,-4736.0,4224.0
3.435,-15232.0,-4736.0,4224.0
3.4375,-15232.0,-4800.0,4288.0
3.44,-15296.0,-4800.0,4224.0
3.4425,-15232.0,-4800.0,4288.0
3.445,-15232.0,-4864.0,4224.0
3.4475,-15168.0,-4864.0,4288.0
3.45,-15296.0,-4864.0,4224.0
3.4525,-15168.0,-4800.0,4288.0
3.455,-15296.0,-4864.0,4224.0
3.4575,-15168.0,-4800.0,4288.0
3.46,-15104.0,-4928.0,4288.0
3.4625,-15040.0,-4928.0,4288.0
3.465,-15040.0,-4864.0,4352.0
3.4675,-14976.0,-4800.0,4224.0
3.47,-14912.0,-4800.0,4352.0
3.4725,-14912.0,-4800.0,4352.0
3.475,-14912.0,-4800.0,4352.0
3.4775,-14848.0,-4864.0,4416.0
3.48,-14784.0,-4864.0,4352.0
3.4825,-14784.0,-4864.0,4352.0
3.485,-14720.0,-4864.0,4352.0
3.4875,-14720.0,-4864.0,4352.0
3.49,-14720.0,-4864.0,4352.0
3.4925,-14656.0,-4928.0,4416.0
3.495,-14656.0,-4864.0,4352.0
3.4975,-14656.0,-4864.0,4416.0
3.5,-14528.0,-4864.0,4416.0
3.5025,-14464.0,-4928.0,4352.0
3.505,-14528.0,-4928.0,4352.0
3.5075,-14464.0,-4992.0,4416.0
3.51,-14464.0,-4992.0,4288.0
3.5125,-14464.0,-4928.0,4352.0
3.515,-14400.0,-4928.0,4352.0
3.5175,-14400.0,-4864.0,4416.0
3.52,-14336.0,-4864.0,4480.0
3.5225,-14336.0,-4864.0,4416.0
3.525,-14400.0,-4864.0,4416.0
3.5275,-14336.0,-4864.0,4352.0
3.53,-14336.0,-4992.0,4352.0
3.5325,-14464.0,-4864.0,4416.0
3.535,-14400.0,-4800.0,4416.0
3.5375,-14336.0,-4800.0,4416.0
3.54,-14336.0,-4992.0,4416.0
3.5425,-14400.0,-4992.0,4288.0
3.545,-14464.0,-4992.0,4288.0
3.5475,-14464.0,-4992.0,4416.0
3.55,-14528.0,-4992.0,4416.0
3.5525,-14528.0,-4992.0,4352.0
3.555,-14592.0,-5056.0,4416.0
3.5575,-14528.0,-4992.0,4352.0
3.56,-14592.0,-4928.0,4352.0
3.5625,-14656.0,-4928.0,4416.0
3.565,-14592.0,-4928.0,4480.0
3.5675,-14528.0,-4992.0,4416.0
3.57,-14592.0,-5056.0,4352.0
3.5725,-14656.0,-5056.0,4352.0
3.575,-14720.0,-5056.0,4416.0
3.5775,-14784.0,-5056.0,4416.0
3.58,-14848.0,-5120.0,4416.0
3.5825,-14848.0,-5120.0,4480.0
3.585,-14848.0,-5056.0,4480.0
3.5875,-14848.0,-5056.0,4480.0
3.59,-14976.0,-4992.0,4416.0
3.5925,-14976.0,-4992.0,4416.0
3.595,-15040.0,-5056.0,4480.0
3.5975,-15104.0,-5056.0,4480.0
3.6,-15168.0,-5120.0,4544.0
3.6025,-15232.0,-5056.0,4544.0
3.605,-15232.0,-5056.0,4544.0
3.6075,-15296.0,-5056.0,4480.0
3.61,-15296.0,-5056.0,4416.0
3.6125,-15424.0,-5056.0,4416.0
3.615,-15488.0,-5120.0,4416.0
3.6175,-15552.0,-5120.0,4416.0
3.62,-15552.0,-5120.0,4416.0
3.6225,-15552.0,-5120.0,4416.0
3.625,-15616.0,-5120.0,4480.0
3.6275,-15616.0,-5120.0,4352.0
3.63,-15680.0,-5120.0,4416.0
3.6325,-15680.0,-5184.0,4416.0
3.635,-15680.0,-5184.0,4480.0
3.6375,-15616.0,-5248.0,4416.0
3.64,-15616.0,-5248.0,4480.0
3.6425,-15616.0,-5248.0,4480.0
3.645,-15552.0,-5312.0,4480.0
3.6475,-15616.0,-5312.0,4544.0
3.65,-15616.0,-5312.0,4416.0
3.6525,-15552.0,-5248.0,4352.0
3.655,-15488.0,-5248.0,4352.0
3.6575,-15424.0,-5312.0,4480.0
3.66,-15360.0,-5248.0,4480.0
3.6625,-15360.0,-5312.0,4416.0
3.665,-15296.0,-5248.0,4416.0
3.6675,-15232.0,-5184.0,4352.0
3.67,-15168.0,-5184.0,4352.0
3.6725,-15168.0,-5184.0,4416.0
3.675,-15168.0,-5184.0,4416.0
3.6775,-15104.0,-5184.0,4288.0
3.68,-14976.0,-5184.0,4352.0
3.6825,-14976.0,-5248.0,4288.0
3.685,-14784.0,-5184.0,4224.0
3.6875,-14720.0,-5184.0,4224.0
3.69,-14656.0,-5184.0,4224.0
3.6925,-14656.0,-5184.0,4224.0
3.695,-14656.0,-5120.0,4224.0
3.6975,-14592.0,-5120.0,4096.0
3.7,-14592.0,-5056.0,4096.0
3.7025,-14592.0,-5056.0,4160.0
3.705,-14592.0,-5056.0,4160.0
3.7075,-14656.0,-5056.0,4160.0
3.71,-14592.0,-4992.0,4160.0
3.7125,-14592.0,-5056.0,4160.0
3.715,-14656.0,-5056.0,4160.0
3.7175,-14656.0,-5056.0,4224.0
3.72,-14656.0,-5120.0,4160.0
3.7225,-14720.0,-5120.0,4160.0
3.725,-14720.0,-5056.0,4160.0
3.7275,-14848.0,-5120.0,4096.0
3.73,-14912.0,-5056.0,4160.0
3.7325,-14976.0,-5056.0,4160.0
3.735,-15040.0,-4992.0,4160.0
3.7375,-15104.0,-4992.0,4096.0
3.74,-15104.0,-5056.0,4096.0
3.7425,-15168.0,-4992.0,4096.0
3.745,-15168.0,-4992.0,4032.0
3.7475,-15168.0,-4928.0,4032.0
3.75,-15232.0,-4928.0,4032.0
3.7525,-15296.0,-4928.0,4032.0
3.755,-15360.0,-4992.0,4032.0
3.7575,-15360.0,-4992.0,4032.0
3.76,-15488.0,-4992.0,4096.0
3.7625,-15552.0,-4992.0,4096.0
3.765,-15488.0,-4992.0,4160.0
3.7675,-15552.0,-4992.0,4032.0
3.77,-15552.0,-5056.0,3968.0
3.7725,-15616.0,-5056.0,3968.0
3.775,-15616.0,-5120.0,3968.0
3.7775,-15680.0,-5120.0,3968.0
3.78,-15744.0,-5056.0,3968.0
3.7825,-15680.0,-5120.0,3968.0
3.785,-15744.0,-5056.0,3840.0
3.7875,-15680.0,-5056.0,3840.0
3.79,-15744.0,-5056.0,3968.0
3.7925,-15680.0,-5056.0,3904.0
3.795,-15680.0,-5056.0,3904.0
3.7975,-15680.0,-5056.0,3968.0
3.8,-15744.0,-4992.0,3968.0
3.8025,-15744.0,-4864.0,3968.0
3.805,-15744.0,-4928.0,4032.0
3.8075,-15680.0,-5056.0,3968.0
3.81,-15744.0,-4992.0,3904.0
3.8125,-15744.0,-5056.0,3904.0
3.815,-15744.0,-5056.0,3968.0
3.8175,-15680.0,-5056.0,3904.0
3.82,-15616.0,-4992.0,3840.0
3.8225,-15680.0,-4928.0,3840.0
3.825,-15616.0,-4928.0,3904.0
3.8275,-15552.0,-4928.0,3904.0
3.83,-15488.0,-4992.0,3904.0
3.8325,-15424.0,-4928.0,3968.0
3.835,-15424.0,-4928.0,3968.0
3.8375,-15360.0,-4928.0,3904.0
3.84,-15232.0,-4800.0,4032.0
3.8425,-15232.0,-4928.0,4032.0
3.845,-15168.0,-4992.0,3968.0
3.8475,-15168.0,-4992.0,3968.0
3.85,-15168.0,-4992.0,3840.0
3.8525,-15168.0,-4992.0,3968.0
3.855,-15168.0,-4992.0,3904.0
3.8575,-15104.0,-4864.0,3904.0
3.86,-15104.0,-4928.0,3904.0
3.8625,-15104.0,-4928.0,3968.0
3.865,-15040.0,-4928.0,3968.0
3.8675,-15104.0,-4992.0,4032.0
3.87,-15168.0,-4992.0,3968.0
3.8725,-15168.0,-5056.0,3904.0
3.875,-15104.0,-4992.0,3904.0
3.8775,-15104.0,-5056.0,3904.0
3.88,-15168.0,-5056.0,3904.0
3.8825,-15168.0,-5120.0,3968.0
3.885,-15104.0,-5120.0,3968.0
3.8875,-15168.0,-5120.0,3904.0
3.89,-15232.0,-5248.0,3968.0
3.8925,-15232.0,-5248.0,3968.0
3.895,-15232.0,-5248.0,3904.0
3.8975,-15296.0,-5120.0,3904.0
3.9,-15232.0,-5184.0,3904.0
3.9025,-15232.0,-5184.0,3904.0
3.905,-15296.0,-5120.0,3904.0
3.9075,-15296.0,-5184.0,3904.0
3.91,-15296.0,-5184.0,3776.0
3.9125,-15296.0,-5184.0,3904.0
3.915,-15360.0,-5184.0,3776.0
3.9175,-15424.0,-5184.0,3776.0
3.92,-15488.0,-5248.0,3776.0
3.9225,-15488.0,-5248.0,3776.0
3.925,-15552.0,-5312.0,3712.0
3.9275,-15616.0,-5312.0,3712.0
3.93,-15680.0,-5312.0,3648.0
3.9325,-15744.0,-5312.0,3712.0
3.935,-15808.0,-5312.0,3712.0
3.9375,-15872.0,-5312.0,3712.0
3.94,-15872.0,-5312.0,3776.0
3.9425,-15936.0,-5376.0,3648.0
3.945,-15936.0,-5312.0,3712.0
3.9475,-15936.0,-5312.0,3712.0
3.95,-16000.0,-5312.0,3712.0
3.9525,-16064.0,-5312.0,3712.0
3.955,-16000.0,-5376.0,3712.0
3.9575,-16000.0,-5376.0,3712.0
3.96,-15936.0,-5376.0,3648.0
3.9625,-15936.0,-5440.0,3648.0
3.965,-15872.0,-5440.0,3712.0
3.9675,-15808.0,-5440.0,3648.0
3.97,-15744.0,-5440.0,3648.0
3.9725,-15680.0,-5440.0,3648.0
3.975,-15616.0,-5440.0,3648.0
3.9775,-15488.0,-5440.0,3712.0
3.98,-15424.0,-5376.0,3648.0
3.9825,-15296.0,-5440.0,3648.0
3.985,-15296.0,-5440.0,3520.0
3.9875,-15168.0,-5376.0,3520.0
3.99,-15168.0,-5440.0,3520.0
3.9925,-15104.0,-5440.0,3520.0
3.995,-15104.0,-5440.0,3520.0
3.9975,-15040.0,-5504.0,3456.0
4.0,-14976.0,-5568.0,3392.0
4.0025,-14912.0,-5504.0,3392.0
4.005,-15040.0,-5504.0,3456.0
4.0075,-14976.0,-5504.0,3392.0
4.01,-14912.0,-5504.0,3392.0
4.0125,-14976.0,-5504.0,3392.0
4.015,-14976.0,-5632.0,3264.0
4.0175,-14976.0,-5632.0,3328.0
4.02,-15040.0,-5632.0,3328.0
4.0225,-15104.0,-5568.0,3328.0
4.025,-15040.0,-5568.0,3392.0
4.0275,-15168.0,-5632.0,3328.0
4.03,-15104.0,-5696.0,3264.0
4.0325,-15168.0,-5696.0,3392.0
4.035,-15104.0,-5760.0,3328.0
4.0375,-15232.0,-5824.0,3328.0
4.04,-15296.0,-5824.0,3392.0
4.0425,-15296.0,-5824.0,3392.0
4.045,-15296.0,-5824.0,3392.0
4.0475,-15296.0,-5824.0,3456.0
4.05,-15360.0,-5888.0,3456.0
4.0525,-15296.0,-5888.0,3456.0
4.055,-15360.0,-5824.0,3392.0
4.0575,-15360.0,-5824.0,3328.0
4.06,-15296.0,-5824.0,3328.0
4.0625,-15296.0,-5824.0,3392.0
4.065,-15360.0,-5760.0,3264.0
4.0675,-15360.0,-5760.0,3392.0
4.07,-15360.0,-5824.0,3328.0
4.0725,-15360.0,-5888.0,3328.0
4.075,-15360.0,-5824.0,3328.0
4.0775,-15424.0,-5888.0,3200.0
4.08,-15488.0,-5952.0,3136.0
4.0825,-15552.0,-5888.0,3072.0
4.085,-15552.0,-5824.0,3136.0
4.0875,-15616.0,-5824.0,3136.0
4.09,-15680.0,-5824.0,3200.0
4.0925,-15616.0,-5824.0,3136.0
4.095,-15680.0,-5760.0,3136.0
4.0975,-15680.0,-5760.0,3136.0
4.1,-15744.0,-5824.0,3200.0
4.1025,-15808.0,-5760.0,3200.0
4.105,-15808.0,-5888.0,3264.0
4.1075,-15872.0,-5760.0,3200.0
4.11,-15872.0,-5760.0,3200.0
4.1125,-15808.0,-5760.0,3200.0
4.115,-15744.0,-5760.0,3264.0
4.1175,-15808.0,-5760.0,3264.0
4.12,-15808.0,-5760.0,3264.0
4.1225,-15808.0,-5760.0,3264.0
4.125,-15744.0,-5760.0,3200.0
4.1275,-15680.0,-5824.0,3264.0
4.13,-15680.0,-5824.0,3264.0
4.1325,-15616.0,-5888.0,3200.0
4.135,-15488.0,-5888.0,3264.0
4.1375,-15488.0,-5888.0,3264.0
4.14,-15424.0,-5888.0,3264.0
4.1425,-15296.0,-5824.0,3328.0
4.145,-15296.0,-5760.0,3264.0
4.1475,-15168.0,-5824.0,3328.0
4.15,-15168.0,-5824.0,3200.0
4.1525,-15104.0,-5888.0,3264.0
4.155,-15040.0,-5824.0,3392.0
4.1575,-15040.0,-5824.0,3328.0
4.16,-14848.0,-5824.0,3264.0
4.1625,-14720.0,-5824.0,3328.0
4.165,-14656.0,-5824.0,3328.0
4.1675,-14656.0,-5824.0,3392.0
4.17,-14656.0,-5760.0,3456.0
4.1725,-14656.0,-5824.0,3456.0
4.175,-14528.0,-5824.0,3392.0
4.1775,-14528.0,-5888.0,3392.0
4.18,-14464.0,-5888.0,3392.0
4.1825,-14464.0,-5824.0,3328.0
4.185,-14400.0,-5952.0,3328.0
4.1875,-14464.0,-5952.0,3392.0
4.19,-14400.0,-5952.0,3392.0
4.1925,-14464.0,-5952.0,3392.0
4.195,-14400.0,-5952.0,3392.0
4.1975,-14464.0,-6016.0,3456.0
4.2,-14400.0,-6016.0,3392.0
4.2025,-14464.0,-6016.0,3392.0
4.205,-14464.0,-6016.0,3392.0
4.2075,-14528.0,-6016.0,3392.0
4.21,-14528.0,-6016.0,3328.0
4.2125,-14528.0,-6016.0,3328.0
4.215,-14464.0,-6080.0,3328.0
4.2175,-14528.0,-6080.0,3328.0
4.22,-14592.0,-6080.0,3328.0
4.2225,-14592.0,-6080.0,3392.0
4.225,-14656.0,-6080.0,3456.0
4.2275,-14592.0,-6080.0,3456.0
4.23,-14592.0,-6144.0,3456.0
4.2325,-14656.0,-6144.0,3456.0
4.235,-14656.0,-6144.0,3520.0
4.2375,-14720.0,-6080.0,3648.0
4.24,-14656.0,-6208.0,3520.0
4.2425,-14720.0,-6272.0,3584.0
4.245,-14784.0,-6272.0,3648.0
4.2475,-14784.0,-6336.0,3584.0
4.25,-14784.0,-6336.0,3584.0
4.2525,-14784.0,-6336.0,3584.0
4.255,-14784.0,-6336.0,3648.0
4.2575,-14848.0,-6400.0,3584.0
4.26,-14912.0,-6400.0,3648.0
4.2625,-14912.0,-6336.0,3648.0
4.265,-14912.0,-6336.0,3648.0
4.2675,-14912.0,-6400.0,3712.0
4.27,-14976.0,-6400.0,3584.0
4.2725,-15040.0,-6464.0,3648.0
4.275,-14976.0,-6400.0,3648.0
4.2775,-14976.0,-6400.0,3648.0
4.28,-15040.0,-6528.0,3712.0
4.2825,-15040.0,-6464.0,3712.0
4.285,-15040.0,-6464.0,3776.0
4.2875,-15040.0,-6464.0,3840.0
4.29,-15104.0,-6464.0,3840.0
4.2925,-15104.0,-6464.0,3840.0
4.295,-15104.0,-6528.0,3840.0
4.2975,-15168.0,-6528.0,3904.0
4.3,-15168.0,-6528.0,3968.0
4.3025,-15104.0,-6592.0,3968.0
4.305,-15104.0,-6592.0,3968.0
4.3075,-15168.0,-6592.0,3968.0
4.31,-15168.0,-6528.0,3904.0
4.3125,-15168.0,-6528.0,3840.0
4.315,-15168.0,-6528.0,3840.0
4.3175,-15104.0,-6464.0,3904.0
4.32,-15104.0,-6528.0,3904.0
4.3225,-15040.0,-6464.0,3968.0
4.325,-15040.0,-6464.0,3776.0
4.3275,-14976.0,-6528.0,3840.0
4.33,-14976.0,-6592.0,3904.0
4.3325,-14976.0,-6656.0,4032.0
4.335,-14976.0,-6656.0,3968.0
4.3375,-14976.0,-6592.0,4032.0
4.34,-14912.0,-6592.0,4032.0
4.3425,-14912.0,-6656.0,4032.0
4.345,-14912.0,-6656.0,4032.0
4.3475,-14912.0,-6720.0,4096.0
4.35,-14912.0,-6720.0,4160.0
4.3525,-14912.0,-6656.0,4096.0
4.355,-14848.0,-6720.0,4096.0
4.3575,-14784.0,-6784.0,4160.0
4.36,-14720.0,-6784.0,4160.0
4.3625,-14784.0,-6784.0,4224.0
4.365,-14720.0,-6656.0,4288.0
4.3675,-14720.0,-6720.0,4224.0
4.37,-14720.0,-6720.0,4288.0
4.3725,-14656.0,-6720.0,4288.0
4.375,-14656.0,-6720.0,4288.0
4.3775,-14592.0,-6720.0,4288.0
4.38,-14528.0,-6656.0,4288.0
4.3825,-14528.0,-6656.0,4288.0
4.385,-14528.0,-6720.0,4288.0
4.3875,-14528.0,-6656.0,4224.0
4.39,-14592.0,-6720.0,4288.0
4.3925,-14592.0,-6656.0,4288.0
4.395,-14528.0,-6720.0,4288.0
4.3975,-14592.0,-6720.0,4224.0
4.4,-14528.0,-6720.0,4160.0
4.4025,-14528.0,-6720.0,4224.0
4.405,-14464.0,-6720.0,4352.0
4.4075,-14528.0,-6784.0,4288.0
4.41,-14464.0,-6784.0,4224.0
4.4125,-14528.0,-6720.0,4224.0
4.415,-14592.0,-6720.0,4352.0
4.4175,-14592.0,-6720.0,4288.0
4.42,-14592.0,-6784.0,4288.0
4.4225,-14592.0,-6784.0,4288.0
4.425,-14592.0,-6720.0,4224.0
4.4275,-14528.0,-6784.0,4288.0
4.43,-14528.0,-6784.0,4288.0
4.4325,-14592.0,-6784.0,4224.0
4.435,-14528.0,-6784.0,4224.0
4.4375,-14592.0,-6720.0,4224.0
4.44,-14592.0,-6656.0,4160.0
4.4425,-14528.0,-6720.0,4288.0
4.445,-14592.0,-6784.0,4224.0
4.4475,-14464.0,-6720.0,4224.0
4.45,-14528.0,-6720.0,4160.0
4.4525,-14528.0,-6784.0,4160.0
4.455,-14464.0,-6848.0,4160.0
4.4575,-14528.0,-6848.0,4160.0
4.46,-14464.0,-6848.0,4096.0
4.4625,-14464.0,-6848.0,4096.0
4.465,-14464.0,-6848.0,4096.0
4.4675,-14464.0,-6848.0,4096.0
4.47,-14400.0,-6848.0,4096.0
4.4725,-14400.0,-6784.0,4032.0
4.475,-14400.0,-6848.0,4096.0
4.4775,-14336.0,-6848.0,4160.0
4.48,-14336.0,-6912.0,4096.0
4.4825,-14336.0,-6912.0,3968.0
4.485,-14272.0,-6912.0,3904.0
4.4875,-14272.0,-6912.0,3968.0
4.49,-14336.0,-6912.0,3968.0
4.4925,-14336.0,-6848.0,4096.0
4.495,-14400.0,-6976.0,3968.0
4.4975,-14336.0,-6976.0,3904.0
4.5,-14272.0,-6976.0,3904.0
4.5025,-14272.0,-6976.0,3840.0
4.505,-14272.0,-6976.0,3840.0
4.5075,-14208.0,-6976.0,3904.0
4.51,-14272.0,-6976.0,3904.0
4.5125,-14272.0,-6976.0,3904.0
4.515,-14336.0,-7040.0,3904.0
4.5175,-14208.0,-6976.0,3840.0
4.52,-14208.0,-7104.0,3904.0
4.5225,-14144.0,-7104.0,3904.0
4.525,-14144.0,-7104.0,3904.0
4.5275,-14016.0,-7104.0,3840.0
4.53,-13952.0,-7040.0,3776.0
4.5325,-13952.0,-7040.0,3840.0
4.535,-13952.0,-7104.0,3840.0
4.5375,-13952.0,-7104.0,3840.0
4.54,-13888.0,-7104.0,3840.0
4.5425,-13824.0,-7104.0,3904.0
4.545,-13888.0,-7104.0,3904.0
4.5475,-13824.0,-7104.0,3840.0
4.55,-13824.0,-7104.0,3904.0
4.5525,-13824.0,-7104.0,3904.0
4.555,-13824.0,-7104.0,3904.0
4.5575,-13888.0,-7104.0,3840.0
4.56,-13952.0,-7168.0,3904.0
4.5625,-14016.0,-7168.0,3776.0
4.565,-14080.0,-7168.0,3776.0
4.5675,-14208.0,-7232.0,3712.0
4.57,-14272.0,-7232.0,3712.0
4.5725,-14272.0,-7168.0,3776.0
4.575,-14272.0,-7232.0,3840.0
4.5775,-14400.0,-7232.0,3904.0
4.58,-14400.0,-7296.0,4032.0
4.5825,-14464.0,-7232.0,3904.0
4.585,-14528.0,-7296.0,3904.0
4.5875,-14592.0,-7296.0,3968.0
4.59,-14592.0,-7296.0,3904.0
4.5925,-14656.0,-7296.0,3904.0
4.595,-14720.0,-7296.0,3904.0
4.5975,-14720.0,-7296.0,3968.0
4.6,-14656.0,-7296.0,3968.0
4.6025,-14720.0,-7360.0,3968.0
4.605,-14720.0,-7360.0,3968.0
4.6075,-14720.0,-7360.0,3968.0
4.61,-14720.0,-7360.0,4032.0
4.6125,-14720.0,-7360.0,3968.0
4.615,-14656.0,-7360.0,3904.0
4.6175,-14656.0,-7360.0,3904.0
4.62,-14656.0,-7360.0,3968.0
4.6225,-14592.0,-7296.0,3904.0
4.625,-14528.0,-7360.0,3968.0
4.6275,-14528.0,-7360.0,3904.0
4.63,-14528.0,-7296.0,3904.0
4.6325,-14528.0,-7296.0,3968.0
4.635,-14528.0,-7296.0,3968.0
4.6375,-14464.0,-7360.0,3968.0
4.64,-14336.0,-7360.0,3968.0
4.6425,-14400.0,-7360.0,3904.0
4.645,-14400.0,-7360.0,3904.0
4.6475,-14336.0,-7360.0,3968.0
4.65,-14400.0,-7296.0,3968.0
4.6525,-14336.0,-7360.0,3904.0
4.655,-14336.0,-7360.0,3968.0
4.6575,-14400.0,-7360.0,3968.0
4.66,-14272.0,-7424.0,3968.0
4.6625,-14208.0,-7424.0,3904.0
4.665,-14272.0,-7424.0,4032.0
4.6675,-14208.0,-7488.0,3968.0
4.67,-14272.0,-7424.0,4032.0
4.6725,-14144.0,-7488.0,4032.0
4.675,-14144.0,-7488.0,4032.0
4.6775,-14208.0,-7488.0,4096.0
4.68,-14208.0,-7488.0,4032.0
4.6825,-14144.0,-7488.0,4160.0
4.685,-14144.0,-7488.0,4032.0
4.6875,-14144.0,-7424.0,4032.0
4.69,-14144.0,-7488.0,4032.0
4.6925,-14144.0,-7488.0,3968.0
4.695,-14144.0,-7424.0,3968.0
4.6975,-14144.0,-7424.0,3904.0
4.7,-14144.0,-7424.0,3904.0
4.7025,-14080.0,-7424.0,3904.0
4.705,-14080.0,-7360.0,3968.0
4.7075,-14080.0,-7424.0,3904.0
4.71,-14016.0,-7424.0,3968.0
4.7125,-14080.0,-7424.0,4032.0
4.715,-14080.0,-7424.0,4032.0
4.7175,-14080.0,-7424.0,4032.0
4.72,-14080.0,-7360.0,4096.0
4.7225,-14080.0,-7360.0,4096.0
4.725,-14080.0,-7360.0,4096.0
4.7275,-14144.0,-7360.0,4096.0
4.73,-14208.0,-7296.0,4160.0
4.7325,-14144.0,-7296.0,4160.0
4.735,-14144.0,-7296.0,4160.0
4.7375,-14208.0,-7168.0,4160.0
4.74,-14080.0,-7168.0,4160.0
4.7425,-14144.0,-7232.0,4160.0
4.745,-14080.0,-7168.0,4224.0
4.7475,-14080.0,-7168.0,4224.0
4.75,-14016.0,-7168.0,4224.0
4.7525,-14016.0,-7104.0,4288.0
4.755,-14016.0,-7104.0,4288.0
4.7575,-14016.0,-7168.0,4224.0
4.76,-14016.0,-7232.0,4224.0
4.7625,-14016.0,-7232.0,4224.0
4.765,-13952.0,-7168.0,4224.0
4.7675,-13888.0,-7232.0,4224.0
4.77,-13888.0,-7232.0,4224.0
4.7725,-13888.0,-7232.0,4224.0
4.775,-13824.0,-7168.0,4224.0
4.7775,-13824.0,-7232.0,4288.0
4.78,-13824.0,-7168.0,4288.0
4.7825,-13760.0,-7168.0,4288.0
4.785,-13760.0,-7168.0,4352.0
4.7875,-13696.0,-7104.0,4288.0
4.79,-13696.0,-7104.0,4288.0
4.7925,-13696.0,-7104.0,4352.0
4.795,-13696.0,-7104.0,4288.0
4.7975,-13568.0,-7232.0,4352.0
4.8,-13504.0,-7168.0,4352.0
4.8025,-13440.0,-7168.0,4288.0
4.805,-13440.0,-7168.0,4288.0
4.8075,-13568.0,-7168.0,4352.0
4.81,-13504.0,-7232.0,4352.0
4.8125,-13504.0,-7168.0,4480.0
4.815,-13504.0,-7168.0,4416.0
4.8175,-13440.0,-7232.0,4352.0
4.82,-13504.0,-7104.0,4352.0
4.8225,-13568.0,-7168.0,4416.0
4.825,-13568.0,-7168.0,4416.0
4.8275,-13568.0,-7168.0,4352.0
4.83,-13632.0,-7104.0,4352.0
4.8325,-13696.0,-7104.0,4288.0
4.835,-13632.0,-7104.0,4288.0
4.8375,-13696.0,-7168.0,4288.0
4.84,-13824.0,-7168.0,4352.0
4.8425,-13824.0,-7168.0,4288.0
4.845,-13824.0,-7232.0,4352.0
4.8475,-13824.0,-7232.0,4288.0
4.85,-13824.0,-7232.0,4224.0
4.8525,-13824.0,-7232.0,4224.0
4.855,-13824.0,-7232.0,4224.0
4.8575,-13824.0,-7232.0,4224.0
4.86,-13824.0,-7232.0,4224.0
4.8625,-13824.0,-7168.0,4224.0
4.865,-13824.0,-7168.0,4224.0
4.8675,-13824.0,-7168.0,4288.0
4.87,-13824.0,-7168.0,4288.0
4.8725,-13888.0,-7168.0,4288.0
4.875,-13888.0,-7168.0,4224.0
4.8775,-13952.0,-7168.0,4224.0
4.88,-14016.0,-7168.0,4288.0
4.8825,-14016.0,-7168.0,4288.0
4.885,-14016.0,-7168.0,4160.0
4.8875,-14080.0,-7168.0,4160.0
4.89,-14144.0,-7168.0,4096.0
4.8925,-14144.0,-7232.0,4096.0
4.895,-14144.0,-7232.0,4096.0
4.8975,-14208.0,-7232.0,4096.0
4.9,-14272.0,-7296.0,4160.0
4.9025,-14272.0,-7296.0,4096.0
4.905,-14400.0,-7296.0,4096.0
4.9075,-14336.0,-7360.0,4160.0
4.91,-14336.0,-7424.0,4224.0
4.9125,-14400.0,-7424.0,4160.0
4.915,-14336.0,-7424.0,4160.0
4.9175,-14272.0,-7488.0,4096.0
4.92,-14208.0,-7488.0,4096.0
4.9225,-14208.0,-7552.0,4096.0
4.925,-14208.0,-7552.0,4160.0
4.9275,-14144.0,-7552.0,4224.0
4.93,-14080.0,-7552.0,4160.0
4.9325,-14144.0,-7552.0,4160.0
4.935,-14016.0,-7488.0,4224.0
4.9375,-13952.0,-7552.0,4160.0
4.94,-13952.0,-7552.0,4160.0
4.9425,-13824.0,-7552.0,4160.0
4.945,-13824.0,-7552.0,4160.0
4.9475,-13760.0,-7552.0,4032.0
4.95,-13760.0,-7616.0,4096.0
4.9525,-13632.0,-7616.0,4096.0
4.955,-13696.0,-7552.0,4160.0
4.9575,-13632.0,-7552.0,4096.0
4.96,-13568.0,-7488.0,4160.0
4.9625,-13568.0,-7552.0,4160.0
4.965,-13568.0,-7552.0,4160.0
4.9675,-13568.0,-7616.0,4160.0
4.97,-13632.0,-7616.0,4160.0
4.9725,-13632.0,-7616.0,4160.0
4.975,-13696.0,-7616.0,4224.0
4.9775,-13760.0,-7552.0,4160.0
4.98,-13824.0,-7552.0,4096.0
4.9825,-13824.0,-7616.0,4096.0
4.985,-13888.0,-7616.0,4096.0
4.9875,-13888.0,-7680.0,4160.0
4.99,-14016.0,-7616.0,4096.0
4.9925,-14144.0,-7616.0,4096.0
4.995,-14144.0,-7616.0,4160.0
4.9975,-14208.0,-7616.0,4160.0
5.0,-14272.0,-7680.0,4224.0
5.0025,-14336.0,-7680.0,4160.0
5.005,-14400.0,-7680.0,4224.0
5.0075,-14464.0,-7680.0,4224.0
5.01,-14528.0,-7680.0,4224.0
5.0125,-14592.0,-7680.0,4224.0
5.015,-14720.0,-7744.0,4288.0
5.0175,-14720.0,-7808.0,4288.0
5.02,-14784.0,-7808.0,4224.0
5.0225,-14912.0,-7808.0,4288.0
5.025,-14976.0,-7872.0,4288.0
5.0275,-15104.0,-7808.0,4224.0
5.03,-15232.0,-7872.0,4160.0
5.0325,-15360.0,-7872.0,4160.0
5.035,-15488.0,-7936.0,4160.0
5.0375,-15552.0,-7872.0,4096.0
5.04,-15808.0,-7936.0,4288.0
5.0425,-16000.0,-7872.0,4160.0
5.045,-16064.0,-7872.0,4160.0
5.0475,-16128.0,-7872.0,4160.0
5.05,-16192.0,-7872.0,4160.0
5.0525,-16256.0,-7808.0,4224.0
5.055,-16320.0,-7872.0,4224.0
5.0575,-16320.0,-7808.0,4224.0
5.06,-16256.0,-7808.0,4288.0
5.0625,-16320.0,-7808.0,4288.0
5.065,-16320.0,-7744.0,4224.0
5.0675,-16384.0,-7744.0,4288.0
5.07,-16384.0,-7680.0,4288.0
5.0725,-16384.0,-7680.0,4288.0
5.075,-16320.0,-7680.0,4288.0
5.0775,-16320.0,-7616.0,4224.0
5.08,-16256.0,-7616.0,4096.0
5.0825,-16192.0,-7552.0,4096.0
5.085,-16256.0,-7488.0,4096.0
5.0875,-16192.0,-7424.0,4096.0
5.09,-16192.0,-7424.0,4032.0
5.0925,-16128.0,-7424.0,4032.0
5.095,-16064.0,-7424.0,4032.0
5.0975,-16000.0,-7360.0,4096.0
5.1,-15936.0,-7360.0,4096.0
5.1025,-15936.0,-7360.0,4096.0
5.105,-15872.0,-7296.0,4160.0
5.1075,-15808.0,-7296.0,4160.0
5.11,-15808.0,-7296.0,4160.0
5.1125,-15680.0,-7168.0,4224.0
5.115,-15680.0,-7168.0,4224.0
5.1175,-15616.0,-7168.0,4160.0
5.12,-15488.0,-7104.0,4224.0
5.1225,-15488.0,-6976.0,4224.0
5.125,-15360.0,-6912.0,4224.0
5.1275,-15360.0,-6848.0,4224.0
5.13,-15232.0,-6784.0,4288.0
5.1325,-15296.0,-6848.0,4224.0
5.135,-15168.0,-6784.0,4160.0
5.1375,-15104.0,-6784.0,4224.0
5.14,-14976.0,-6784.0,4096.0
5.1425,-14912.0,-6848.0,4096.0
5.145,-14912.0,-6848.0,4096.0
5.1475,-14848.0,-6784.0,4160.0
5.15,-14848.0,-6592.0,4224.0
5.1525,-14784.0,-6528.0,4160.0
5.155,-14720.0,-6656.0,4160.0
5.1575,-14656.0,-6720.0,4096.0
5.16,-14656.0,-6656.0,4096.0
5.1625,-14656.0,-6656.0,4032.0
5.165,-14720.0,-6528.0,4160.0
5.1675,-14592.0,-6528.0,4160.0
5.17,-14528.0,-6528.0,4160.0
5.1725,-14464.0,-6528.0,4160.0
5.175,-14464.0,-6528.0,4160.0
5.1775,-14528.0,-6528.0,4096.0
5.18,-14528.0,-6528.0,4224.0
5.1825,-14528.0,-6400.0,4224.0
5.185,-14464.0,-6400.0,4288.0
5.1875,-14400.0,-6464.0,4288.0
5.19,-14464.0,-6528.0,4224.0
5.1925,-14528.0,-6592.0,4288.0
5.195,-14592.0,-6592.0,4224.0
5.1975,-14656.0,-6528.0,4224.0
5.2,-14720.0,-6336.0,4288.0
5.2025,-14784.0,-6400.0,4352.0
5.205,-14784.0,-6400.0,4416.0
5.2075,-14848.0,-6464.0,4288.0
5.21,-14976.0,-6336.0,4288.0
5.2125,-15040.0,-6336.0,4352.0
5.215,-15168.0,-6272.0,4416.0
5.2175,-15232.0,-6400.0,4416.0
5.22,-15360.0,-6528.0,4416.0
5.2225,-15424.0,-6592.0,4352.0
5.225,-15616.0,-6464.0,4352.0
5.2275,-15744.0,-6400.0,4480.0
5.23,-15744.0,-6400.0,4480.0
5.2325,-15808.0,-6400.0,4544.0
5.235,-15936.0,-6464.0,4608.0
5.2375,-16064.0,-6464.0,4608.0
5.24,-16192.0,-6464.0,4672.0
5.2425,-16320.0,-6464.0,4672.0
5.245,-16384.0,-6528.0,4736.0
5.2475,-16512.0,-6592.0,4864.0
5.25,-16640.0,-6656.0,4864.0
5.2525,-16832.0,-6720.0,4992.0
5.255,-16960.0,-6656.0,4928.0
5.2575,-17088.0,-6656.0,4928.0
5.26,-17280.0,-6720.0,4928.0
5.2625,-17472.0,-6784.0,4992.0
5.265,-17728.0,-6784.0,4992.0
5.2675,-17920.0,-6720.0,5056.0
5.27,-18048.0,-6720.0,4992.0
5.2725,-18176.0,-6720.0,4992.0
5.275,-18176.0,-6720.0,4992.0
5.2775,-18368.0,-6784.0,4992.0
5.28,-18880.0,-6848.0,4992.0
5.2825,-19136.0,-6848.0,4992.0
5.285,-19328.0,-6912.0,4928.0
5.2875,-19584.0,-6912.0,4928.0
5.29,-19776.0,-6912.0,4928.0
5.2925,-19968.0,-6912.0,4864.0
5.295,-20160.0,-6976.0,4864.0
5.2975,-20416.0,-7040.0,4864.0
5.3,-20608.0,-7040.0,4864.0
5.3025,-20736.0,-7040.0,4864.0
5.305,-20928.0,-6976.0,4800.0
5.3075,-20928.0,-6912.0,4864.0
5.31,-20992.0,-6912.0,4736.0
5.3125,-21120.0,-7040.0,4800.0
5.315,-21248.0,-7040.0,4800.0
5.3175,-21248.0,-6976.0,4864.0
5.32,-21312.0,-6976.0,4928.0
5.3225,-21248.0,-7040.0,4928.0
5.325,-21248.0,-6976.0,4928.0
5.3275,-21312.0,-7040.0,4928.0
5.33,-21248.0,-6976.0,4928.0
5.3325,-21184.0,-6912.0,4992.0
5.335,-21120.0,-7040.0,5056.0
5.3375,-21056.0,-7104.0,5120.0
5.34,-20928.0,-7104.0,5120.0
5.3425,-20800.0,-7040.0,5056.0
5.345,-20608.0,-6976.0,5056.0
5.3475,-20480.0,-6976.0,5120.0
5.35,-20352.0,-6784.0,5056.0
5.3525,-20160.0,-6720.0,5120.0
5.355,-19968.0,-6720.0,5120.0
5.3575,-19712.0,-6592.0,5056.0
5.36,-19328.0,-6400.0,5120.0
5.3625,-19200.0,-6336.0,5056.0
5.365,-18944.0,-6208.0,5056.0
5.3675,-18752.0,-6080.0,4928.0
5.37,-18496.0,-5952.0,4992.0
5.3725,-18368.0,-5824.0,4928.0
5.375,-18112.0,-5824.0,4864.0
5.3775,-17920.0,-5632.0,4864.0
5.38,-17728.0,-5504.0,4864.0
5.3825,-17472.0,-5504.0,4992.0
5.385,-17280.0,-5440.0,4992.0
5.3875,-17024.0,-5248.0,4992.0
5.39,-16896.0,-5184.0,4928.0
5.3925,-16704.0,-5120.0,4928.0
5.395,-16512.0,-5056.0,4800.0
5.3975,-16384.0,-4992.0,4800.0
5.4,-16256.0,-4864.0,4736.0
5.4025,-16192.0,-4864.0,4736.0
5.405,-16000.0,-4736.0,4672.0
5.4075,-15936.0,-4672.0,4672.0
5.41,-15808.0,-4544.0,4672.0
5.4125,-15680.0,-4480.0,4608.0
5.415,-15616.0,-4416.0,4608.0
5.4175,-15488.0,-4352.0,4544.0
5.42,-15360.0,-4288.0,4416.0
5.4225,-15296.0,-4288.0,4416.0
5.425,-15168.0,-4224.0,4416.0
5.4275,-14976.0,-4096.0,4416.0
5.43,-14848.0,-4096.0,4480.0
5.4325,-14784.0,-4032.0,4416.0
5.435,-14784.0,-4032.0,4416.0
5.4375,-14720.0,-4032.0,4352.0
5.44,-14528.0,-3968.0,4416.0
5.4425,-14336.0,-3968.0,4416.0
5.445,-14208.0,-3904.0,4352.0
5.4475,-14144.0,-3776.0,4288.0
5.45,-14080.0,-3776.0,4352.0
5.4525,-13952.0,-3712.0,4288.0
5.455,-13888.0,-3648.0,4352.0
5.4575,-13824.0,-3520.0,4416.0
5.46,-13696.0,-3456.0,4544.0
5.4625,-13568.0,-3456.0,4544.0
5.465,-13504.0,-3392.0,4544.0
5.4675,-13440.0,-3328.0,4608.0
5.47,-13376.0,-3264.0,4608.0
5.4725,-13376.0,-3200.0,4672.0
5.475,-13312.0,-3200.0,4672.0
5.4775,-13248.0,-3200.0,4672.0
5.48,-13312.0,-3072.0,4736.0
5.4825,-13248.0,-3008.0,4672.0
5.485,-13248.0,-3008.0,4672.0
5.4875,-13248.0,-3008.0,4608.0
5.49,-13312.0,-3008.0,4608.0
5.4925,-13440.0,-3008.0,4608.0
5.495,-13504.0,-3008.0,4480.0
5.4975,-13568.0,-2944.0,4544.0
5.5,-13632.0,-2944.0,4480.0
5.5025,-13760.0,-2880.0,4416.0
5.505,-13888.0,-2816.0,4352.0
5.5075,-13952.0,-2752.0,4288.0
5.51,-14016.0,-2816.0,4352.0
5.5125,-14144.0,-2816.0,4224.0
5.515,-14144.0,-2816.0,4224.0
5.5175,-14272.0,-2688.0,4352.0
5.52,-14464.0,-2752.0,4288.0
5.5225,-14592.0,-2688.0,4352.0
5.525,-14656.0,-2752.0,4416.0
5.5275,-14720.0,-2752.0,4352.0
5.53,-14784.0,-2688.0,4352.0
5.5325,-14784.0,-2688.0,4416.0
5.535,-14912.0,-2752.0,4544.0
5.5375,-14976.0,-2688.0,4672.0
5.54,-14976.0,-2752.0,4608.0
5.5425,-14912.0,-2816.0,4608.0
5.545,-14848.0,-2816.0,4672.0
5.5475,-14912.0,-2752.0,4672.0
5.55,-14848.0,-2688.0,4672.0
5.5525,-14784.0,-2688.0,4800.0
5.555,-14784.0,-2688.0,4800.0
5.5575,-14784.0,-2752.0,4864.0
5.56,-14784.0,-2752.0,4864.0
5.5625,-14784.0,-2816.0,4800.0
5.565,-14656.0,-2816.0,4928.0
5.5675,-14592.0,-2752.0,4992.0
5.57,-14528.0,-2688.0,5120.0
5.5725,-14464.0,-2688.0,4992.0
5.575,-14528.0,-2624.0,5056.0
5.5775,-14400.0,-2688.0,5120.0
5.58,-14336.0,-2688.0,5120.0
5.5825,-14336.0,-2688.0,5248.0
5.585,-14272.0,-2624.0,5248.0
5.5875,-14272.0,-2624.0,5184.0
5.59,-14208.0,-2688.0,5248.0
5.5925,-14144.0,-2688.0,5248.0
5.595,-14144.0,-2688.0,5312.0
5.5975,-14144.0,-2688.0,5248.0
5.6,-14080.0,-2624.0,5184.0
5.6025,-14016.0,-2560.0,5248.0
5.605,-14016.0,-2496.0,5184.0
5.6075,-13952.0,-2496.0,5120.0
5.61,-14016.0,-2496.0,4992.0
5.6125,-14016.0,-2432.0,4992.0
5.615,-13952.0,-2496.0,5120.0
5.6175,-13888.0,-2496.0,4992.0
5.62,-13824.0,-2496.0,4928.0
5.6225,-13760.0,-2560.0,4992.0
5.625,-13760.0,-2560.0,4928.0
5.6275,-13824.0,-2496.0,4864.0
5.63,-13824.0,-2432.0,4928.0
5.6325,-13760.0,-2496.0,4992.0
5.635,-13696.0,-2624.0,5056.0
5.6375,-13632.0,-2688.0,4992.0
5.64,-13632.0,-2752.0,5056.0
5.6425,-13632.0,-2816.0,4992.0
5.645,-13568.0,-2880.0,4928.0
5.6475,-13568.0,-2816.0,4992.0
5.65,-13568.0,-2816.0,5056.0
5.6525,-13568.0,-2944.0,4992.0
5.655,-13568.0,-3008.0,4992.0
5.6575,-13568.0,-3072.0,4992.0
5.66,-13504.0,-3008.0,5056.0
5.6625,-13568.0,-2944.0,5120.0
5.665,-13568.0,-2944.0,5120.0
5.6675,-13504.0,-2944.0,5120.0
5.67,-13568.0,-2944.0,5120.0
5.6725,-13568.0,-2944.0,5056.0
5.675,-13632.0,-3008.0,5056.0
5.6775,-13632.0,-3008.0,4992.0
5.68,-13760.0,-2944.0,4928.0
5.6825,-13696.0,-3008.0,4800.0
5.685,-13760.0,-3008.0,4672.0
5.6875,-13824.0,-2944.0,4672.0
5.69,-13888.0,-2944.0,4544.0
5.6925,-13888.0,-2880.0,4608.0
5.695,-13888.0,-2880.0,4672.0
5.6975,-13888.0,-2816.0,4672.0
5.7,-13952.0,-2816.0,4672.0
5.7025,-13952.0,-2816.0,4672.0
5.705,-14080.0,-2816.0,4608.0
5.7075,-14016.0,-2880.0,4672.0
5.71,-14080.0,-2944.0,4672.0
5.7125,-14208.0,-2880.0,4608.0
5.715,-14208.0,-2944.0,4544.0
5.7175,-14208.0,-2944.0,4544.0
5.72,-14272.0,-3008.0,4480.0
5.7225,-14336.0,-3136.0,4480.0
5.725,-14400.0,-3072.0,4480.0
5.7275,-14336.0,-3072.0,4480.0
5.73,-14464.0,-3072.0,4352.0
5.7325,-14528.0,-3136.0,4352.0
5.735,-14592.0,-3072.0,4416.0
5.7375,-14592.0,-3072.0,4352.0
5.74,-14720.0,-3136.0,4416.0
5.7425,-14720.0,-3072.0,4352.0
5.745,-14720.0,-3136.0,4352.0
5.7475,-14848.0,-3136.0,4288.0
5.75,-14912.0,-3136.0,4288.0
5.7525,-14912.0,-3136.0,4288.0
5.755,-14976.0,-3200.0,4224.0
5.7575,-14976.0,-3200.0,4352.0
5.76,-15040.0,-3200.0,4224.0
5.7625,-15040.0,-3264.0,4224.0
5.765,-15040.0,-3200.0,4224.0
5.7675,-15104.0,-3264.0,4224.0
5.77,-15104.0,-3328.0,4224.0
5.7725,-15104.0,-3264.0,4160.0
5.775,-15232.0,-3328.0,4288.0
5.7775,-15168.0,-3328.0,4224.0
5.78,-15232.0,-3328.0,4288.0
5.7825,-15168.0,-3328.0,4224.0
5.785,-15104.0,-3328.0,4160.0
5.7875,-15104.0,-3328.0,4224.0
5.79,-15104.0,-3328.0,4224.0
5.7925,-15104.0,-3392.0,4224.0
5.795,-15104.0,-3520.0,4224.0
5.7975,-15104.0,-3520.0,4224.0
5.8,-15104.0,-3520.0,4160.0
5.8025,-15104.0,-3520.0,4224.0
5.805,-15040.0,-3520.0,4224.0
5.8075,-15104.0,-3520.0,4160.0
5.81,-15104.0,-3520.0,4224.0
5.8125,-15040.0,-3520.0,4160.0
5.815,-15040.0,-3520.0,4224.0
5.8175,-15040.0,-3456.0,4160.0
5.82,-15040.0,-3456.0,4096.0
5.8225,-14976.0,-3456.0,4096.0
5.825,-15040.0,-3456.0,4096.0
5.8275,-15040.0,-3456.0,4160.0
5.83,-15040.0,-3392.0,4224.0
5.8325,-14976.0,-3456.0,4160.0
5.835,-14976.0,-3520.0,4224.0
5.8375,-14912.0,-3456.0,4224.0
5.84,-14912.0,-3456.0,4288.0
5.8425,-14912.0,-3520.0,4352.0
5.845,-14848.0,-3456.0,4352.0
5.8475,-14784.0,-3456.0,4288.0
5.85,-14784.0,-3456.0,4224.0
5.8525,-14784.0,-3392.0,4288.0
5.855,-14848.0,-3328.0,4288.0
5.8575,-14912.0,-3328.0,4416.0
5.86,-14912.0,-3392.0,4416.0
5.8625,-14912.0,-3456.0,4352.0
5.865,-14912.0,-3456.0,4288.0
5.8675,-14912.0,-3456.0,4480.0
5.87,-14912.0,-3456.0,4416.0
5.8725,-15040.0,-3456.0,4416.0
5.875,-15040.0,-3520.0,4480.0
5.8775,-15104.0,-3520.0,4416.0
5.88,-15104.0,-3584.0,4480.0
5.8825,-15040.0,-3584.0,4416.0
5.885,-15104.0,-3584.0,4480.0
5.8875,-14976.0,-3584.0,4480.0
5.89,-15040.0,-3648.0,4480.0
5.8925,-15040.0,-3648.0,4480.0
5.895,-14976.0,-3648.0,4544.0
5.8975,-14912.0,-3648.0,4544.0
5.9,-14848.0,-3648.0,4608.0
5.9025,-14848.0,-3584.0,4672.0
5.905,-14720.0,-3456.0,4608.0
5.9075,-14720.0,-3392.0,4608.0
5.91,-14656.0,-3584.0,4608.0
5.9125,-14592.0,-3648.0,4544.0
5.915,-14528.0,-3712.0,4608.0
5.9175,-14592.0,-3712.0,4608.0
5.92,-14400.0,-3648.0,4608.0
5.9225,-14336.0,-3584.0,4544.0
5.925,-14272.0,-3648.0,4544.0
5.9275,-14272.0,-3776.0,4608.0
5.93,-14208.0,-3776.0,4544.0
5.9325,-14208.0,-3776.0,4544.0
5.935,-14208.0,-3776.0,4544.0
5.9375,-14208.0,-3776.0,4608.0
5.94,-14080.0,-3776.0,4544.0
5.9425,-14080.0,-3648.0,4544.0
5.945,-14080.0,-3584.0,4672.0
5.9475,-14144.0,-3648.0,4608.0
5.95,-14080.0,-3712.0,4672.0
5.9525,-14080.0,-3776.0,4608.0
5.955,-14080.0,-3712.0,4672.0
5.9575,-14080.0,-3712.0,4800.0
5.96,-14080.0,-3776.0,4800.0
5.9625,-14080.0,-3776.0,4864.0
5.965,-14144.0,-3776.0,4864.0
5.9675,-14144.0,-3840.0,4864.0
5.97,-14208.0,-3840.0,4864.0
5.9725,-14208.0,-3904.0,4928.0
5.975,-14144.0,-3840.0,4928.0
5.9775,-14144.0,-3904.0,4992.0
5.98,-14144.0,-3904.0,4992.0
5.9825,-14208.0,-3840.0,5056.0
5.985,-14272.0,-3840.0,5120.0
5.9875,-14272.0,-3840.0,5120.0
5.99,-14208.0,-3904.0,5056.0
5.9925,-14208.0,-3968.0,5120.0
5.995,-14208.0,-3968.0,5120.0
5.9975,-14208.0,-3968.0,5120.0
6.0,-14336.0,-3968.0,5056.0
6.0025,-14336.0,-3968.0,5120.0
6.005,-14272.0,-3968.0,5120.0
6.0075,-14208.0,-3968.0,4992.0
6.01,-14144.0,-4032.0,4928.0
6.0125,-14144.0,-4096.0,5056.0
6.015,-14144.0,-4096.0,5120.0
6.0175,-14144.0,-4096.0,4992.0
6.02,-14144.0,-4096.0,5056.0
6.0225,-14080.0,-4096.0,4992.0
6.025,-14080.0,-4160.0,5120.0
6.0275,-14080.0,-4224.0,5120.0
6.03,-14080.0,-4224.0,5056.0
6.0325,-14016.0,-4160.0,5120.0
6.035,-14016.0,-4160.0,5056.0
6.0375,-14016.0,-4096.0,5184.0
6.04,-13952.0,-4224.0,5120.0
6.0425,-13888.0,-4288.0,5184.0
6.045,-13888.0,-4352.0,5120.0
6.0475,-13952.0,-4288.0,5120.0
6.05,-13952.0,-4352.0,5056.0
6.0525,-13952.0,-4352.0,5056.0
6.055,-14016.0,-4352.0,5120.0
6.0575,-14016.0,-4352.0,5120.0
6.06,-14016.0,-4352.0,5056.0
6.0625,-14080.0,-4352.0,5056.0
6.065,-14144.0,-4352.0,5120.0
6.0675,-14208.0,-4416.0,5120.0
6.07,-14272.0,-4480.0,5120.0
6.0725,-14336.0,-4480.0,5120.0
6.075,-14400.0,-4480.0,5248.0
6.0775,-14400.0,-4416.0,5184.0
6.08,-14592.0,-4480.0,5120.0
6.0825,-14656.0,-4544.0,5184.0
6.085,-14720.0,-4544.0,5184.0
6.0875,-14720.0,-4480.0,5248.0
6.09,-14656.0,-4480.0,5184.0
6.0925,-14720.0,-4480.0,5248.0
6.095,-14720.0,-4480.0,5248.0
6.0975,-14784.0,-4416.0,5312.0
6.1,-14784.0,-4480.0,5440.0
6.1025,-14784.0,-4480.0,5312.0
6.105,-14848.0,-4544.0,5312.0
6.1075,-14848.0,-4608.0,5376.0
6.11,-14848.0,-4608.0,5312.0
6.1125,-14784.0,-4608.0,5312.0
6.115,-14784.0,-4608.0,5312.0
6.1175,-14784.0,-4672.0,5312.0
6.12,-14656.0,-4544.0,5376.0
6.1225,-14656.0,-4544.0,5312.0
6.125,-14592.0,-4672.0,5312.0
6.1275,-14592.0,-4672.0,5312.0
6.13,-14656.0,-4672.0,5312.0
6.1325,-14592.0,-4672.0,5248.0
6.135,-14592.0,-4608.0,5248.0
6.1375,-14592.0,-4608.0,5312.0
6.14,-14528.0,-4544.0,5312.0
6.1425,-14528.0,-4672.0,5312.0
6.145,-14464.0,-4736.0,5248.0
6.1475,-14464.0,-4736.0,5312.0
6.15,-14464.0,-4736.0,5312.0
6.1525,-14400.0,-4672.0,5312.0
6.155,-14336.0,-4608.0,5312.0
6.1575,-14272.0,-4672.0,5312.0
6.16,-14272.0,-4736.0,5376.0
6.1625,-14272.0,-4608.0,5312.0
6.165,-14208.0,-4608.0,5312.0
6.1675,-14208.0,-4608.0,5312.0
6.17,-14208.0,-4608.0,5312.0
6.1725,-14272.0,-4608.0,5376.0
6.175,-14208.0,-4608.0,5376.0
6.1775,-14208.0,-4672.0,5376.0
6.18,-14144.0,-4608.0,5312.0
6.1825,-14080.0,-4608.0,5376.0
6.185,-14016.0,-4608.0,5312.0
6.1875,-14080.0,-4608.0,5376.0
6.19,-14080.0,-4608.0,5440.0
6.1925,-14144.0,-4672.0,5376.0
6.195,-14144.0,-4672.0,5376.0
6.1975,-14144.0,-4736.0,5440.0
6.2,-14144.0,-4736.0,5376.0
6.2025,-14144.0,-4736.0,5376.0
6.205,-14208.0,-4672.0,5440.0
6.2075,-14208.0,-4608.0,5504.0
6.21,-14208.0,-4608.0,5632.0
6.2125,-14208.0,-4736.0,5568.0
6.215,-14208.0,-4800.0,5568.0
6.2175,-14208.0,-4736.0,5504.0
6.22,-14272.0,-4800.0,5504.0
6.2225,-14272.0,-4800.0,5440.0
6.225,-14208.0,-4736.0,5440.0
6.2275,-14208.0,-4672.0,5504.0
6.23,-14208.0,-4608.0,5504.0
6.2325,-14144.0,-4736.0,5504.0
6.235,-14144.0,-4800.0,5440.0
6.2375,-14144.0,-4928.0,5376.0
6.24,-14272.0,-4864.0,5376.0
6.2425,-14144.0,-4864.0,5312.0
6.245,-14080.0,-4800.0,5312.0
6.2475,-14080.0,-4800.0,5312.0
6.25,-14144.0,-4800.0,5248.0
6.2525,-14272.0,-4800.0,5312.0
6.255,-14272.0,-4800.0,5312.0
6.2575,-14272.0,-4736.0,5248.0
6.26,-14272.0,-4736.0,5312.0
6.2625,-14272.0,-4736.0,5184.0
6.265,-14400.0,-4736.0,5120.0
6.2675,-14464.0,-4800.0,5184.0
6.27,-14592.0,-4800.0,5248.0
6.2725,-14592.0,-4800.0,5248.0
6.275,-14720.0,-4800.0,5248.0
6.2775,-14720.0,-4864.0,5248.0
6.28,-14784.0,-4864.0,5248.0
6.2825,-14848.0,-4864.0,5248.0
6.285,-14976.0,-4800.0,5248.0
6.2875,-14976.0,-4864.0,5248.0
6.29,-14976.0,-4864.0,5312.0
6.2925,-14976.0,-4864.0,5312.0
6.295,-14976.0,-4800.0,5376.0
6.2975,-14976.0,-4800.0,5312.0
6.3,-14976.0,-4800.0,5248.0
6.3025,-14976.0,-4736.0,5248.0
6.305,-14976.0,-4736.0,5312.0
6.3075,-15040.0,-4736.0,5248.0
6.31,-14976.0,-4736.0,5248.0
6.3125,-14912.0,-4800.0,5184.0
6.315,-14912.0,-4864.0,5184.0
6.3175,-14848.0,-4800.0,5184.0
6.32,-14848.0,-4864.0,5184.0
6.3225,-14848.0,-4928.0,5184.0
6.325,-14848.0,-4928.0,5184.0
6.3275,-14784.0,-4864.0,5056.0
6.33,-14848.0,-4864.0,5184.0
6.3325,-14784.0,-4928.0,5120.0
6.335,-14784.0,-4928.0,5184.0
6.3375,-14720.0,-4928.0,5184.0
6.34,-14784.0,-4928.0,5120.0
6.3425,-14720.0,-4928.0,5120.0
6.345,-14720.0,-4928.0,5120.0
6.3475,-14656.0,-4800.0,5056.0
6.35,-14656.0,-4800.0,4992.0
6.3525,-14720.0,-4800.0,4992.0
6.355,-14720.0,-4864.0,5056.0
6.3575,-14784.0,-4800.0,5056.0
6.36,-14784.0,-4800.0,5056.0
6.3625,-14848.0,-4864.0,5056.0
6.365,-14912.0,-4800.0,5056.0
6.3675,-14976.0,-4800.0,4992.0
6.37,-15040.0,-4800.0,4992.0
6.3725,-15104.0,-4800.0,4992.0
6.375,-15168.0,-4800.0,4928.0
6.3775,-15296.0,-4800.0,4992.0
6.38,-15360.0,-4800.0,5056.0
6.3825,-15488.0,-4800.0,5056.0
6.385,-15552.0,-4800.0,5056.0
6.3875,-15616.0,-4800.0,5056.0
6.39,-15680.0,-4864.0,4992.0
6.3925,-15744.0,-4864.0,4992.0
6.395,-15744.0,-4864.0,4992.0
6.3975,-15744.0,-4928.0,4992.0
6.4,-15808.0,-4864.0,5056.0
6.4025,-15808.0,-4864.0,5056.0
6.405,-15808.0,-4800.0,4992.0
6.4075,-15808.0,-4864.0,5056.0
6.41,-15744.0,-4928.0,4928.0
6.4125,-15680.0,-4864.0,4928.0
6.415,-15744.0,-4864.0,4928.0
6.4175,-15680.0,-4864.0,4928.0
6.42,-15680.0,-4864.0,4992.0
6.4225,-15680.0,-4864.0,4928.0
6.425,-15616.0,-4864.0,4928.0
6.4275,-15616.0,-4864.0,4864.0
6.43,-15552.0,-4800.0,4864.0
6.4325,-15552.0,-4800.0,4928.0
6.435,-15552.0,-4800.0,4928.0
6.4375,-15552.0,-4800.0,4928.0
6.44,-15552.0,-4736.0,4928.0
6.4425,-15616.0,-4800.0,4928.0
6.445,-15616.0,-4736.0,4928.0
6.4475,-15552.0,-4672.0,4928.0
6.45,-15488.0,-4672.0,4992.0
6.4525,-15488.0,-4672.0,4992.0
6.455,-15424.0,-4608.0,4992.0
6.4575,-15360.0,-4608.0,4992.0
6.46,-15296.0,-4608.0,5120.0
6.4625,-15168.0,-4544.0,5056.0
6.465,-15168.0,-4544.0,5056.0
6.4675,-15104.0,-4480.0,4928.0
6.47,-15040.0,-4480.0,4992.0
6.4725,-14976.0,-4416.0,4864.0
6.475,-14976.0,-4416.0,4864.0
6.4775,-14848.0,-4352.0,4864.0
6.48,-14784.0,-4416.0,4928.0
6.4825,-14720.0,-4352.0,4928.0
6.485,-14656.0,-4352.0,4800.0
6.4875,-14656.0,-4352.0,4800.0
6.49,-14656.0,-4352.0,4800.0
6.4925,-14592.0,-4352.0,4736.0
6.495,-14592.0,-4416.0,4736.0
6.4975,-14528.0,-4352.0,4736.0
6.5,-14528.0,-4352.0,4736.0
6.5025,-14464.0,-4352.0,4672.0
6.505,-14400.0,-4288.0,4672.0
6.5075,-14400.0,-4288.0,4736.0
6.51,-14336.0,-4288.0,4800.0
6.5125,-14336.0,-4224.0,4800.0
6.515,-14272.0,-4224.0,4736.0
6.5175,-14336.0,-4288.0,4672.0
6.52,-14400.0,-4288.0,4672.0
6.5225,-14336.0,-4224.0,4736.0
6.525,-14336.0,-4288.0,4736.0
6.5275,-14272.0,-4224.0,4800.0
6.53,-14272.0,-4288.0,4736.0
6.5325,-14336.0,-4288.0,4736.0
6.535,-14400.0,-4224.0,4672.0
6.5375,-14464.0,-4288.0,4608.0
6.54,-14400.0,-4288.0,4608.0
6.5425,-14400.0,-4288.0,4608.0
6.545,-14464.0,-4288.0,4608.0
6.5475,-14464.0,-4352.0,4608.0
6.55,-14464.0,-4352.0,4608.0
6.5525,-14464.0,-4288.0,4672.0
6.555,-14528.0,-4288.0,4672.0
6.5575,-14528.0,-4352.0,4672.0
6.56,-14528.0,-4288.0,4672.0
6.5625,-14592.0,-4288.0,4672.0
6.565,-14528.0,-4288.0,4608.0
6.5675,-14528.0,-4288.0,4544.0
6.57,-14592.0,-4288.0,4608.0
6.5725,-14592.0,-4224.0,4544.0
6.575,-14528.0,-4224.0,4608.0
6.5775,-14528.0,-4224.0,4608.0
6.58,-14592.0,-4224.0,4544.0
6.5825,-14592.0,-4288.0,4544.0
6.585,-14528.0,-4224.0,4608.0
6.5875,-14656.0,-4288.0,4608.0
6.59,-14528.0,-4224.0,4544.0
6.5925,-14528.0,-4224.0,4480.0
6.595,-14592.0,-4224.0,4480.0
6.5975,-14592.0,-4224.0,4480.0
6.6,-14592.0,-4224.0,4480.0
6.6025,-14656.0,-4224.0,4480.0
6.605,-14656.0,-4160.0,4416.0
6.6075,-14784.0,-4224.0,4416.0
6.61,-14784.0,-4224.0,4416.0
6.6125,-14848.0,-4224.0,4352.0
6.615,-14912.0,-4224.0,4352.0
6.6175,-14912.0,-4224.0,4416.0
6.62,-14976.0,-4224.0,4416.0
6.6225,-15040.0,-4288.0,4480.0
6.625,-15040.0,-4288.0,4416.0
6.6275,-15104.0,-4288.0,4480.0
6.63,-15232.0,-4352.0,4416.0
6.6325,-15296.0,-4352.0,4416.0
6.635,-15296.0,-4352.0,4416.0
6.6375,-15360.0,-4352.0,4352.0
6.64,-15488.0,-4352.0,4352.0
6.6425,-15488.0,-4352.0,4288.0
6.645,-15552.0,-4352.0,4288.0
6.6475,-15488.0,-4288.0,4224.0
6.65,-15552.0,-4288.0,4288.0
6.6525,-15616.0,-4288.0,4288.0
6.655,-15616.0,-4288.0,4352.0
6.6575,-15680.0,-4352.0,4288.0
6.66,-15680.0,-4352.0,4224.0
6.6625,-15680.0,-4416.0,4288.0
6.665,-15744.0,-4416.0,4288.0
6.6675,-15808.0,-4416.0,4288.0
6.67,-15808.0,-4416.0,4288.0
6.6725,-15808.0,-4416.0,4224.0
6.675,-15808.0,-4352.0,4224.0
6.6775,-15808.0,-4352.0,4224.0
6.68,-15744.0,-4352.0,4224.0
6.6825,-15680.0,-4352.0,4352.0
6.685,-15744.0,-4352.0,4288.0
6.6875,-15680.0,-4288.0,4288.0
6.69,-15744.0,-4288.0,4352.0
6.6925,-15616.0,-4224.0,4288.0
6.695,-15680.0,-4224.0,4288.0
6.6975,-15680.0,-4224.0,4352.0
6.7,-15616.0,-4224.0,4288.0
6.7025,-15616.0,-4224.0,4352.0
6.705,-15616.0,-4224.0,4352.0
6.7075,-15680.0,-4224.0,4352.0
6.71,-15552.0,-4224.0,4352.0
6.7125,-15552.0,-4224.0,4352.0
6.715,-15616.0,-4160.0,4288.0
6.7175,-15616.0,-4224.0,4288.0
6.72,-15616.0,-4160.0,4224.0
6.7225,-15616.0,-4160.0,4224.0
6.725,-15552.0,-4160.0,4224.0
6.7275,-15616.0,-4160.0,4288.0
6.73,-15616.0,-4096.0,4288.0
6.7325,-15552.0,-4160.0,4160.0
6.735,-15552.0,-4160.0,4160.0
6.7375,-15616.0,-4160.0,4352.0
6.74,-15552.0,-3968.0,4480.0
6.7425,-15552.0,-3968.0,4480.0
6.745,-15488.0,-4032.0,4416.0
6.7475,-15552.0,-4096.0,4544.0
6.75,-15488.0,-4096.0,4480.0
6.7525,-15488.0,-4032.0,4480.0
6.755,-15552.0,-4032.0,4416.0
6.7575,-15552.0,-4032.0,4416.0
6.76,-15488.0,-4032.0,4480.0
6.7625,-15488.0,-4032.0,4544.0
6.765,-15424.0,-4032.0,4544.0
6.7675,-15488.0,-4096.0,4544.0
6.77,-15488.0,-4032.0,4544.0
6.7725,-15488.0,-4032.0,4608.0
6.775,-15424.0,-3968.0,4608.0
6.7775,-15360.0,-3968.0,4608.0
6.78,-15360.0,-3904.0,4608.0
6.7825,-15296.0,-3904.0,4672.0
6.785,-15296.0,-3904.0,4608.0
6.7875,-15232.0,-3840.0,4608.0
6.79,-15232.0,-3840.0,4544.0
6.7925,-15232.0,-3840.0,4480.0
6.795,-15232.0,-3840.0,4544.0
6.7975,-15232.0,-3840.0,4544.0
6.8,-15104.0,-3840.0,4544.0
6.8025,-15040.0,-3776.0,4608.0
6.805,-15040.0,-3776.0,4608.0
6.8075,-14976.0,-3840.0,4480.0
6.81,-14976.0,-3840.0,4608.0
6.8125,-14912.0,-3776.0,4544.0
6.815,-14976.0,-3776.0,4544.0
6.8175,-14912.0,-3776.0,4544.0
6.82,-14976.0,-3840.0,4480.0
6.8225,-14912.0,-3776.0,4416.0
6.825,-14848.0,-3776.0,4480.0
6.8275,-14848.0,-3776.0,4544.0
6.83,-14848.0,-3776.0,4480.0
6.8325,-14912.0,-3840.0,4416.0
6.835,-14912.0,-3840.0,4480.0
6.8375,-14912.0,-3840.0,4480.0
6.84,-14912.0,-3840.0,4480.0
6.8425,-14912.0,-3840.0,4416.0
6.845,-14912.0,-3840.0,4480.0
6.8475,-14912.0,-3840.0,4416.0
6.85,-14912.0,-3904.0,4352.0
6.8525,-14912.0,-3904.0,4352.0
6.855,-14848.0,-3968.0,4352.0
6.8575,-14848.0,-3968.0,4352.0
6.86,-14912.0,-3968.0,4288.0
6.8625,-14848.0,-3968.0,4352.0
6.865,-14784.0,-3968.0,4352.0
6.8675,-14848.0,-3968.0,4352.0
6.87,-14848.0,-4096.0,4288.0
6.8725,-14784.0,-4032.0,4352.0
6.875,-14720.0,-4032.0,4352.0
6.8775,-14656.0,-4032.0,4352.0
6.88,-14592.0,-4096.0,4352.0
6.8825,-14592.0,-4032.0,4288.0
6.885,-14528.0,-4032.0,4288.0
6.8875,-14464.0,-4032.0,4288.0
6.89,-14336.0,-4032.0,4288.0
6.8925,-14400.0,-4096.0,4288.0
6.895,-14208.0,-4032.0,4352.0
6.8975,-14080.0,-4032.0,4352.0
6.9,-14016.0,-4032.0,4416.0
6.9025,-13888.0,-4032.0,4352.0
6.905,-13760.0,-4032.0,4352.0
6.9075,-13760.0,-4032.0,4352.0
6.91,-13760.0,-4032.0,4288.0
6.9125,-13696.0,-4096.0,4288.0
6.915,-13632.0,-4096.0,4288.0
6.9175,-13632.0,-4096.0,4288.0
6.92,-13568.0,-4096.0,4288.0
6.9225,-13568.0,-4096.0,4416.0
6.925,-13504.0,-4096.0,4352.0
6.9275,-13568.0,-4096.0,4416.0
6.93,-13568.0,-4160.0,4352.0
6.9325,-13632.0,-4096.0,4352.0
6.935,-13632.0,-4160.0,4352.0
6.9375,-13696.0,-4160.0,4352.0
6.94,-13760.0,-4096.0,4352.0
6.9425,-13824.0,-4160.0,4352.0
6.945,-13952.0,-4160.0,4352.0
6.9475,-14016.0,-4224.0,4288.0
6.95,-14144.0,-4224.0,4352.0
6.9525,-14336.0,-4288.0,4288.0
6.955,-14336.0,-4288.0,4288.0
6.9575,-14400.0,-4288.0,4224.0
6.96,-14592.0,-4288.0,4288.0
6.9625,-14720.0,-4416.0,4288.0
6.965,-14784.0,-4352.0,4288.0
6.9675,-14784.0,-4352.0,4288.0
6.97,-14912.0,-4352.0,4288.0
6.9725,-14912.0,-4416.0,4288.0
6.975,-14976.0,-4480.0,4288.0
6.9775,-15040.0,-4480.0,4352.0
6.98,-15104.0,-4416.0,4352.0
6.9825,-15040.0,-4480.0,4288.0
6.985,-15040.0,-4608.0,4352.0
6.9875,-15104.0,-4608.0,4352.0
6.99,-15040.0,-4544.0,4288.0
6.9925,-15040.0,-4544.0,4224.0
6.995,-15040.0,-4480.0,4224.0
6.9975,-14976.0,-4544.0,4288.0
7.0,-14976.0,-4544.0,4288.0
7.0025,-14912.0,-4544.0,4352.0
7.005,-14976.0,-4544.0,4416.0
7.0075,-14912.0,-4544.0,4352.0
7.01,-14784.0,-4608.0,4352.0
7.0125,-14784.0,-4608.0,4416.0
7.015,-14848.0,-4608.0,4416.0
7.0175,-14784.0,-4672.0,4416.0
7.02,-14720.0,-4672.0,4352.0
7.0225,-14720.0,-4608.0,4352.0
7.025,-14720.0,-4672.0,4416.0
7.0275,-14656.0,-4608.0,4480.0
7.03,-14784.0,-4544.0,4416.0
7.0325,-14784.0,-4544.0,4416.0
7.035,-14784.0,-4544.0,4416.0
7.0375,-14784.0,-4480.0,4480.0
7.04,-14784.0,-4416.0,4480.0
7.0425,-14784.0,-4480.0,4480.0
7.045,-14720.0,-4416.0,4480.0
7.0475,-14784.0,-4416.0,4480.0
7.05,-14784.0,-4416.0,4544.0
7.0525,-14848.0,-4480.0,4544.0
7.055,-14848.0,-4480.0,4544.0
7.0575,-14848.0,-4416.0,4480.0
7.06,-14784.0,-4416.0,4416.0
7.0625,-14784.0,-4416.0,4480.0
7.065,-14784.0,-4416.0,4544.0
7.0675,-14784.0,-4416.0,4480.0
7.07,-14784.0,-4416.0,4416.0
7.0725,-14720.0,-4416.0,4416.0
7.075,-14720.0,-4416.0,4416.0
7.0775,-14720.0,-4416.0,4416.0
7.08,-14720.0,-4416.0,4416.0
7.0825,-14656.0,-4352.0,4352.0
7.085,-14656.0,-4352.0,4416.0
7.0875,-14656.0,-4352.0,4416.0
7.09,-14528.0,-4352.0,4416.0
7.0925,-14528.0,-4288.0,4288.0
7.095,-14464.0,-4288.0,4288.0
7.0975,-14464.0,-4288.0,4416.0
7.1,-14400.0,-4288.0,4352.0
7.1025,-14336.0,-4288.0,4352.0
7.105,-14272.0,-4288.0,4416.0
7.1075,-14272.0,-4288.0,4416.0
7.11,-14208.0,-4224.0,4416.0
7.1125,-14208.0,-4352.0,4352.0
7.115,-14144.0,-4288.0,4416.0
7.1175,-14080.0,-4288.0,4416.0
7.12,-14144.0,-4288.0,4416.0
7.1225,-14208.0,-4352.0,4416.0
7.125,-14272.0,-4288.0,4416.0
7.1275,-14272.0,-4224.0,4352.0
7.13,-14272.0,-4224.0,4480.0
7.1325,-14336.0,-4224.0,4352.0
7.135,-14336.0,-4288.0,4352.0
7.1375,-14400.0,-4288.0,4352.0
7.14,-14464.0,-4224.0,4352.0
7.1425,-14400.0,-4288.0,4352.0
7.145,-14528.0,-4288.0,4352.0
7.1475,-14528.0,-4352.0,4352.0
7.15,-14592.0,-4352.0,4288.0
7.1525,-14592.0,-4352.0,4224.0
7.155,-14592.0,-4352.0,4224.0
7.1575,-14656.0,-4416.0,4160.0
7.16,-14656.0,-4352.0,4224.0
7.1625,-14656.0,-4416.0,4224.0
7.165,-14656.0,-4416.0,4224.0
7.1675,-14656.0,-4480.0,4224.0
7.17,-14720.0,-4480.0,4288.0
7.1725,-14720.0,-4480.0,4288.0
7.175,-14720.0,-4480.0,4288.0
7.1775,-14656.0,-4480.0,4288.0
7.18,-14656.0,-4480.0,4288.0
7.1825,-14656.0,-4480.0,4288.0
7.185,-14656.0,-4480.0,4352.0
7.1875,-14656.0,-4480.0,4288.0
7.19,-14656.0,-4544.0,4352.0
7.1925,-14592.0,-4544.0,4352.0
7.195,-14592.0,-4544.0,4352.0
7.1975,-14528.0,-4480.0,4352.0
7.2,-14528.0,-4480.0,4224.0
7.2025,-14528.0,-4544.0,4224.0
7.205,-14400.0,-4544.0,4288.0
7.2075,-14464.0,-4544.0,4224.0
7.21,-14400.0,-4544.0,4160.0
7.2125,-14400.0,-4544.0,4160.0
7.215,-14400.0,-4544.0,4160.0
7.2175,-14400.0,-4544.0,4160.0
7.22,-14400.0,-4608.0,4160.0
7.2225,-14400.0,-4544.0,4160.0
7.225,-14464.0,-4544.0,4160.0
7.2275,-14400.0,-4544.0,4096.0
7.23,-14400.0,-4544.0,4160.0
7.2325,-14528.0,-4544.0,4160.0
7.235,-14528.0,-4608.0,4160.0
7.2375,-14592.0,-4608.0,4160.0
7.24,-14656.0,-4608.0,4160.0
7.2425,-14656.0,-4608.0,4224.0
7.245,-14720.0,-4608.0,4288.0
7.2475,-14784.0,-4672.0,4288.0
7.25,-14848.0,-4608.0,4224.0
7.2525,-14848.0,-4736.0,4224.0
7.255,-14912.0,-4736.0,4288.0
7.2575,-14912.0,-4736.0,4288.0
7.26,-14976.0,-4736.0,4288.0
7.2625,-14976.0,-4800.0,4352.0
7.265,-15040.0,-4864.0,4352.0
7.2675,-15104.0,-4928.0,4352.0
7.27,-15104.0,-4928.0,4288.0
7.2725,-15104.0,-4864.0,4352.0
7.275,-15168.0,-4864.0,4352.0
7.2775,-15232.0,-4864.0,4352.0
7.28,-15296.0,-4928.0,4416.0
7.2825,-15296.0,-4928.0,4480.0
7.285,-15296.0,-4928.0,4480.0
7.2875,-15360.0,-4928.0,4480.0
7.29,-15232.0,-4992.0,4416.0
7.2925,-15360.0,-4992.0,4480.0
7.295,-15360.0,-5056.0,4480.0
7.2975,-15296.0,-5056.0,4480.0
7.3,-15360.0,-4992.0,4480.0
7.3025,-15296.0,-4992.0,4416.0
7.305,-15360.0,-4992.0,4480.0
7.3075,-15488.0,-4928.0,4480.0
7.31,-15424.0,-4928.0,4544.0
7.3125,-15424.0,-4928.0,4544.0
7.315,-15488.0,-4928.0,4544.0
7.3175,-15424.0,-4928.0,4480.0
7.32,-15488.0,-4928.0,4544.0
7.3225,-15488.0,-4864.0,4544.0
7.325,-15552.0,-4864.0,4544.0
7.3275,-15488.0,-4864.0,4544.0
7.33,-15488.0,-4864.0,4608.0
7.3325,-15552.0,-4800.0,4608.0
7.335,-15488.0,-4864.0,4672.0
7.3375,-15552.0,-4864.0,4736.0
7.34,-15616.0,-4800.0,4736.0
7.3425,-15616.0,-4864.0,4800.0
7.345,-15552.0,-4864.0,4800.0
7.3475,-15616.0,-4864.0,4864.0
7.35,-15680.0,-4864.0,4864.0
7.3525,-15744.0,-4800.0,4800.0
7.355,-15744.0,-4864.0,4864.0
7.3575,-15808.0,-4736.0,4800.0
7.36,-15808.0,-4672.0,4928.0
7.3625,-15808.0,-4672.0,4992.0
7.365,-15744.0,-4672.0,4928.0
7.3675,-15872.0,-4672.0,4864.0
7.37,-15808.0,-4672.0,4864.0
7.3725,-15872.0,-4672.0,4992.0
7.375,-15872.0,-4672.0,4800.0
7.3775,-15936.0,-4608.0,4800.0
7.38,-15936.0,-4608.0,4928.0
7.3825,-15936.0,-4544.0,4928.0
7.385,-15936.0,-4544.0,4928.0
7.3875,-16000.0,-4480.0,4864.0
7.39,-16000.0,-4480.0,4864.0
7.3925,-16064.0,-4416.0,4800.0
7.395,-16064.0,-4480.0,4800.0
7.3975,-16064.0,-4480.0,4800.0
7.4,-16064.0,-4480.0,4736.0
7.4025,-16128.0,-4416.0,4736.0
7.405,-16128.0,-4416.0,4736.0
7.4075,-16192.0,-4416.0,4672.0
7.41,-16256.0,-4352.0,4736.0
7.4125,-16256.0,-4416.0,4736.0
7.415,-16256.0,-4352.0,4736.0
7.4175,-16320.0,-4288.0,4736.0
7.42,-16320.0,-4352.0,4800.0
7.4225,-16448.0,-4288.0,4736.0
7.425,-16384.0,-4288.0,4800.0
7.4275,-16448.0,-4224.0,4736.0
7.43,-16512.0,-4224.0,4736.0
7.4325,-16512.0,-4160.0,4800.0
7.435,-16576.0,-4160.0,4864.0
7.4375,-16576.0,-4096.0,4800.0
7.44,-16640.0,-4096.0,4800.0
7.4425,-16576.0,-4096.0,4800.0
7.445,-16576.0,-4096.0,4672.0
7.4475,-16640.0,-4096.0,4736.0
7.45,-16640.0,-4032.0,4800.0
7.4525,-16640.0,-4032.0,4736.0
7.455,-16640.0,-4032.0,4800.0
7.4575,-16640.0,-4032.0,4736.0
7.46,-16640.0,-3968.0,4800.0
7.4625,-16640.0,-3968.0,4864.0
7.465,-16640.0,-3968.0,4864.0
7.4675,-16576.0,-3968.0,4864.0
7.47,-16576.0,-3968.0,4800.0
7.4725,-16576.0,-3968.0,4800.0
7.475,-16576.0,-4032.0,4800.0
7.4775,-16576.0,-3968.0,4800.0
7.48,-16640.0,-4032.0,4864.0
7.4825,-16640.0,-4032.0,4864.0
7.485,-16640.0,-3968.0,4800.0
7.4875,-16576.0,-4032.0,4864.0
7.49,-16512.0,-4032.0,4800.0
7.4925,-16576.0,-4032.0,4800.0
7.495,-16512.0,-4032.0,4864.0
7.4975,-16512.0,-3968.0,4736.0
7.5,-16512.0,-4032.0,4736.0
7.5025,-16512.0,-4032.0,4736.0
7.505,-16576.0,-4032.0,4672.0
7.5075,-16576.0,-4096.0,4672.0
7.51,-16512.0,-4096.0,4672.0
7.5125,-16512.0,-4032.0,4672.0
7.515,-16512.0,-4032.0,4608.0
7.5175,-16512.0,-4032.0,4608.0
7.52,-16448.0,-4096.0,4672.0
7.5225,-16448.0,-4032.0,4672.0
7.525,-16384.0,-4032.0,4672.0
7.5275,-16384.0,-4032.0,4544.0
7.53,-16384.0,-4032.0,4672.0
7.5325,-16448.0,-3968.0,4672.0
7.535,-16512.0,-4032.0,4672.0
7.5375,-16512.0,-4096.0,4608.0
7.54,-16512.0,-4160.0,4544.0
7.5425,-16512.0,-4096.0,4608.0
7.545,-16448.0,-4160.0,4544.0
7.5475,-16512.0,-4160.0,4480.0
7.55,-16512.0,-4160.0,4544.0
7.5525,-16448.0,-4160.0,4544.0
7.555,-16320.0,-4160.0,4480.0
7.5575,-16384.0,-4160.0,4544.0
7.56,-16320.0,-4160.0,4544.0
7.5625,-16256.0,-4160.0,4608.0
7.565,-16256.0,-4160.0,4544.0
7.5675,-16192.0,-4160.0,4544.0
7.57,-16192.0,-4096.0,4544.0
7.5725,-16192.0,-4160.0,4544.0
7.575,-16192.0,-4160.0,4480.0
7.5775,-16128.0,-4224.0,4480.0
7.58,-16128.0,-4224.0,4480.0
7.5825,-16064.0,-4224.0,4416.0
7.585,-16064.0,-4224.0,4480.0
7.5875,-16128.0,-4224.0,4480.0
7.59,-16128.0,-4224.0,4416.0
7.5925,-16192.0,-4224.0,4416.0
7.595,-16256.0,-4224.0,4480.0
7.5975,-16320.0,-4224.0,4480.0
7.6,-16320.0,-4288.0,4480.0
7.6025,-16384.0,-4288.0,4608.0
7.605,-16448.0,-4288.0,4672.0
7.6075,-16512.0,-4288.0,4608.0
7.61,-16512.0,-4288.0,4672.0
7.6125,-16640.0,-4352.0,4608.0
7.615,-16576.0,-4352.0,4608.0
7.6175,-16704.0,-4416.0,4672.0
7.62,-16704.0,-4416.0,4608.0
7.6225,-16768.0,-4352.0,4672.0
7.625,-16768.0,-4352.0,4736.0
7.6275,-16768.0,-4416.0,4672.0
7.63,-16704.0,-4416.0,4736.0
7.6325,-16768.0,-4416.0,4608.0
7.635,-16768.0,-4416.0,4672.0
7.6375,-16832.0,-4480.0,4736.0
7.64,-16768.0,-4416.0,4608.0
7.6425,-16768.0,-4480.0,4672.0
7.645,-16768.0,-4544.0,4608.0
7.6475,-16704.0,-4544.0,4544.0
7.65,-16704.0,-4544.0,4608.0
7.6525,-16704.0,-4544.0,4672.0
7.655,-16768.0,-4480.0,4736.0
7.6575,-16768.0,-4480.0,4736.0
7.66,-16768.0,-4544.0,4736.0
7.6625,-16768.0,-4544.0,4800.0
7.665,-16832.0,-4608.0,4800.0
7.6675,-16768.0,-4672.0,4864.0
7.67,-16768.0,-4736.0,4864.0
7.6725,-16768.0,-4736.0,4864.0
7.675,-16768.0,-4800.0,4928.0
7.6775,-16704.0,-4736.0,4928.0
7.68,-16704.0,-4736.0,4992.0
7.6825,-16704.0,-4736.0,4928.0
7.685,-16640.0,-4800.0,4928.0
7.6875,-16640.0,-4800.0,4992.0
7.69,-16576.0,-4800.0,5056.0
7.6925,-16512.0,-4800.0,5056.0
7.695,-16448.0,-4736.0,5056.0
7.6975,-16448.0,-4800.0,5056.0
7.7,-16384.0,-4800.0,5120.0
7.7025,-16256.0,-4800.0,5184.0
7.705,-16192.0,-4800.0,5184.0
7.7075,-16192.0,-4864.0,5120.0
7.71,-16128.0,-4864.0,5184.0
7.7125,-16000.0,-4864.0,5248.0
7.715,-15936.0,-4864.0,5312.0
7.7175,-15872.0,-4864.0,5376.0
7.72,-15744.0,-4864.0,5376.0
7.7225,-15744.0,-4864.0,5440.0
7.725,-15680.0,-4864.0,5376.0
7.7275,-15616.0,-4928.0,5440.0
7.73,-15552.0,-4928.0,5440.0
7.7325,-15424.0,-4928.0,5440.0
7.735,-15424.0,-4928.0,5440.0
7.7375,-15360.0,-4928.0,5440.0
7.74,-15296.0,-4992.0,5440.0
7.7425,-15360.0,-4992.0,5440.0
7.745,-15360.0,-5056.0,5440.0
7.7475,-15296.0,-5120.0,5504.0
7.75,-15296.0,-5184.0,5568.0
7.7525,-15296.0,-5248.0,5696.0
7.755,-15232.0,-5248.0,5696.0
7.7575,-15232.0,-5376.0,5760.0
7.76,-15168.0,-5440.0,5760.0
7.7625,-15104.0,-5440.0,5760.0
7.765,-15104.0,-5440.0,5696.0
7.7675,-15040.0,-5504.0,5824.0
7.77,-15104.0,-5504.0,5760.0
7.7725,-15040.0,-5504.0,5760.0
7.775,-14976.0,-5504.0,5824.0
7.7775,-14848.0,-5504.0,5824.0
7.78,-14784.0,-5568.0,5696.0
7.7825,-14720.0,-5632.0,5696.0
7.785,-14656.0,-5632.0,5696.0
7.7875,-14592.0,-5632.0,5760.0
7.79,-14464.0,-5632.0,5760.0
7.7925,-14336.0,-5696.0,5888.0
7.795,-14272.0,-5696.0,5888.0
7.7975,-14144.0,-5696.0,5952.0
7.8,-14080.0,-5696.0,5952.0
7.8025,-14016.0,-5760.0,5952.0
7.805,-14016.0,-5824.0,6016.0
7.8075,-13952.0,-5760.0,6080.0
7.81,-13824.0,-5824.0,6080.0
7.8125,-13760.0,-5952.0,6144.0
7.815,-13632.0,-5952.0,6272.0
7.8175,-13632.0,-5952.0,6272.0
7.82,-13632.0,-5952.0,6272.0
7.8225,-13504.0,-5952.0,6272.0
7.825,-13568.0,-6016.0,6400.0
7.8275,-13568.0,-5952.0,6400.0
7.83,-13504.0,-6016.0,6336.0
7.8325,-13568.0,-6080.0,6336.0
7.835,-13632.0,-6144.0,6400.0
7.8375,-13632.0,-6208.0,6272.0
7.84,-13632.0,-6272.0,6400.0
7.8425,-13568.0,-6272.0,6208.0
7.845,-13568.0,-6272.0,6080.0
7.8475,-13568.0,-6400.0,6144.0
7.85,-13632.0,-6464.0,6208.0
7.8525,-13632.0,-6464.0,6144.0
7.855,-13632.0,-6400.0,6080.0
7.8575,-13632.0,-6464.0,6016.0
7.86,-13568.0,-6528.0,6080.0
7.8625,-13632.0,-6528.0,6080.0
7.865,-13632.0,-6592.0,6016.0
7.8675,-13632.0,-6592.0,6080.0
7.87,-13632.0,-6656.0,6016.0
7.8725,-13632.0,-6656.0,6080.0
7.875,-13632.0,-6720.0,6080.0
7.8775,-13568.0,-6720.0,6080.0
7.88,-13568.0,-6784.0,6144.0
7.8825,-13504.0,-6848.0,6144.0
7.885,-13504.0,-6912.0,6272.0
7.8875,-13504.0,-6976.0,6336.0
7.89,-13504.0,-6912.0,6336.0
7.8925,-13504.0,-6912.0,6400.0
7.895,-13568.0,-6976.0,6400.0
7.8975,-13504.0,-6976.0,6400.0
7.9,-13568.0,-7040.0,6464.0
7.9025,-13504.0,-6976.0,6528.0
7.905,-13440.0,-6976.0,6592.0
7.9075,-13440.0,-6976.0,6592.0
7.91,-13376.0,-7040.0,6656.0
7.9125,-13376.0,-7104.0,6656.0
7.915,-13376.0,-7232.0,6720.0
7.9175,-13376.0,-7360.0,6784.0
7.92,-13504.0,-7488.0,6912.0
7.9225,-13504.0,-7488.0,6976.0
7.925,-13568.0,-7552.0,6848.0
7.9275,-13568.0,-7552.0,6848.0
7.93,-13632.0,-7616.0,6784.0
7.9325,-13632.0,-7616.0,6784.0
7.935,-13632.0,-7680.0,6784.0
7.9375,-13696.0,-7616.0,6784.0
7.94,-13696.0,-7552.0,6720.0
7.9425,-13632.0,-7616.0,6784.0
7.945,-13568.0,-7616.0,6784.0
7.9475,-13568.0,-7616.0,6848.0
7.95,-13504.0,-7616.0,6912.0
7.9525,-13440.0,-7616.0,6912.0
7.955,-13504.0,-7616.0,6848.0
7.9575,-13440.0,-7616.0,6912.0
7.96,-13440.0,-7616.0,6848.0
7.9625,-13376.0,-7680.0,6912.0
7.965,-13312.0,-7744.0,6976.0
7.9675,-13312.0,-7808.0,7040.0
7.97,-13248.0,-7808.0,7040.0
7.9725,-13248.0,-7872.0,7040.0
7.975,-13248.0,-7808.0,7104.0
7.9775,-13248.0,-7936.0,7104.0
7.98,-13248.0,-7936.0,7168.0
7.9825,-13248.0,-7936.0,7168.0
7.985,-13184.0,-8000.0,7168.0
7.9875,-13184.0,-8000.0,7168.0
7.99,-13184.0,-8000.0,7168.0
7.9925,-13184.0,-8000.0,7168.0
7.995,-13248.0,-8064.0,7168.0
7.9975,-13248.0,-8000.0,7104.0
8.0,-13312.0,-8064.0,7168.0
8.0025,-13312.0,-8128.0,7104.0
8.005,-13248.0,-8192.0,7104.0
8.0075,-13312.0,-8192.0,7104.0
8.01,-13312.0,-8192.0,7104.0
8.0125,-13312.0,-8192.0,7104.0
8.015,-13248.0,-8128.0,7040.0
8.0175,-13312.0,-8192.0,7104.0
8.02,-13248.0,-8192.0,7168.0
8.0225,-13248.0,-8128.0,7104.0
8.025,-13184.0,-8128.0,7104.0
8.0275,-13120.0,-8128.0,7168.0
8.03,-13120.0,-8128.0,7168.0
8.0325,-13120.0,-8128.0,7168.0
8.035,-13120.0,-8128.0,7232.0
8.0375,-13056.0,-8064.0,7168.0
8.04,-13056.0,-8064.0,7232.0
8.0425,-13120.0,-8064.0,7168.0
8.045,-13056.0,-8128.0,7104.0
8.0475,-13120.0,-8128.0,7040.0
8.05,-13056.0,-8192.0,6976.0
8.0525,-13120.0,-8256.0,7040.0
8.055,-13120.0,-8256.0,6976.0
8.0575,-13056.0,-8192.0,6976.0
8.06,-13120.0,-8128.0,7040.0
8.0625,-13120.0,-8192.0,6976.0
8.065,-13120.0,-8128.0,6912.0
8.0675,-13056.0,-8192.0,6976.0
8.07,-13120.0,-8128.0,6912.0
8.0725,-13056.0,-8192.0,6912.0
8.075,-13120.0,-8256.0,6912.0
8.0775,-13056.0,-8256.0,6848.0
8.08,-13184.0,-8256.0,6912.0
8.0825,-13120.0,-8320.0,6912.0
8.085,-13184.0,-8320.0,6848.0
8.0875,-13184.0,-8320.0,6848.0
8.09,-13184.0,-8320.0,6976.0
8.0925,-13120.0,-8320.0,7104.0
8.095,-13120.0,-8320.0,7104.0
8.0975,-12992.0,-8320.0,7104.0
8.1,-12992.0,-8320.0,7168.0
8.1025,-12992.0,-8384.0,7168.0
8.105,-12928.0,-8320.0,7296.0
8.1075,-12928.0,-8320.0,7296.0
8.11,-12864.0,-8320.0,7232.0
8.1125,-12864.0,-8256.0,7232.0
8.115,-12800.0,-8256.0,7296.0
8.1175,-12800.0,-8320.0,7232.0
8.12,-12864.0,-8256.0,7232.0
8.1225,-12800.0,-8256.0,7232.0
8.125,-12736.0,-8320.0,7296.0
8.1275,-12736.0,-8320.0,7296.0
8.13,-12736.0,-8384.0,7232.0
8.1325,-12672.0,-8448.0,7296.0
8.135,-12672.0,-8320.0,7296.0
8.1375,-12736.0,-8384.0,7360.0
8.14,-12608.0,-8384.0,7360.0
8.1425,-12608.0,-8448.0,7296.0
8.145,-12608.0,-8448.0,7360.0
8.1475,-12608.0,-8448.0,7424.0
8.15,-12608.0,-8448.0,7488.0
8.1525,-12608.0,-8512.0,7488.0
8.155,-12608.0,-8512.0,7488.0
8.1575,-12544.0,-8512.0,7616.0
8.16,-12544.0,-8512.0,7744.0
8.1625,-12416.0,-8576.0,7680.0
8.165,-12352.0,-8576.0,7744.0
8.1675,-12352.0,-8640.0,7680.0
8.17,-12352.0,-8640.0,7744.0
8.1725,-12288.0,-8704.0,7744.0
8.175,-12224.0,-8640.0,7744.0
8.1775,-12224.0,-8640.0,7744.0
8.18,-12288.0,-8640.0,7808.0
8.1825,-12288.0,-8704.0,7808.0
8.185,-12224.0,-8704.0,7808.0
8.1875,-12224.0,-8704.0,7744.0
8.19,-12160.0,-8704.0,7680.0
8.1925,-12160.0,-8768.0,7744.0
8.195,-12160.0,-8768.0,7680.0
8.1975,-12160.0,-8704.0,7680.0
8.2,-12224.0,-8640.0,7616.0
8.2025,-12224.0,-8704.0,7616.0
8.205,-12160.0,-8704.0,7680.0
8.2075,-12224.0,-8704.0,7680.0
8.21,-12288.0,-8768.0,7680.0
8.2125,-12288.0,-8768.0,7744.0
8.215,-12352.0,-8832.0,7808.0
8.2175,-12352.0,-8896.0,7680.0
8.22,-12416.0,-9024.0,7680.0
8.2225,-12352.0,-8960.0,7680.0
8.225,-12416.0,-9024.0,7744.0
8.2275,-12416.0,-9024.0,7808.0
8.23,-12416.0,-8960.0,7808.0
8.2325,-12352.0,-8960.0,7808.0
8.235,-12352.0,-8960.0,7808.0
8.2375,-12352.0,-8896.0,7808.0
8.24,-12288.0,-9024.0,7808.0
8.2425,-12224.0,-9024.0,7808.0
8.245,-12224.0,-9088.0,7680.0
8.2475,-12224.0,-9152.0,7616.0
8.25,-12160.0,-9152.0,7680.0
8.2525,-12096.0,-9216.0,7616.0
8.255,-12096.0,-9280.0,7744.0
8.2575,-12032.0,-9344.0,7808.0
8.26,-12032.0,-9280.0,7808.0
8.2625,-11968.0,-9280.0,7552.0
8.265,-11968.0,-9216.0,7552.0
8.2675,-11776.0,-9024.0,7424.0
8.27,-11776.0,-9152.0,7360.0
8.2725,-11648.0,-9216.0,7424.0
8.275,-11584.0,-9216.0,7424.0
8.2775,-11456.0,-9216.0,7424.0
8.28,-11392.0,-9152.0,7488.0
8.2825,-11392.0,-9216.0,7552.0
8.285,-11392.0,-9280.0,7616.0
8.2875,-11328.0,-9280.0,7616.0
8.29,-11328.0,-9280.0,7680.0
8.2925,-11200.0,-9216.0,7680.0
8.295,-11200.0,-9216.0,7616.0
8.2975,-11072.0,-9280.0,7616.0
8.3,-11072.0,-9216.0,7552.0
8.3025,-11008.0,-9216.0,7488.0
8.305,-11008.0,-9152.0,7424.0
8.3075,-11072.0,-9152.0,7360.0
8.31,-11008.0,-9152.0,7360.0
8.3125,-11008.0,-9088.0,7360.0
8.315,-11008.0,-9152.0,7360.0
8.3175,-11008.0,-9216.0,7296.0
8.32,-11136.0,-9216.0,7168.0
8.3225,-11136.0,-9152.0,7168.0
8.325,-11136.0,-9088.0,7168.0
8.3275,-11200.0,-9088.0,6976.0
8.33,-11200.0,-9088.0,7040.0
8.3325,-11264.0,-9088.0,6976.0
8.335,-11392.0,-9088.0,6976.0
8.3375,-11392.0,-9152.0,6976.0
8.34,-11456.0,-9216.0,6976.0
8.3425,-11456.0,-9152.0,6848.0
8.345,-11456.0,-9152.0,6720.0
8.3475,-11456.0,-9216.0,6848.0
8.35,-11456.0,-9088.0,6848.0
8.3525,-11456.0,-9152.0,6848.0
8.355,-11520.0,-9216.0,6848.0
8.3575,-11520.0,-9216.0,6848.0
8.36,-11520.0,-9152.0,6848.0
8.3625,-11456.0,-9216.0,6912.0
8.365,-11392.0,-9216.0,6912.0
8.3675,-11456.0,-9152.0,6848.0
8.37,-11392.0,-9152.0,6848.0
8.3725,-11328.0,-9216.0,6784.0
8.375,-11328.0,-9088.0,6784.0
8.3775,-11264.0,-9088.0,6848.0
8.38,-11200.0,-9024.0,6784.0
8.3825,-11072.0,-9024.0,6848.0
8.385,-11008.0,-9024.0,6848.0
8.3875,-10944.0,-9024.0,6848.0
8.39,-10880.0,-9024.0,6848.0
8.3925,-10880.0,-9024.0,6848.0
8.395,-10816.0,-9088.0,6848.0
8.3975,-10816.0,-9152.0,6848.0
8.4,-10752.0,-9152.0,6912.0
8.4025,-10752.0,-9088.0,6848.0
8.405,-10752.0,-9088.0,6848.0
8.4075,-10752.0,-9024.0,6784.0
8.41,-10752.0,-9088.0,6720.0
8.4125,-10752.0,-9088.0,6784.0
8.415,-10688.0,-9088.0,6784.0
8.4175,-10816.0,-9152.0,6784.0
8.42,-10816.0,-9088.0,6784.0
8.4225,-10880.0,-9152.0,6720.0
8.425,-10944.0,-9152.0,6656.0
8.4275,-11008.0,-9088.0,6528.0
8.43,-11008.0,-9152.0,6656.0
8.4325,-11008.0,-9152.0,6656.0
8.435,-11136.0,-9088.0,6720.0
8.4375,-11136.0,-9088.0,6720.0
8.44,-11200.0,-9024.0,6720.0
8.4425,-11264.0,-9088.0,6720.0
8.445,-11328.0,-9024.0,6592.0
8.4475,-11264.0,-9088.0,6656.0
8.45,-11328.0,-9152.0,6656.0
8.4525,-11328.0,-9152.0,6656.0
8.455,-11328.0,-9216.0,6720.0
8.4575,-11328.0,-9216.0,6720.0
8.46,-11328.0,-9216.0,6720.0
8.4625,-11392.0,-9280.0,6784.0
8.465,-11392.0,-9280.0,6912.0
8.4675,-11392.0,-9280.0,6912.0
8.47,-11392.0,-9344.0,6912.0
8.4725,-11456.0,-9408.0,6976.0
8.475,-11392.0,-9408.0,6976.0
8.4775,-11392.0,-9408.0,6976.0
8.48,-11520.0,-9472.0,7040.0
8.4825,-11456.0,-9408.0,7040.0
8.485,-11456.0,-9408.0,6976.0
8.4875,-11456.0,-9344.0,6976.0
8.49,-11456.0,-9408.0,6912.0
8.4925,-11584.0,-9408.0,7040.0
8.495,-11456.0,-9280.0,7040.0
8.4975,-11584.0,-9280.0,7040.0
8.5,-11648.0,-9280.0,6976.0
8.5025,-11648.0,-9280.0,7040.0
8.505,-11648.0,-9280.0,7040.0
8.5075,-11712.0,-9344.0,6976.0
8.51,-11648.0,-9344.0,6976.0
8.5125,-11712.0,-9344.0,6912.0
8.515,-11776.0,-9408.0,6912.0
8.5175,-11776.0,-9408.0,6976.0
8.52,-11840.0,-9472.0,6976.0
8.5225,-11904.0,-9536.0,6976.0
8.525,-11904.0,-9472.0,6976.0
8.5275,-11904.0,-9536.0,7040.0
8.53,-11904.0,-9536.0,7040.0
8.5325,-11968.0,-9728.0,7040.0
8.535,-11968.0,-9664.0,7040.0
8.5375,-11968.0,-9664.0,7104.0
8.54,-11968.0,-9664.0,7040.0
8.5425,-11968.0,-9728.0,7168.0
8.545,-11968.0,-9728.0,7040.0
8.5475,-12032.0,-9728.0,7040.0
8.55,-11968.0,-9792.0,7104.0
8.5525,-11904.0,-9856.0,7040.0
8.555,-11904.0,-9856.0,7104.0
8.5575,-11904.0,-9920.0,7104.0
8.56,-11904.0,-9856.0,7104.0
8.5625,-11904.0,-9920.0,7104.0
8.565,-11776.0,-9920.0,7104.0
8.5675,-11840.0,-9920.0,7040.0
8.57,-11840.0,-9920.0,7104.0
8.5725,-11904.0,-9920.0,7168.0
8.575,-11776.0,-9920.0,7168.0
8.5775,-11712.0,-9920.0,7168.0
8.58,-11584.0,-9856.0,7232.0
8.5825,-11584.0,-9856.0,7232.0
8.585,-11520.0,-9856.0,7232.0
8.5875,-11456.0,-9856.0,7232.0
8.59,-11328.0,-9792.0,7232.0
8.5925,-11328.0,-9728.0,7232.0
8.595,-11328.0,-9728.0,7232.0
8.5975,-11200.0,-9728.0,7296.0
8.6,-11136.0,-9792.0,7296.0
8.6025,-11008.0,-9728.0,7360.0
8.605,-10944.0,-9664.0,7360.0
8.6075,-10816.0,-9664.0,7424.0
8.61,-10688.0,-9664.0,7488.0
8.6125,-10688.0,-9664.0,7488.0
8.615,-10688.0,-9664.0,7552.0
8.6175,-10624.0,-9728.0,7616.0
8.62,-10560.0,-9728.0,7616.0
8.6225,-10496.0,-9728.0,7680.0
8.625,-10432.0,-9728.0,7744.0
8.6275,-10432.0,-9792.0,7744.0
8.63,-10432.0,-9792.0,7680.0
8.6325,-10432.0,-9792.0,7616.0
8.635,-10432.0,-9920.0,7552.0
8.6375,-10432.0,-9920.0,7680.0
8.64,-10432.0,-9856.0,7616.0
8.6425,-10368.0,-9856.0,7680.0
8.645,-10368.0,-9856.0,7744.0
8.6475,-10368.0,-9920.0,7744.0
8.65,-10368.0,-9856.0,7808.0
8.6525,-10304.0,-9856.0,7680.0
8.655,-10432.0,-9856.0,7680.0
8.6575,-10432.0,-9920.0,7680.0
8.66,-10432.0,-9920.0,7616.0
8.6625,-10432.0,-9984.0,7552.0
8.665,-10432.0,-10112.0,7552.0
8.6675,-10432.0,-10112.0,7616.0
8.67,-10368.0,-10112.0,7680.0
8.6725,-10368.0,-10112.0,7616.0
8.675,-10368.0,-10048.0,7616.0
8.6775,-10368.0,-10048.0,7616.0
8.68,-10368.0,-10112.0,7680.0
8.6825,-10240.0,-10176.0,7616.0
8.685,-10176.0,-10112.0,7616.0
8.6875,-10112.0,-9984.0,7744.0
8.69,-10112.0,-10048.0,7744.0
8.6925,-10112.0,-9984.0,7744.0
8.695,-10112.0,-10048.0,7744.0
8.6975,-10112.0,-10048.0,7680.0
8.7,-10112.0,-10048.0,7680.0
8.7025,-10112.0,-10048.0,7616.0
8.705,-10112.0,-10048.0,7616.0
8.7075,-10112.0,-10112.0,7552.0
8.71,-10112.0,-10112.0,7616.0
8.7125,-10112.0,-10048.0,7616.0
8.715,-10112.0,-10112.0,7616.0
8.7175,-10176.0,-10048.0,7680.0
8.72,-10240.0,-10048.0,7680.0
8.7225,-10368.0,-10048.0,7552.0
8.725,-10368.0,-10112.0,7552.0
8.7275,-10368.0,-10112.0,7488.0
8.73,-10432.0,-10112.0,7552.0
8.7325,-10432.0,-10112.0,7424.0
8.735,-10432.0,-10176.0,7424.0
8.7375,-10496.0,-10240.0,7360.0
8.74,-10432.0,-10304.0,7424.0
8.7425,-10496.0,-10368.0,7424.0
8.745,-10432.0,-10368.0,7424.0
8.7475,-10496.0,-10432.0,7360.0
8.75,-10496.0,-10432.0,7296.0
8.7525,-10432.0,-10432.0,7296.0
8.755,-10496.0,-10496.0,7296.0
8.7575,-10432.0,-10496.0,7360.0
8.76,-10432.0,-10560.0,7296.0
8.7625,-10496.0,-10560.0,7360.0
8.765,-10560.0,-10560.0,7296.0
8.7675,-10560.0,-10560.0,7296.0
8.77,-10560.0,-10560.0,7232.0
8.7725,-10624.0,-10624.0,7232.0
8.775,-10560.0,-10688.0,7296.0
8.7775,-10624.0,-10752.0,7360.0
8.78,-10624.0,-10688.0,7360.0
8.7825,-10624.0,-10752.0,7360.0
8.785,-10560.0,-10688.0,7360.0
8.7875,-10496.0,-10688.0,7424.0
8.79,-10624.0,-10752.0,7360.0
8.7925,-10560.0,-10752.0,7360.0
8.795,-10560.0,-10880.0,7360.0
8.7975,-10496.0,-10816.0,7424.0
8.8,-10496.0,-10880.0,7424.0
8.8025,-10432.0,-10880.0,7360.0
8.805,-10368.0,-10880.0,7360.0
8.8075,-10368.0,-10880.0,7296.0
8.81,-10304.0,-10880.0,7232.0
8.8125,-10368.0,-10880.0,7232.0
8.815,-10304.0,-10880.0,7232.0
8.8175,-10240.0,-10880.0,7040.0
8.82,-10176.0,-10880.0,7040.0
8.8225,-10176.0,-10752.0,6976.0
8.825,-10176.0,-10752.0,7104.0
8.8275,-10112.0,-10816.0,6976.0
8.83,-10048.0,-10752.0,7104.0
8.8325,-9984.0,-10752.0,7168.0
8.835,-9984.0,-10688.0,7232.0
8.8375,-9984.0,-10688.0,7296.0
8.84,-9984.0,-10688.0,7360.0
8.8425,-9984.0,-10624.0,7360.0
8.845,-9984.0,-10560.0,7296.0
8.8475,-9984.0,-10560.0,7232.0
8.85,-9984.0,-10624.0,7296.0
8.8525,-10048.0,-10624.0,7232.0
8.855,-10048.0,-10560.0,7232.0
8.8575,-10112.0,-10560.0,7296.0
8.86,-10176.0,-10560.0,7232.0
8.8625,-10176.0,-10624.0,7168.0
8.865,-10304.0,-10688.0,7232.0
8.8675,-10368.0,-10624.0,7232.0
8.87,-10496.0,-10624.0,7232.0
8.8725,-10624.0,-10688.0,7168.0
8.875,-10752.0,-10752.0,7168.0
8.8775,-10816.0,-10752.0,7168.0
8.88,-11008.0,-10816.0,7232.0
8.8825,-11072.0,-10816.0,7232.0
8.885,-11136.0,-10752.0,7168.0
8.8875,-11200.0,-10816.0,7168.0
8.89,-11200.0,-10752.0,7168.0
8.8925,-11136.0,-10816.0,7168.0
8.895,-11072.0,-10752.0,7104.0
8.8975,-11008.0,-10688.0,7168.0
8.9,-11008.0,-10688.0,7232.0
8.9025,-11008.0,-10624.0,7232.0
8.905,-10944.0,-10560.0,7232.0
8.9075,-10944.0,-10560.0,7232.0
8.91,-10880.0,-10496.0,7296.0
8.9125,-10880.0,-10432.0,7296.0
8.915,-10816.0,-10368.0,7232.0
8.9175,-10880.0,-10304.0,7232.0
8.92,-10816.0,-10304.0,7168.0
8.9225,-10880.0,-10304.0,7104.0
8.925,-10880.0,-10304.0,7104.0
8.9275,-10816.0,-10304.0,7040.0
8.93,-10816.0,-10240.0,7168.0
8.9325,-10816.0,-10240.0,7104.0
8.935,-10816.0,-10176.0,7104.0
8.9375,-10752.0,-10176.0,7104.0
8.94,-10752.0,-10176.0,7104.0
8.9425,-10688.0,-10112.0,7104.0
8.945,-10688.0,-10112.0,7040.0
8.9475,-10688.0,-10112.0,7040.0
8.95,-10624.0,-10048.0,6976.0
8.9525,-10624.0,-9984.0,7104.0
8.955,-10560.0,-9984.0,7104.0
8.9575,-10496.0,-9920.0,7040.0
8.96,-10496.0,-10048.0,6976.0
8.9625,-10496.0,-9984.0,6912.0
8.965,-10496.0,-9920.0,6912.0
8.9675,-10496.0,-9920.0,6912.0
8.97,-10496.0,-9984.0,6912.0
8.9725,-10496.0,-9984.0,6848.0
8.975,-10496.0,-10048.0,6848.0
8.9775,-10432.0,-9984.0,6784.0
8.98,-10432.0,-9920.0,6656.0
8.9825,-10432.0,-9984.0,6656.0
8.985,-10432.0,-9984.0,6656.0
8.9875,-10560.0,-9920.0,6592.0
8.99,-10560.0,-9984.0,6592.0
8.9925,-10560.0,-9920.0,6592.0
8.995,-10560.0,-9920.0,6592.0
8.9975,-10624.0,-9792.0,6656.0
9.0,-10624.0,-9856.0,6656.0
9.0025,-10688.0,-9856.0,6656.0
9.005,-10752.0,-9792.0,6656.0
9.0075,-10752.0,-9856.0,6656.0
9.01,-10816.0,-9792.0,6656.0
9.0125,-10816.0,-9856.0,6656.0
9.015,-10944.0,-9792.0,6720.0
9.0175,-11008.0,-9792.0,6720.0
9.02,-11008.0,-9728.0,6720.0
9.0225,-11136.0,-9728.0,6784.0
9.025,-11136.0,-9792.0,6784.0
9.0275,-11264.0,-9728.0,6784.0
9.03,-11264.0,-9792.0,6720.0
9.0325,-11328.0,-9728.0,6720.0
9.035,-11328.0,-9728.0,6720.0
9.0375,-11328.0,-9728.0,6848.0
9.04,-11264.0,-9728.0,6848.0
9.0425,-11328.0,-9728.0,6848.0
9.045,-11328.0,-9728.0,6784.0
9.0475,-11328.0,-9664.0,6720.0
9.05,-11264.0,-9600.0,6720.0
9.0525,-11328.0,-9664.0,6784.0
9.055,-11328.0,-9664.0,6912.0
9.0575,-11264.0,-9600.0,6912.0
9.06,-11328.0,-9600.0,6848.0
9.0625,-11264.0,-9664.0,6848.0
9.065,-11200.0,-9600.0,6720.0
9.0675,-11200.0,-9536.0,6784.0
9.07,-11200.0,-9600.0,6784.0
9.0725,-11200.0,-9600.0,6720.0
9.075,-11200.0,-9536.0,6848.0
9.0775,-11136.0,-9536.0,6912.0
9.08,-11136.0,-9536.0,6848.0
9.0825,-11072.0,-9536.0,6848.0
9.085,-11072.0,-9536.0,6976.0
9.0875,-10944.0,-9536.0,6976.0
9.09,-10944.0,-9536.0,7040.0
9.0925,-10944.0,-9600.0,7040.0
9.095,-10944.0,-9600.0,7040.0
9.0975,-10880.0,-9728.0,6976.0
9.1,-10816.0,-9792.0,7040.0
9.1025,-10816.0,-9856.0,7104.0
9.105,-10816.0,-9856.0,7104.0
9.1075,-10816.0,-9920.0,7104.0
9.11,-10816.0,-9856.0,7168.0
9.1125,-10752.0,-9856.0,7168.0
9.115,-10752.0,-9920.0,7168.0
9.1175,-10752.0,-9920.0,7168.0
9.12,-10688.0,-9920.0,7168.0
9.1225,-10688.0,-9920.0,7296.0
9.125,-10624.0,-9920.0,7296.0
9.1275,-10688.0,-9920.0,7296.0
9.13,-10688.0,-9984.0,7424.0
9.1325,-10688.0,-10048.0,7488.0
9.135,-10816.0,-10048.0,7424.0
9.1375,-10752.0,-9984.0,7424.0
9.14,-10752.0,-10048.0,7424.0
9.1425,-10752.0,-10048.0,7424.0
9.145,-10688.0,-10048.0,7488.0
9.1475,-10688.0,-9984.0,7488.0
9.15,-10688.0,-9984.0,7488.0
9.1525,-10688.0,-10048.0,7424.0
9.155,-10624.0,-10048.0,7424.0
9.1575,-10624.0,-9984.0,7488.0
9.16,-10688.0,-9984.0,7488.0
9.1625,-10688.0,-10048.0,7424.0
9.165,-10688.0,-10048.0,7424.0
9.1675,-10688.0,-9984.0,7488.0
9.17,-10688.0,-10048.0,7424.0
9.1725,-10624.0,-10048.0,7360.0
9.175,-10688.0,-9984.0,7360.0
9.1775,-10688.0,-10048.0,7424.0
9.18,-10624.0,-10048.0,7424.0
9.1825,-10560.0,-10112.0,7488.0
9.185,-10560.0,-10048.0,7488.0
9.1875,-10624.0,-9984.0,7424.0
9.19,-10560.0,-9984.0,7488.0
9.1925,-10560.0,-9984.0,7488.0
9.195,-10560.0,-10176.0,7488.0
9.1975,-10560.0,-10176.0,7488.0
9.2,-10560.0,-10240.0,7488.0
9.2025,-10624.0,-10176.0,7488.0
9.205,-10624.0,-10176.0,7360.0
9.2075,-10624.0,-10240.0,7424.0
9.21,-10624.0,-10240.0,7424.0
9.2125,-10688.0,-10240.0,7488.0
9.215,-10624.0,-10240.0,7424.0
9.2175,-10624.0,-10304.0,7296.0
9.22,-10752.0,-10304.0,7232.0
9.2225,-10752.0,-10304.0,7232.0
9.225,-10752.0,-10304.0,7232.0
9.2275,-10752.0,-10368.0,7168.0
9.23,-10752.0,-10368.0,7104.0
9.2325,-10816.0,-10304.0,7104.0
9.235,-10816.0,-10240.0,7168.0
9.2375,-10816.0,-10176.0,7168.0
9.24,-10880.0,-10240.0,7232.0
9.2425,-10816.0,-10176.0,7232.0
9.245,-10816.0,-10112.0,7168.0
9.2475,-10816.0,-10176.0,7168.0
9.25,-10816.0,-10112.0,7232.0
9.2525,-10752.0,-10176.0,7232.0
9.255,-10752.0,-10176.0,7232.0
9.2575,-10816.0,-10112.0,7232.0
9.26,-10816.0,-10048.0,7232.0
9.2625,-10688.0,-10112.0,7296.0
9.265,-10624.0,-10048.0,7296.0
9.2675,-10624.0,-10048.0,7360.0
9.27,-10624.0,-10112.0,7296.0
9.2725,-10496.0,-10048.0,7232.0
9.275,-10496.0,-10112.0,7296.0
9.2775,-10432.0,-10048.0,7360.0
9.28,-10304.0,-10048.0,7424.0
9.2825,-10240.0,-10112.0,7360.0
9.285,-10240.0,-10112.0,7360.0
9.2875,-10176.0,-10048.0,7360.0
9.29,-10112.0,-10048.0,7360.0
9.2925,-10112.0,-10112.0,7424.0
9.295,-10176.0,-10112.0,7360.0
9.2975,-10240.0,-10176.0,7424.0
9.3,-10240.0,-10176.0,7424.0
9.3025,-10240.0,-10176.0,7296.0
9.305,-10240.0,-10240.0,7232.0
9.3075,-10240.0,-10240.0,7232.0
9.31,-10240.0,-10304.0,7296.0
9.3125,-10240.0,-10304.0,7296.0
9.315,-10368.0,-10240.0,7232.0
9.3175,-10432.0,-10240.0,7232.0
9.32,-10432.0,-10304.0,7168.0
9.3225,-10432.0,-10240.0,7104.0
9.325,-10560.0,-10304.0,7104.0
9.3275,-10560.0,-10368.0,7168.0
9.33,-10560.0,-10368.0,7104.0
9.3325,-10624.0,-10304.0,7104.0
9.335,-10624.0,-10368.0,7104.0
9.3375,-10560.0,-10304.0,7040.0
9.34,-10560.0,-10304.0,7040.0
9.3425,-10560.0,-10240.0,7040.0
9.345,-10496.0,-10176.0,6912.0
9.3475,-10560.0,-10112.0,7040.0
9.35,-10560.0,-10112.0,7040.0
9.3525,-10560.0,-10048.0,7040.0
9.355,-10560.0,-10048.0,7104.0
9.3575,-10560.0,-9984.0,7104.0
9.36,-10560.0,-9984.0,7104.0
9.3625,-10496.0,-9984.0,7040.0
9.365,-10560.0,-9984.0,7104.0
9.3675,-10624.0,-9920.0,7104.0
9.37,-10624.0,-9920.0,7232.0
9.3725,-10688.0,-9920.0,7232.0
9.375,-10688.0,-9856.0,7168.0
9.3775,-10688.0,-9792.0,7168.0
9.38,-10752.0,-9792.0,7168.0
9.3825,-10752.0,-9728.0,7232.0
9.385,-10880.0,-9728.0,7168.0
9.3875,-10816.0,-9664.0,7168.0
9.39,-10880.0,-9728.0,7168.0
9.3925,-10944.0,-9728.0,7232.0
9.395,-11008.0,-9728.0,7168.0
9.3975,-11072.0,-9728.0,7168.0
9.4,-11072.0,-9792.0,7232.0
9.4025,-11136.0,-9792.0,7168.0
9.405,-11200.0,-9728.0,7104.0
9.4075,-11264.0,-9728.0,7168.0
9.41,-11328.0,-9728.0,7168.0
9.4125,-11392.0,-9728.0,7232.0
9.415,-11456.0,-9792.0,7168.0
9.4175,-11520.0,-9856.0,7168.0
9.42,-11520.0,-9792.0,7104.0
9.4225,-11520.0,-9792.0,7104.0
9.425,-11456.0,-9792.0,7104.0
9.4275,-11456.0,-9792.0,7168.0
9.43,-11584.0,-9792.0,7232.0
9.4325,-11584.0,-9856.0,7168.0
9.435,-11584.0,-9792.0,7168.0
9.4375,-11648.0,-9792.0,7232.0
9.44,-11712.0,-9856.0,7168.0
9.4425,-11712.0,-9856.0,7168.0
9.445,-11712.0,-9792.0,7168.0
9.4475,-11712.0,-9792.0,7296.0
9.45,-11648.0,-9792.0,7296.0
9.4525,-11712.0,-9856.0,7360.0
9.455,-11712.0,-9856.0,7424.0
9.4575,-11776.0,-9792.0,7360.0
9.46,-11712.0,-9792.0,7424.0
9.4625,-11648.0,-9856.0,7360.0
9.465,-11712.0,-9856.0,7488.0
9.4675,-11712.0,-9856.0,7488.0
9.47,-11712.0,-9792.0,7488.0
9.4725,-11648.0,-9792.0,7488.0
9.475,-11520.0,-9728.0,7424.0
9.4775,-11520.0,-9728.0,7488.0
9.48,-11456.0,-9664.0,7424.0
9.4825,-11520.0,-9600.0,7488.0
9.485,-11392.0,-9600.0,7488.0
9.4875,-11392.0,-9600.0,7424.0
9.49,-11328.0,-9536.0,7488.0
9.4925,-11328.0,-9536.0,7488.0
9.495,-11264.0,-9536.0,7552.0
9.4975,-11200.0,-9536.0,7488.0
9.5,-11136.0,-9472.0,7488.0
9.5025,-11072.0,-9472.0,7552.0
9.505,-11008.0,-9472.0,7488.0
9.5075,-10944.0,-9472.0,7552.0
9.51,-10944.0,-9472.0,7488.0
9.5125,-10944.0,-9472.0,7488.0
9.515,-10944.0,-9472.0,7552.0
9.5175,-10880.0,-9472.0,7552.0
9.52,-10880.0,-9472.0,7552.0
9.5225,-10880.0,-9408.0,7488.0
9.525,-10880.0,-9408.0,7424.0
9.5275,-10944.0,-9408.0,7424.0
9.53,-10880.0,-9408.0,7296.0
9.5325,-10944.0,-9344.0,7424.0
9.535,-10944.0,-9344.0,7296.0
9.5375,-10944.0,-9408.0,7296.0
9.54,-11008.0,-9472.0,7360.0
9.5425,-11008.0,-9472.0,7232.0
9.545,-11072.0,-9408.0,7168.0
9.5475,-11072.0,-9472.0,7168.0
9.55,-11072.0,-9408.0,7232.0
9.5525,-11136.0,-9536.0,7232.0
9.555,-11136.0,-9472.0,7168.0
9.5575,-11136.0,-9472.0,7104.0
9.56,-11200.0,-9472.0,7104.0
9.5625,-11264.0,-9472.0,7104.0
9.565,-11264.0,-9472.0,7104.0
9.5675,-11328.0,-9472.0,7104.0
9.57,-11328.0,-9408.0,7104.0
9.5725,-11264.0,-9408.0,7104.0
9.575,-11328.0,-9408.0,7104.0
9.5775,-11392.0,-9472.0,7168.0
9.58,-11456.0,-9472.0,7104.0
9.5825,-11456.0,-9408.0,7168.0
9.585,-11456.0,-9472.0,7168.0
9.5875,-11584.0,-9472.0,7168.0
9.59,-11584.0,-9472.0,7232.0
9.5925,-11584.0,-9536.0,7168.0
9.595,-11584.0,-9536.0,7168.0
9.5975,-11520.0,-9600.0,7232.0
9.6,-11520.0,-9600.0,7296.0
9.6025,-11520.0,-9664.0,7296.0
9.605,-11584.0,-9664.0,7168.0
9.6075,-11520.0,-9664.0,7232.0
9.61,-11520.0,-9664.0,7232.0
9.6125,-11456.0,-9600.0,7296.0
9.615,-11456.0,-9664.0,7232.0
9.6175,-11456.0,-9664.0,7232.0
9.62,-11456.0,-9664.0,7232.0
9.6225,-11456.0,-9664.0,7104.0
9.625,-11392.0,-9728.0,7168.0
9.6275,-11392.0,-9728.0,7232.0
9.63,-11392.0,-9728.0,7232.0
9.6325,-11392.0,-9728.0,7232.0
9.635,-11392.0,-9664.0,7232.0
9.6375,-11392.0,-9728.0,7232.0
9.64,-11456.0,-9728.0,7232.0
9.6425,-11328.0,-9728.0,7232.0
9.645,-11328.0,-9792.0,7168.0
9.6475,-11264.0,-9728.0,7104.0
9.65,-11328.0,-9728.0,7104.0
9.6525,-11328.0,-9728.0,7168.0
9.655,-11328.0,-9728.0,7232.0
9.6575,-11264.0,-9664.0,7232.0
9.66,-11328.0,-9728.0,7232.0
9.6625,-11328.0,-9728.0,7296.0
9.665,-11328.0,-9792.0,7296.0
9.6675,-11264.0,-9792.0,7296.0
9.67,-11328.0,-9792.0,7232.0
9.6725,-11328.0,-9792.0,7232.0
9.675,-11328.0,-9792.0,7168.0
9.6775,-11264.0,-9792.0,7232.0
9.68,-11200.0,-9792.0,7232.0
9.6825,-11200.0,-9792.0,7168.0
9.685,-11200.0,-9792.0,7104.0
9.6875,-11136.0,-9792.0,7104.0
9.69,-11200.0,-9856.0,7104.0
9.6925,-11200.0,-9856.0,7104.0
9.695,-11200.0,-9792.0,7104.0
9.6975,-11200.0,-9856.0,7168.0
9.7,-11200.0,-9856.0,7104.0
9.7025,-11264.0,-9856.0,7104.0
9.705,-11264.0,-9920.0,6912.0
9.7075,-11264.0,-9984.0,7040.0
9.71,-11264.0,-9920.0,7104.0
9.7125,-11264.0,-9920.0,7040.0
9.715,-11200.0,-9920.0,7040.0
9.7175,-11200.0,-9920.0,7104.0
9.72,-11264.0,-9920.0,7104.0
9.7225,-11264.0,-9920.0,7104.0
9.725,-11328.0,-9920.0,7104.0
9.7275,-11392.0,-9920.0,7040.0
9.73,-11392.0,-9920.0,6976.0
9.7325,-11392.0,-9920.0,6912.0
9.735,-11392.0,-9920.0,6848.0
9.7375,-11456.0,-9984.0,6848.0
9.74,-11456.0,-9920.0,6848.0
9.7425,-11392.0,-9920.0,6784.0
9.745,-11456.0,-9920.0,6848.0
9.7475,-11456.0,-9920.0,6848.0
9.75,-11456.0,-9920.0,6912.0
9.7525,-11456.0,-9920.0,6912.0
9.755,-11520.0,-9920.0,6912.0
9.7575,-11520.0,-9984.0,6912.0
9.76,-11456.0,-9984.0,6912.0
9.7625,-11392.0,-9984.0,6848.0
9.765,-11456.0,-9984.0,6848.0
9.7675,-11392.0,-9984.0,6784.0
9.77,-11328.0,-9984.0,6720.0
9.7725,-11328.0,-9984.0,6720.0
9.775,-11328.0,-9984.0,6656.0
9.7775,-11264.0,-9984.0,6720.0
9.78,-11200.0,-9920.0,6656.0
9.7825,-11136.0,-9920.0,6592.0
9.785,-11136.0,-9920.0,6592.0
9.7875,-11136.0,-9920.0,6464.0
9.79,-11072.0,-9920.0,6464.0
9.7925,-11072.0,-9920.0,6400.0
9.795,-11008.0,-9920.0,6400.0
9.7975,-11008.0,-9856.0,6336.0
9.8,-10944.0,-9856.0,6336.0
9.8025,-10944.0,-9792.0,6400.0
9.805,-11008.0,-9728.0,6336.0
9.8075,-11136.0,-9664.0,6272.0
9.81,-11072.0,-9728.0,6272.0
9.8125,-11136.0,-9664.0,6272.0
9.815,-11200.0,-9664.0,6272.0
9.8175,-11200.0,-9664.0,6272.0
9.82,-11264.0,-9664.0,6400.0
9.8225,-11392.0,-9664.0,6336.0
9.825,-11456.0,-9664.0,6400.0
9.8275,-11520.0,-9728.0,6336.0
9.83,-11584.0,-9728.0,6272.0
9.8325,-11648.0,-9728.0,6272.0
9.835,-11648.0,-9728.0,6272.0
9.8375,-11712.0,-9728.0,6144.0
9.84,-11776.0,-9792.0,6080.0
9.8425,-11904.0,-9728.0,6016.0
9.845,-11968.0,-9728.0,6080.0
9.8475,-11968.0,-9792.0,6080.0
9.85,-11968.0,-9920.0,6080.0
9.8525,-12032.0,-9856.0,5952.0
9.855,-12032.0,-9856.0,5824.0
9.8575,-12032.0,-9856.0,5888.0
9.86,-12096.0,-9792.0,5888.0
9.8625,-12096.0,-9920.0,5824.0
9.865,-12096.0,-9792.0,5824.0
9.8675,-12096.0,-9856.0,5824.0
9.87,-12096.0,-9792.0,5760.0
9.8725,-12096.0,-9792.0,5824.0
9.875,-12096.0,-9728.0,5760.0
9.8775,-12096.0,-9664.0,5696.0
9.88,-12096.0,-9664.0,5760.0
9.8825,-12160.0,-9664.0,5824.0
9.885,-12160.0,-9664.0,5824.0
9.8875,-12160.0,-9664.0,5888.0
9.89,-12160.0,-9664.0,5952.0
9.8925,-12160.0,-9664.0,5952.0
9.895,-12160.0,-9600.0,5952.0
9.8975,-12160.0,-9600.0,6016.0
9.9,-12160.0,-9536.0,6016.0
9.9025,-12224.0,-9536.0,6080.0
9.905,-12224.0,-9536.0,6080.0
