time_stamp,acc_x,acc_y,acc_z
0.0,-12544.0,-10176.0,4864.0
0.0025,-12480.0,-10176.0,4928.0
0.005,-12480.0,-10112.0,4928.0
0.0075,-12480.0,-10176.0,4864.0
0.01,-12480.0,-10176.0,4800.0
0.0125,-12480.0,-10176.0,4800.0
0.015,-12416.0,-10176.0,4800.0
0.0175,-12352.0,-10176.0,4928.0
0.02,-12416.0,-10112.0,4928.0
0.0225,-12352.0,-10048.0,4928.0
0.025,-12352.0,-10112.0,4928.0
0.0275,-12352.0,-10112.0,4928.0
0.03,-12352.0,-10176.0,4992.0
0.0325,-12352.0,-10112.0,4992.0
0.035,-12352.0,-10112.0,5056.0
0.0375,-12416.0,-10112.0,4992.0
0.04,-12352.0,-10112.0,4928.0
0.0425,-12352.0,-10176.0,4928.0
0.045,-12288.0,-10112.0,4928.0
0.0475,-12224.0,-10112.0,4992.0
0.05,-12224.0,-10112.0,4864.0
0.0525,-12224.0,-10112.0,4800.0
0.055,-12224.0,-10112.0,4800.0
0.0575,-12224.0,-10112.0,4864.0
0.06,-12224.0,-10112.0,4864.0
0.0625,-12224.0,-10112.0,4864.0
0.065,-12224.0,-10112.0,4864.0
0.0675,-12224.0,-10112.0,4928.0
0.07,-12288.0,-10112.0,4928.0
0.0725,-12224.0,-10176.0,4864.0
0.075,-12224.0,-10176.0,4864.0
0.0775,-12288.0,-10112.0,4928.0
0.08,-12160.0,-10176.0,4928.0
0.0825,-12160.0,-10176.0,4928.0
0.085,-12224.0,-10176.0,4800.0
0.0875,-12160.0,-10176.0,4864.0
0.09,-12160.0,-10240.0,4864.0
0.0925,-12096.0,-10240.0,4864.0
0.095,-12096.0,-10240.0,4864.0
0.0975,-12096.0,-10240.0,4864.0
0.1,-12096.0,-10176.0,4992.0
0.1025,-12032.0,-10240.0,4992.0
0.105,-12096.0,-10240.0,4928.0
0.1075,-12096.0,-10304.0,4992.0
0.11,-12096.0,-10240.0,4992.0
0.1125,-12096.0,-10240.0,5056.0
0.115,-12096.0,-10176.0,4992.0
0.1175,-12096.0,-10176.0,4992.0
0.12,-12032.0,-10112.0,5056.0
0.1225,-12032.0,-10112.0,4992.0
0.125,-11904.0,-10176.0,5056.0
0.1275,-11968.0,-10176.0,4992.0
0.13,-11904.0,-10176.0,5056.0
0.1325,-11904.0,-10176.0,5056.0
0.135,-11840.0,-10304.0,5120.0
0.1375,-11904.0,-10304.0,5120.0
0.14,-11904.0,-10240.0,5184.0
0.1425,-11904.0,-10176.0,5184.0
0.145,-11840.0,-10112.0,5184.0
0.1475,-11904.0,-9984.0,5248.0
0.15,-11904.0,-10048.0,5248.0
0.1525,-11968.0,-10112.0,5184.0
0.155,-11904.0,-10048.0,5120.0
0.1575,-11968.0,-10048.0,5120.0
0.16,-11904.0,-10048.0,5120.0
0.1625,-11840.0,-10048.0,5056.0
0.165,-11840.0,-9984.0,5056.0
0.1675,-11904.0,-10048.0,5120.0
0.17,-11904.0,-10112.0,5120.0
0.1725,-11968.0,-10112.0,5120.0
0.175,-11968.0,-10176.0,5120.0
0.1775,-11968.0,-10112.0,5056.0
0.18,-11968.0,-10176.0,5056.0
0.1825,-11904.0,-10240.0,5056.0
0.185,-11904.0,-10240.0,5056.0
0.1875,-11904.0,-10240.0,4992.0
0.19,-11904.0,-10240.0,4928.0
0.1925,-11904.0,-10176.0,4992.0
0.195,-11840.0,-10176.0,4992.0
0.1975,-11840.0,-10176.0,4992.0
0.2,-11776.0,-10176.0,4992.0
0.2025,-11840.0,-10176.0,5120.0
0.205,-11904.0,-10240.0,5056.0
0.2075,-11840.0,-10176.0,5120.0
0.21,-11840.0,-10112.0,5120.0
0.2125,-11840.0,-10112.0,5056.0
0.215,-11776.0,-10112.0,5056.0
0.2175,-11776.0,-10048.0,5056.0
0.22,-11776.0,-10112.0,5184.0
0.2225,-11776.0,-10112.0,5120.0
0.225,-11776.0,-10112.0,5184.0
0.2275,-11840.0,-10240.0,5248.0
0.23,-11776.0,-10176.0,5312.0
0.2325,-11840.0,-10240.0,5312.0
0.235,-11840.0,-10240.0,5312.0
0.2375,-11840.0,-10304.0,5248.0
0.24,-11776.0,-10240.0,5248.0
0.2425,-11776.0,-10304.0,5248.0
0.245,-11712.0,-10240.0,5248.0
0.2475,-11712.0,-10176.0,5248.0
0.25,-11712.0,-10240.0,5376.0
0.2525,-11712.0,-10176.0,5440.0
0.255,-11648.0,-10176.0,5440.0
0.2575,-11648.0,-10112.0,5376.0
0.26,-11584.0,-10112.0,5440.0
0.2625,-11584.0,-10048.0,5376.0
0.265,-11520.0,-10048.0,5312.0
0.2675,-11520.0,-10048.0,5312.0
0.27,-11520.0,-9984.0,5312.0
0.2725,-11520.0,-9984.0,5312.0
0.275,-11520.0,-9984.0,5248.0
0.2775,-11520.0,-10048.0,5248.0
0.28,-11584.0,-10048.0,5184.0
0.2825,-11584.0,-10048.0,5248.0
0.285,-11584.0,-9984.0,5312.0
0.2875,-11584.0,-10112.0,5248.0
0.29,-11584.0,-10112.0,5312.0
0.2925,-11584.0,-10112.0,5312.0
0.295,-11584.0,-10048.0,5376.0
0.2975,-11584.0,-10048.0,5376.0
0.3,-11584.0,-10048.0,5376.0
0.3025,-11584.0,-10048.0,5312.0
0.305,-11584.0,-9984.0,5312.0
0.3075,-11648.0,-9984.0,5312.0
0.31,-11648.0,-9984.0,5312.0
0.3125,-11584.0,-9984.0,5376.0
0.315,-11648.0,-9920.0,5376.0
0.3175,-11648.0,-9984.0,5312.0
0.32,-11648.0,-9792.0,5376.0
0.3225,-11648.0,-9792.0,5248.0
0.325,-11712.0,-9792.0,5376.0
0.3275,-11712.0,-9856.0,5312.0
0.33,-11648.0,-9856.0,5312.0
0.3325,-11712.0,-9856.0,5312.0
0.335,-11776.0,-9920.0,5248.0
0.3375,-11712.0,-9920.0,5248.0
0.34,-11776.0,-9920.0,5376.0
0.3425,-11776.0,-9984.0,5312.0
0.345,-11712.0,-9920.0,5248.0
0.3475,-11776.0,-9920.0,5248.0
0.35,-11712.0,-9920.0,5248.0
0.3525,-11712.0,-9984.0,5184.0
0.355,-11712.0,-9920.0,5184.0
0.3575,-11776.0,-9920.0,5184.0
0.36,-11776.0,-9920.0,5184.0
0.3625,-11712.0,-9920.0,5184.0
0.365,-11712.0,-9984.0,5248.0
0.3675,-11648.0,-9920.0,5312.0
0.37,-11712.0,-9920.0,5312.0
0.3725,-11712.0,-9984.0,5312.0
0.375,-11584.0,-9920.0,5376.0
0.3775,-11584.0,-9920.0,5376.0
0.38,-11584.0,-9856.0,5312.0
0.3825,-11520.0,-9856.0,5312.0
0.385,-11584.0,-9792.0,5312.0
0.3875,-11520.0,-9792.0,5248.0
0.39,-11520.0,-9792.0,5184.0
0.3925,-11520.0,-9856.0,5120.0
0.395,-11520.0,-9792.0,5184.0
0.3975,-11456.0,-9664.0,5184.0
0.4,-11456.0,-9600.0,5248.0
0.4025,-11392.0,-9664.0,5248.0
0.405,-11392.0,-9664.0,5248.0
0.4075,-11456.0,-9600.0,5248.0
0.41,-11392.0,-9600.0,5184.0
0.4125,-11392.0,-9600.0,5184.0
0.415,-11456.0,-9664.0,5248.0
0.4175,-11392.0,-9664.0,5248.0
0.42,-11456.0,-9664.0,5312.0
0.4225,-11456.0,-9664.0,5248.0
0.425,-11456.0,-9664.0,5248.0
0.4275,-11456.0,-9664.0,5248.0
0.43,-11392.0,-9728.0,5312.0
0.4325,-11392.0,-9792.0,5312.0
0.435,-11328.0,-9728.0,5312.0
0.4375,-11264.0,-9792.0,5312.0
0.44,-11200.0,-9792.0,5440.0
0.4425,-11200.0,-9792.0,5376.0
0.445,-11200.0,-9856.0,5376.0
0.4475,-11136.0,-9856.0,5376.0
0.45,-11072.0,-9984.0,5312.0
0.4525,-11136.0,-9920.0,5248.0
0.455,-11136.0,-9984.0,5312.0
0.4575,-11072.0,-9920.0,5312.0
0.46,-11072.0,-9920.0,5312.0
0.4625,-11072.0,-9856.0,5248.0
0.465,-11072.0,-9792.0,5312.0
0.4675,-10944.0,-9792.0,5312.0
0.47,-10944.0,-9856.0,5248.0
0.4725,-10880.0,-9920.0,5248.0
0.475,-10880.0,-9920.0,5312.0
0.4775,-10880.0,-9920.0,5312.0
0.48,-10816.0,-9920.0,5376.0
0.4825,-10752.0,-9920.0,5312.0
0.485,-10752.0,-9920.0,5376.0
0.4875,-10688.0,-9920.0,5376.0
0.49,-10624.0,-9920.0,5440.0
0.4925,-10624.0,-9984.0,5504.0
0.495,-10496.0,-9984.0,5568.0
0.4975,-10496.0,-9984.0,5568.0
0.5,-10496.0,-9920.0,5568.0
0.5025,-10496.0,-9920.0,5568.0
0.505,-10496.0,-9984.0,5632.0
0.5075,-10560.0,-9984.0,5568.0
0.51,-10560.0,-10048.0,5632.0
0.5125,-10624.0,-10112.0,5568.0
0.515,-10624.0,-10176.0,5568.0
0.5175,-10688.0,-10240.0,5568.0
0.52,-10752.0,-10240.0,5568.0
0.5225,-10816.0,-10304.0,5568.0
0.525,-10880.0,-10304.0,5568.0
0.5275,-10944.0,-10304.0,5504.0
0.53,-11008.0,-10368.0,5504.0
0.5325,-11136.0,-10368.0,5568.0
0.535,-11264.0,-10368.0,5504.0
0.5375,-11392.0,-10432.0,5632.0
0.54,-11584.0,-10368.0,5504.0
0.5425,-11776.0,-10432.0,5504.0
0.545,-11904.0,-10496.0,5376.0
0.5475,-12160.0,-10496.0,5376.0
0.55,-12352.0,-10496.0,5312.0
0.5525,-12480.0,-10560.0,5248.0
0.555,-12608.0,-10560.0,5184.0
0.5575,-12736.0,-10624.0,5120.0
0.56,-13184.0,-10688.0,5120.0
0.5625,-13376.0,-10688.0,5120.0
0.565,-13440.0,-10752.0,5056.0
0.5675,-13632.0,-10688.0,5120.0
0.57,-13696.0,-10688.0,5120.0
0.5725,-13760.0,-10752.0,5184.0
0.575,-13824.0,-10752.0,5184.0
0.5775,-13760.0,-10688.0,5120.0
0.58,-13760.0,-10688.0,5184.0
0.5825,-13696.0,-10688.0,5184.0
0.585,-13632.0,-10688.0,5248.0
0.5875,-13568.0,-10752.0,5184.0
0.59,-13440.0,-10688.0,5184.0
0.5925,-13248.0,-10688.0,5248.0
0.595,-13120.0,-10688.0,5376.0
0.5975,-12928.0,-10624.0,5376.0
0.6,-12800.0,-10560.0,5376.0
0.6025,-12608.0,-10560.0,5440.0
0.605,-12416.0,-10432.0,5504.0
0.6075,-12288.0,-10432.0,5504.0
0.61,-12160.0,-10368.0,5568.0
0.6125,-12032.0,-10304.0,5568.0
0.615,-11904.0,-10304.0,5632.0
0.6175,-11776.0,-10304.0,5696.0
0.62,-11648.0,-10304.0,5760.0
0.6225,-11520.0,-10240.0,5696.0
0.625,-11456.0,-10176.0,5824.0
0.6275,-11392.0,-10176.0,5888.0
0.63,-11392.0,-10240.0,5824.0
0.6325,-11328.0,-10240.0,5824.0
0.635,-11264.0,-10304.0,5824.0
0.6375,-11264.0,-10240.0,5824.0
0.64,-11264.0,-10304.0,5696.0
0.6425,-11264.0,-10304.0,5696.0
0.645,-11328.0,-10368.0,5568.0
0.6475,-11456.0,-10368.0,5568.0
0.65,-11520.0,-10304.0,5504.0
0.6525,-11584.0,-10368.0,5504.0
0.655,-11584.0,-10368.0,5440.0
0.6575,-11648.0,-10432.0,5504.0
0.66,-11840.0,-10560.0,5440.0
0.6625,-11904.0,-10560.0,5440.0
0.665,-11968.0,-10560.0,5376.0
0.6675,-12032.0,-10560.0,5248.0
0.67,-12096.0,-10624.0,5248.0
0.6725,-12224.0,-10624.0,5248.0
0.675,-12288.0,-10688.0,5248.0
0.6775,-12288.0,-10688.0,5184.0
0.68,-12352.0,-10624.0,5184.0
0.6825,-12416.0,-10688.0,5120.0
0.685,-12416.0,-10688.0,5184.0
0.6875,-12544.0,-10624.0,5184.0
0.69,-12544.0,-10624.0,5056.0
0.6925,-12544.0,-10624.0,5056.0
0.695,-12608.0,-10496.0,5056.0
0.6975,-12608.0,-10560.0,5120.0
0.7,-12672.0,-10496.0,5184.0
0.7025,-12672.0,-10432.0,5120.0
0.705,-12672.0,-10368.0,5248.0
0.7075,-12672.0,-10304.0,5184.0
0.71,-12736.0,-10240.0,5248.0
0.7125,-12736.0,-10176.0,5312.0
0.715,-12736.0,-10112.0,5312.0
0.7175,-12736.0,-10048.0,5248.0
0.72,-12672.0,-9856.0,5376.0
0.7225,-12672.0,-9792.0,5376.0
0.725,-12672.0,-9728.0,5376.0
0.7275,-12672.0,-9728.0,5504.0
0.73,-12608.0,-9600.0,5376.0
0.7325,-12672.0,-9600.0,5504.0
0.735,-12672.0,-9600.0,5504.0
0.7375,-12608.0,-9536.0,5632.0
0.74,-12544.0,-9536.0,5440.0
0.7425,-12480.0,-9536.0,5504.0
0.745,-12480.0,-9536.0,5568.0
0.7475,-12416.0,-9536.0,5504.0
0.75,-12416.0,-9472.0,5376.0
0.7525,-12352.0,-9408.0,5504.0
0.755,-12288.0,-9408.0,5504.0
0.7575,-12224.0,-9408.0,5440.0
0.76,-12160.0,-9408.0,5440.0
0.7625,-12160.0,-9344.0,5504.0
0.765,-12160.0,-9408.0,5504.0
0.7675,-12096.0,-9408.0,5504.0
0.77,-12096.0,-9408.0,5440.0
0.7725,-12032.0,-9472.0,5504.0
0.775,-12032.0,-9472.0,5504.0
0.7775,-11968.0,-9472.0,5504.0
0.78,-11904.0,-9472.0,5504.0
0.7825,-11904.0,-9408.0,5440.0
0.785,-11904.0,-9408.0,5504.0
0.7875,-11840.0,-9344.0,5504.0
0.79,-11776.0,-9408.0,5568.0
0.7925,-11776.0,-9344.0,5568.0
0.795,-11776.0,-9280.0,5568.0
0.7975,-11712.0,-9280.0,5504.0
0.8,-11648.0,-9344.0,5568.0
0.8025,-11584.0,-9344.0,5568.0
0.805,-11584.0,-9408.0,5504.0
0.8075,-11648.0,-9408.0,5632.0
0.81,-11584.0,-9408.0,5632.0
0.8125,-11648.0,-9472.0,5632.0
0.815,-11648.0,-9472.0,5568.0
0.8175,-11648.0,-9472.0,5568.0
0.82,-11712.0,-9472.0,5504.0
0.8225,-11712.0,-9472.0,5440.0
0.825,-11712.0,-9472.0,5504.0
0.8275,-11712.0,-9472.0,5568.0
0.83,-11776.0,-9408.0,5440.0
0.8325,-11776.0,-9472.0,5504.0
0.835,-11840.0,-9536.0,5440.0
0.8375,-11840.0,-9536.0,5440.0
0.84,-11904.0,-9536.0,5504.0
0.8425,-11904.0,-9536.0,5504.0
0.845,-11904.0,-9600.0,5504.0
0.8475,-11904.0,-9600.0,5504.0
0.85,-11904.0,-9600.0,5568.0
0.8525,-11904.0,-9664.0,5504.0
0.855,-12032.0,-9664.0,5504.0
0.8575,-12032.0,-9664.0,5440.0
0.86,-12032.0,-9664.0,5440.0
0.8625,-12096.0,-9664.0,5376.0
0.865,-12096.0,-9664.0,5376.0
0.8675,-12096.0,-9664.0,5376.0
0.87,-12160.0,-9536.0,5248.0
0.8725,-12160.0,-9536.0,5184.0
0.875,-12096.0,-9600.0,5248.0
0.8775,-12160.0,-9664.0,5312.0
0.88,-12160.0,-9664.0,5248.0
0.8825,-12160.0,-9664.0,5184.0
0.885,-12160.0,-9728.0,5312.0
0.8875,-12160.0,-9728.0,5248.0
0.89,-12224.0,-9728.0,5248.0
0.8925,-12224.0,-9728.0,5312.0
0.895,-12288.0,-9728.0,5312.0
0.8975,-12352.0,-9792.0,5248.0
0.9,-12352.0,-9728.0,5184.0
0.9025,-12288.0,-9792.0,5184.0
0.905,-12352.0,-9792.0,5312.0
0.9075,-12288.0,-9792.0,5184.0
0.91,-12288.0,-9792.0,5184.0
0.9125,-12288.0,-9792.0,5184.0
0.915,-12352.0,-9792.0,5120.0
0.9175,-12288.0,-9728.0,5120.0
0.92,-12352.0,-9728.0,5120.0
0.9225,-12352.0,-9728.0,5120.0
0.925,-12352.0,-9792.0,4992.0
0.9275,-12352.0,-9856.0,5056.0
0.93,-12416.0,-9792.0,4992.0
0.9325,-12288.0,-9792.0,5056.0
0.935,-12224.0,-9792.0,4992.0
0.9375,-12288.0,-9792.0,4928.0
0.94,-12224.0,-9856.0,4928.0
0.9425,-12160.0,-9856.0,4992.0
0.945,-12160.0,-9792.0,4928.0
0.9475,-12160.0,-9792.0,4928.0
0.95,-12160.0,-9728.0,4928.0
0.9525,-12096.0,-9792.0,4864.0
0.955,-12096.0,-9792.0,4928.0
0.9575,-12096.0,-9792.0,4800.0
0.96,-12096.0,-9792.0,4928.0
0.9625,-12096.0,-9856.0,4928.0
0.965,-12096.0,-9792.0,4864.0
0.9675,-12096.0,-9792.0,4928.0
0.97,-12096.0,-9856.0,4864.0
0.9725,-12096.0,-9792.0,4864.0
0.975,-12160.0,-9728.0,4800.0
0.9775,-12096.0,-9728.0,4800.0
0.98,-12096.0,-9792.0,4736.0
0.9825,-12096.0,-9728.0,4672.0
0.985,-12096.0,-9728.0,4736.0
0.9875,-12096.0,-9728.0,4736.0
0.99,-12096.0,-9728.0,4736.0
0.9925,-12096.0,-9728.0,4736.0
0.995,-12032.0,-9664.0,4736.0
0.9975,-12096.0,-9728.0,4736.0
1.0,-12096.0,-9728.0,4608.0
1.0025,-12160.0,-9728.0,4608.0
1.005,-12096.0,-9664.0,4608.0
1.0075,-12096.0,-9664.0,4544.0
1.01,-12096.0,-9728.0,4544.0
1.0125,-12096.0,-9728.0,4544.0
1.015,-12096.0,-9728.0,4608.0
1.0175,-12032.0,-9728.0,4672.0
1.02,-12096.0,-9792.0,4672.0
1.0225,-12032.0,-9728.0,4672.0
1.025,-11968.0,-9664.0,4672.0
1.0275,-11968.0,-9728.0,4608.0
1.03,-12032.0,-9792.0,4544.0
1.0325,-12032.0,-9728.0,4544.0
1.035,-11968.0,-9728.0,4544.0
1.0375,-12032.0,-9728.0,4544.0
1.04,-11968.0,-9792.0,4608.0
1.0425,-11968.0,-9792.0,4608.0
1.045,-12032.0,-9856.0,4544.0
1.0475,-12032.0,-9856.0,4608.0
1.05,-12032.0,-9792.0,4544.0
1.0525,-12096.0,-9856.0,4480.0
1.055,-12096.0,-9856.0,4480.0
1.0575,-12160.0,-9792.0,4480.0
1.06,-12160.0,-9856.0,4416.0
1.0625,-12160.0,-9792.0,4416.0
1.065,-12160.0,-9728.0,4416.0
1.0675,-12160.0,-9728.0,4544.0
1.07,-12160.0,-9664.0,4480.0
1.0725,-12224.0,-9664.0,4480.0
1.075,-12288.0,-9664.0,4480.0
1.0775,-12288.0,-9728.0,4544.0
1.08,-12288.0,-9728.0,4544.0
1.0825,-12352.0,-9856.0,4608.0
1.085,-12416.0,-9856.0,4608.0
1.0875,-12480.0,-9856.0,4608.0
1.09,-12480.0,-9856.0,4736.0
1.0925,-12480.0,-9856.0,4672.0
1.095,-12544.0,-9856.0,4672.0
1.0975,-12608.0,-9856.0,4672.0
1.1,-12736.0,-9856.0,4608.0
1.1025,-12800.0,-9856.0,4608.0
1.105,-12736.0,-9792.0,4608.0
1.1075,-12736.0,-9792.0,4608.0
1.11,-12800.0,-9792.0,4544.0
1.1125,-12864.0,-9792.0,4608.0
1.115,-12928.0,-9728.0,4544.0
1.1175,-12928.0,-9792.0,4544.0
1.12,-12864.0,-9792.0,4544.0
1.1225,-12928.0,-9792.0,4544.0
1.125,-12864.0,-9792.0,4608.0
1.1275,-12864.0,-9792.0,4608.0
1.13,-12736.0,-9728.0,4672.0
1.1325,-12736.0,-9728.0,4672.0
1.135,-12672.0,-9664.0,4672.0
1.1375,-12672.0,-9664.0,4736.0
1.14,-12544.0,-9600.0,4736.0
1.1425,-12480.0,-9600.0,4736.0
1.145,-12416.0,-9536.0,4736.0
1.1475,-12352.0,-9600.0,4800.0
1.15,-12224.0,-9536.0,4800.0
1.1525,-12224.0,-9472.0,4800.0
1.155,-12096.0,-9472.0,4864.0
1.1575,-12096.0,-9472.0,4864.0
1.16,-12032.0,-9472.0,4864.0
1.1625,-11968.0,-9536.0,4928.0
1.165,-11904.0,-9472.0,4864.0
1.1675,-11904.0,-9408.0,4928.0
1.17,-11840.0,-9408.0,4928.0
1.1725,-11840.0,-9408.0,4992.0
1.175,-11840.0,-9344.0,4928.0
1.1775,-11776.0,-9344.0,4992.0
1.18,-11776.0,-9408.0,4992.0
1.1825,-11776.0,-9344.0,4992.0
1.185,-11776.0,-9280.0,4992.0
1.1875,-11712.0,-9344.0,4928.0
1.19,-11712.0,-9344.0,4928.0
1.1925,-11648.0,-9280.0,4864.0
1.195,-11712.0,-9216.0,4800.0
1.1975,-11648.0,-9216.0,4864.0
1.2,-11776.0,-9216.0,4928.0
1.2025,-11776.0,-9280.0,4928.0
1.205,-11840.0,-9280.0,4800.0
1.2075,-11904.0,-9216.0,4864.0
1.21,-11904.0,-9280.0,4928.0
1.2125,-11968.0,-9280.0,4928.0
1.215,-12032.0,-9344.0,4928.0
1.2175,-12096.0,-9344.0,4992.0
1.22,-12224.0,-9344.0,4928.0
1.2225,-12224.0,-9408.0,4928.0
1.225,-12288.0,-9344.0,5056.0
1.2275,-12288.0,-9344.0,5056.0
1.23,-12352.0,-9344.0,5056.0
1.2325,-12416.0,-9408.0,4992.0
1.235,-12416.0,-9408.0,4928.0
1.2375,-12416.0,-9408.0,4992.0
1.24,-12480.0,-9344.0,4928.0
1.2425,-12544.0,-9408.0,4928.0
1.245,-12608.0,-9472.0,4992.0
1.2475,-12608.0,-9408.0,4992.0
1.25,-12544.0,-9536.0,5056.0
1.2525,-12544.0,-9536.0,5056.0
1.255,-12544.0,-9472.0,5056.0
1.2575,-12544.0,-9472.0,5120.0
1.26,-12544.0,-9472.0,5056.0
1.2625,-12480.0,-9536.0,5056.0
1.265,-12480.0,-9536.0,5056.0
1.2675,-12416.0,-9600.0,5056.0
1.27,-12416.0,-9600.0,4992.0
1.2725,-12416.0,-9664.0,5056.0
1.275,-12352.0,-9728.0,5184.0
1.2775,-12288.0,-9728.0,5184.0
1.28,-12224.0,-9856.0,5184.0
1.2825,-12096.0,-9856.0,5120.0
1.285,-12096.0,-9856.0,5184.0
1.2875,-12096.0,-9920.0,5184.0
1.29,-12096.0,-9920.0,5184.0
1.2925,-12096.0,-9984.0,5248.0
1.295,-12032.0,-9984.0,5248.0
1.2975,-12032.0,-9984.0,5184.0
1.3,-12032.0,-9920.0,5248.0
1.3025,-11968.0,-9920.0,5184.0
1.305,-12096.0,-9920.0,5184.0
1.3075,-12032.0,-9984.0,5120.0
1.31,-12096.0,-9984.0,5056.0
1.3125,-12032.0,-9984.0,5120.0
1.315,-12032.0,-10048.0,5056.0
1.3175,-12096.0,-10112.0,5056.0
1.32,-12096.0,-10112.0,4992.0
1.3225,-12160.0,-10240.0,5056.0
1.325,-12096.0,-10176.0,5056.0
1.3275,-12096.0,-10240.0,4992.0
1.33,-12096.0,-10240.0,4992.0
1.3325,-12160.0,-10304.0,5056.0
1.335,-12160.0,-10240.0,4992.0
1.3375,-12160.0,-10368.0,5056.0
1.34,-12224.0,-10304.0,4992.0
1.3425,-12160.0,-10240.0,4992.0
1.345,-12160.0,-10176.0,4928.0
1.3475,-12160.0,-10176.0,4928.0
1.35,-12224.0,-10176.0,4928.0
1.3525,-12288.0,-10240.0,4928.0
1.355,-12224.0,-10240.0,4928.0
1.3575,-12224.0,-10176.0,4864.0
1.36,-12288.0,-10048.0,4864.0
1.3625,-12352.0,-10048.0,4800.0
1.365,-12352.0,-10048.0,4800.0
1.3675,-12288.0,-9984.0,4864.0
1.37,-12352.0,-9920.0,4864.0
1.3725,-12352.0,-9920.0,4928.0
1.375,-12288.0,-9984.0,4928.0
1.3775,-12352.0,-9920.0,4864.0
1.38,-12416.0,-9984.0,4800.0
1.3825,-12416.0,-9920.0,4928.0
1.385,-12416.0,-9920.0,4928.0
1.3875,-12416.0,-9920.0,4864.0
1.39,-12416.0,-9856.0,4800.0
1.3925,-12480.0,-9856.0,4864.0
1.395,-12544.0,-9856.0,4800.0
1.3975,-12544.0,-9856.0,4736.0
1.4,-12480.0,-9856.0,4736.0
1.4025,-12480.0,-9856.0,4736.0
1.405,-12480.0,-9856.0,4736.0
1.4075,-12480.0,-9792.0,4672.0
1.41,-12480.0,-9792.0,4672.0
1.4125,-12544.0,-9856.0,4672.0
1.415,-12480.0,-9792.0,4608.0
1.4175,-12544.0,-9856.0,4672.0
1.42,-12544.0,-9792.0,4672.0
1.4225,-12544.0,-9792.0,4672.0
1.425,-12544.0,-9792.0,4672.0
1.4275,-12544.0,-9792.0,4608.0
1.43,-12480.0,-9792.0,4608.0
1.4325,-12480.0,-9792.0,4608.0
1.435,-12480.0,-9792.0,4608.0
1.4375,-12480.0,-9728.0,4608.0
1.44,-12480.0,-9728.0,4672.0
1.4425,-12544.0,-9664.0,4736.0
1.445,-12544.0,-9664.0,4736.0
1.4475,-12544.0,-9728.0,4672.0
1.45,-12544.0,-9728.0,4672.0
1.4525,-12544.0,-9664.0,4736.0
1.455,-12480.0,-9664.0,4672.0
1.4575,-12544.0,-9600.0,4672.0
1.46,-12480.0,-9600.0,4608.0
1.4625,-12480.0,-9600.0,4672.0
1.465,-12480.0,-9664.0,4672.0
1.4675,-12544.0,-9600.0,4672.0
1.47,-12480.0,-9600.0,4672.0
1.4725,-12416.0,-9600.0,4608.0
1.475,-12480.0,-9600.0,4608.0
1.4775,-12480.0,-9664.0,4608.0
1.48,-12480.0,-9664.0,4608.0
1.4825,-12544.0,-9600.0,4608.0
1.485,-12544.0,-9600.0,4672.0
1.4875,-12544.0,-9536.0,4672.0
1.49,-12544.0,-9536.0,4608.0
1.4925,-12544.0,-9536.0,4608.0
1.495,-12544.0,-9472.0,4672.0
1.4975,-12480.0,-9536.0,4608.0
1.5,-12480.0,-9600.0,4608.0
1.5025,-12544.0,-9600.0,4608.0
1.505,-12480.0,-9664.0,4672.0
1.5075,-12544.0,-9728.0,4736.0
1.51,-12480.0,-9600.0,4736.0
1.5125,-12480.0,-9664.0,4800.0
1.515,-12480.0,-9600.0,4800.0
1.5175,-12480.0,-9600.0,4672.0
1.52,-12480.0,-9600.0,4800.0
1.5225,-12480.0,-9536.0,4672.0
1.525,-12480.0,-9472.0,4672.0
1.5275,-12416.0,-9536.0,4672.0
1.53,-12416.0,-9536.0,4736.0
1.5325,-12480.0,-9536.0,4736.0
1.535,-12480.0,-9536.0,4800.0
1.5375,-12416.0,-9472.0,4736.0
1.54,-12416.0,-9536.0,4864.0
1.5425,-12352.0,-9600.0,4864.0
1.545,-12288.0,-9536.0,4864.0
1.5475,-12352.0,-9536.0,4928.0
1.55,-12352.0,-9600.0,4928.0
1.5525,-12352.0,-9600.0,4928.0
1.555,-12288.0,-9536.0,4864.0
1.5575,-12288.0,-9536.0,4864.0
1.56,-12288.0,-9536.0,4800.0
1.5625,-12288.0,-9472.0,4800.0
1.565,-12288.0,-9472.0,4736.0
1.5675,-12224.0,-9472.0,4800.0
1.57,-12224.0,-9472.0,4800.0
1.5725,-12224.0,-9472.0,4864.0
1.575,-12224.0,-9472.0,4864.0
1.5775,-12160.0,-9472.0,4864.0
1.58,-12096.0,-9472.0,4864.0
1.5825,-12160.0,-9536.0,4864.0
1.585,-12096.0,-9472.0,4864.0
1.5875,-12096.0,-9536.0,4864.0
1.59,-12096.0,-9536.0,4800.0
1.5925,-12096.0,-9472.0,4800.0
1.595,-12032.0,-9472.0,4800.0
1.5975,-12096.0,-9408.0,4864.0
1.6,-12032.0,-9408.0,4800.0
1.6025,-12032.0,-9344.0,4736.0
1.605,-12032.0,-9344.0,4864.0
1.6075,-12096.0,-9280.0,4736.0
1.61,-12096.0,-9344.0,4800.0
1.6125,-12032.0,-9408.0,4800.0
1.615,-12032.0,-9344.0,4800.0
1.6175,-12032.0,-9344.0,4864.0
1.62,-11968.0,-9408.0,4864.0
1.6225,-12096.0,-9408.0,4928.0
1.625,-12096.0,-9408.0,4800.0
1.6275,-12032.0,-9408.0,4800.0
1.63,-12032.0,-9408.0,4864.0
1.6325,-12032.0,-9344.0,4800.0
1.635,-12032.0,-9344.0,4736.0
1.6375,-12032.0,-9280.0,4736.0
1.64,-12032.0,-9280.0,4736.0
1.6425,-11968.0,-9280.0,4736.0
1.645,-11968.0,-9280.0,4736.0
1.6475,-11968.0,-9344.0,4736.0
1.65,-12032.0,-9344.0,4672.0
1.6525,-12032.0,-9280.0,4672.0
1.655,-12160.0,-9280.0,4736.0
1.6575,-12160.0,-9344.0,4736.0
1.66,-12160.0,-9344.0,4736.0
1.6625,-12160.0,-9344.0,4736.0
1.665,-12224.0,-9408.0,4800.0
1.6675,-12288.0,-9472.0,4864.0
1.67,-12416.0,-9536.0,4928.0
1.6725,-12416.0,-9536.0,4864.0
1.675,-12416.0,-9536.0,4800.0
1.6775,-12416.0,-9600.0,4864.0
1.68,-12544.0,-9600.0,4800.0
1.6825,-12544.0,-9664.0,4800.0
1.685,-12608.0,-9600.0,4800.0
1.6875,-12608.0,-9536.0,4736.0
1.69,-12608.0,-9600.0,4736.0
1.6925,-12672.0,-9600.0,4864.0
1.695,-12736.0,-9600.0,4800.0
1.6975,-12800.0,-9600.0,4864.0
1.7,-12864.0,-9664.0,4800.0
1.7025,-12800.0,-9664.0,4864.0
1.705,-12800.0,-9728.0,4864.0
1.7075,-12864.0,-9728.0,4800.0
1.71,-12864.0,-9792.0,4736.0
1.7125,-12864.0,-9728.0,4800.0
1.715,-12800.0,-9728.0,4800.0
1.7175,-12800.0,-9664.0,4800.0
1.72,-12736.0,-9664.0,4800.0
1.7225,-12800.0,-9728.0,4736.0
1.725,-12736.0,-9664.0,4736.0
1.7275,-12672.0,-9600.0,4800.0
1.73,-12736.0,-9600.0,4864.0
1.7325,-12608.0,-9664.0,4864.0
1.735,-12544.0,-9664.0,4864.0
1.7375,-12544.0,-9728.0,4864.0
1.74,-12544.0,-9664.0,4928.0
1.7425,-12480.0,-9728.0,4928.0
1.745,-12544.0,-9664.0,4992.0
1.7475,-12544.0,-9664.0,4992.0
1.75,-12480.0,-9600.0,4864.0
1.7525,-12480.0,-9600.0,4864.0
1.755,-12416.0,-9600.0,4864.0
1.7575,-12416.0,-9536.0,4864.0
1.76,-12352.0,-9536.0,4864.0
1.7625,-12416.0,-9472.0,4800.0
1.765,-12416.0,-9536.0,4800.0
1.7675,-12416.0,-9536.0,4928.0
1.77,-12416.0,-9600.0,5056.0
1.7725,-12352.0,-9600.0,5056.0
1.775,-12480.0,-9664.0,5056.0
1.7775,-12480.0,-9664.0,5120.0
1.78,-12480.0,-9600.0,4992.0
1.7825,-12480.0,-9664.0,4992.0
1.785,-12544.0,-9600.0,4928.0
1.7875,-12544.0,-9600.0,4928.0
1.79,-12480.0,-9664.0,4928.0
1.7925,-12544.0,-9600.0,4864.0
1.795,-12544.0,-9536.0,4864.0
1.7975,-12544.0,-9536.0,4928.0
1.8,-12480.0,-9536.0,4928.0
1.8025,-12544.0,-9472.0,4928.0
1.805,-12480.0,-9472.0,4928.0
1.8075,-12416.0,-9472.0,5056.0
1.81,-12416.0,-9408.0,4992.0
1.8125,-12416.0,-9408.0,5056.0
1.815,-12352.0,-9408.0,4992.0
1.8175,-12352.0,-9472.0,4992.0
1.82,-12352.0,-9408.0,5056.0
1.8225,-12352.0,-9408.0,5056.0
1.825,-12288.0,-9344.0,4992.0
1.8275,-12224.0,-9344.0,4992.0
1.83,-12288.0,-9344.0,4992.0
1.8325,-12224.0,-9344.0,4928.0
1.835,-12160.0,-9344.0,4992.0
1.8375,-12160.0,-9344.0,4992.0
1.84,-12160.0,-9280.0,5056.0
1.8425,-12224.0,-9280.0,4928.0
1.845,-12160.0,-9280.0,4928.0
1.8475,-12224.0,-9344.0,4992.0
1.85,-12160.0,-9344.0,4992.0
1.8525,-12160.0,-9408.0,5056.0
1.855,-12160.0,-9408.0,5056.0
1.8575,-12096.0,-9408.0,4992.0
1.86,-12032.0,-9344.0,5056.0
1.8625,-12032.0,-9408.0,4992.0
1.865,-12096.0,-9344.0,4992.0
1.8675,-12032.0,-9344.0,5056.0
1.87,-11968.0,-9408.0,5056.0
1.8725,-12032.0,-9344.0,5056.0
1.875,-12032.0,-9408.0,4992.0
1.8775,-11968.0,-9344.0,4992.0
1.88,-11968.0,-9408.0,4992.0
1.8825,-11968.0,-9344.0,4928.0
1.885,-12032.0,-9408.0,4992.0
1.8875,-12032.0,-9408.0,4992.0
1.89,-12032.0,-9472.0,4928.0
1.8925,-12096.0,-9472.0,4928.0
1.895,-12096.0,-9472.0,4864.0
1.8975,-12096.0,-9472.0,4800.0
1.9,-12096.0,-9536.0,4800.0
1.9025,-12096.0,-9536.0,4864.0
1.905,-12160.0,-9536.0,4800.0
1.9075,-12160.0,-9536.0,4864.0
1.91,-12160.0,-9600.0,4800.0
1.9125,-12224.0,-9664.0,4864.0
1.915,-12288.0,-9728.0,4800.0
1.9175,-12352.0,-9728.0,4736.0
1.92,-12416.0,-9792.0,4736.0
1.9225,-12416.0,-9792.0,4736.0
1.925,-12480.0,-9856.0,4672.0
1.9275,-12480.0,-9792.0,4672.0
1.93,-12544.0,-9792.0,4608.0
1.9325,-12544.0,-9792.0,4608.0
1.935,-12544.0,-9792.0,4608.0
1.9375,-12544.0,-9792.0,4480.0
1.94,-12608.0,-9728.0,4544.0
1.9425,-12608.0,-9728.0,4544.0
1.945,-12608.0,-9792.0,4608.0
1.9475,-12608.0,-9856.0,4672.0
1.95,-12672.0,-9792.0,4608.0
1.9525,-12608.0,-9792.0,4608.0
1.955,-12608.0,-9792.0,4608.0
1.9575,-12608.0,-9792.0,4608.0
1.96,-12672.0,-9856.0,4736.0
1.9625,-12672.0,-9856.0,4736.0
1.965,-12672.0,-9792.0,4736.0
1.9675,-12672.0,-9792.0,4672.0
1.97,-12672.0,-9792.0,4672.0
1.9725,-12672.0,-9792.0,4672.0
1.975,-12672.0,-9856.0,4608.0
1.9775,-12672.0,-9792.0,4672.0
1.98,-12736.0,-9856.0,4608.0
1.9825,-12672.0,-9856.0,4544.0
1.985,-12736.0,-9856.0,4608.0
1.9875,-12672.0,-9856.0,4544.0
1.99,-12672.0,-9856.0,4544.0
1.9925,-12672.0,-9856.0,4544.0
1.995,-12672.0,-9856.0,4480.0
1.9975,-12672.0,-9856.0,4544.0
2.0,-12672.0,-9856.0,4672.0
2.0025,-12672.0,-9856.0,4544.0
2.005,-12672.0,-9856.0,4608.0
2.0075,-12672.0,-9856.0,4608.0
2.01,-12672.0,-9856.0,4736.0
2.0125,-12736.0,-9856.0,4672.0
2.015,-12736.0,-9856.0,4608.0
2.0175,-12800.0,-9856.0,4544.0
2.02,-12800.0,-9856.0,4544.0
2.0225,-12800.0,-9856.0,4608.0
2.025,-12736.0,-9856.0,4608.0
2.0275,-12736.0,-9920.0,4608.0
2.03,-12736.0,-9792.0,4608.0
2.0325,-12736.0,-9856.0,4672.0
2.035,-12672.0,-9792.0,4608.0
2.0375,-12672.0,-9728.0,4736.0
2.04,-12672.0,-9728.0,4672.0
2.0425,-12544.0,-9792.0,4608.0
2.045,-12544.0,-9728.0,4672.0
2.0475,-12480.0,-9728.0,4736.0
2.05,-12416.0,-9664.0,4736.0
2.0525,-12416.0,-9664.0,4736.0
2.055,-12480.0,-9664.0,4800.0
2.0575,-12416.0,-9664.0,4800.0
2.06,-12480.0,-9728.0,4800.0
2.0625,-12416.0,-9728.0,4800.0
2.065,-12352.0,-9600.0,4800.0
2.0675,-12416.0,-9600.0,4864.0
2.07,-12352.0,-9600.0,4864.0
2.0725,-12352.0,-9600.0,4864.0
2.075,-12288.0,-9536.0,4864.0
2.0775,-12288.0,-9600.0,4928.0
2.08,-12352.0,-9536.0,4928.0
2.0825,-12288.0,-9472.0,4928.0
2.085,-12288.0,-9472.0,4864.0
2.0875,-12224.0,-9408.0,4864.0
2.09,-12224.0,-9408.0,4864.0
2.0925,-12224.0,-9536.0,4992.0
2.095,-12160.0,-9472.0,4992.0
2.0975,-12224.0,-9472.0,4992.0
2.1,-12288.0,-9472.0,4992.0
2.1025,-12224.0,-9472.0,4992.0
2.105,-12288.0,-9536.0,4864.0
2.1075,-12288.0,-9536.0,4864.0
2.11,-12224.0,-9472.0,4864.0
2.1125,-12224.0,-9472.0,4864.0
2.115,-12160.0,-9408.0,4864.0
2.1175,-12224.0,-9408.0,4864.0
2.12,-12288.0,-9472.0,4800.0
2.1225,-12288.0,-9408.0,4864.0
2.125,-12288.0,-9472.0,4864.0
2.1275,-12288.0,-9472.0,4864.0
2.13,-12288.0,-9472.0,4864.0
2.1325,-12288.0,-9536.0,4864.0
2.135,-12352.0,-9600.0,4864.0
2.1375,-12416.0,-9600.0,4928.0
2.14,-12416.0,-9600.0,4928.0
2.1425,-12416.0,-9600.0,4864.0
2.145,-12480.0,-9664.0,4800.0
2.1475,-12480.0,-9600.0,4864.0
2.15,-12480.0,-9600.0,4864.0
2.1525,-12480.0,-9536.0,4864.0
2.155,-12480.0,-9600.0,4864.0
2.1575,-12480.0,-9600.0,4864.0
2.16,-12416.0,-9664.0,4800.0
2.1625,-12480.0,-9664.0,4864.0
2.165,-12416.0,-9600.0,4800.0
2.1675,-12480.0,-9536.0,4864.0
2.17,-12480.0,-9536.0,4864.0
2.1725,-12480.0,-9600.0,4864.0
2.175,-12480.0,-9600.0,4800.0
2.1775,-12480.0,-9536.0,4736.0
2.18,-12544.0,-9472.0,4864.0
2.1825,-12544.0,-9536.0,4864.0
2.185,-12544.0,-9600.0,4864.0
2.1875,-12544.0,-9600.0,4800.0
2.19,-12544.0,-9664.0,4864.0
2.1925,-12608.0,-9600.0,4864.0
2.195,-12608.0,-9600.0,4800.0
2.1975,-12608.0,-9600.0,4800.0
2.2,-12608.0,-9536.0,4800.0
2.2025,-12608.0,-9600.0,4800.0
2.205,-12608.0,-9536.0,4736.0
2.2075,-12608.0,-9536.0,4736.0
2.21,-12672.0,-9536.0,4736.0
2.2125,-12608.0,-9600.0,4800.0
2.215,-12672.0,-9600.0,4736.0
2.2175,-12672.0,-9536.0,4736.0
2.22,-12736.0,-9536.0,4736.0
2.2225,-12800.0,-9408.0,4736.0
2.225,-12800.0,-9408.0,4672.0
2.2275,-12800.0,-9408.0,4672.0
2.23,-12800.0,-9408.0,4672.0
2.2325,-12736.0,-9408.0,4608.0
2.235,-12672.0,-9344.0,4672.0
2.2375,-12800.0,-9344.0,4672.0
2.24,-12864.0,-9408.0,4736.0
2.2425,-12864.0,-9408.0,4608.0
2.245,-12864.0,-9408.0,4672.0
2.2475,-12864.0,-9472.0,4736.0
2.25,-12864.0,-9408.0,4672.0
2.2525,-12800.0,-9344.0,4608.0
2.255,-12736.0,-9344.0,4672.0
2.2575,-12736.0,-9344.0,4608.0
2.26,-12800.0,-9344.0,4608.0
2.2625,-12736.0,-9344.0,4672.0
2.265,-12672.0,-9408.0,4672.0
2.2675,-12672.0,-9408.0,4736.0
2.27,-12608.0,-9408.0,4736.0
2.2725,-12608.0,-9472.0,4736.0
2.275,-12672.0,-9472.0,4672.0
2.2775,-12608.0,-9408.0,4736.0
2.28,-12608.0,-9408.0,4736.0
2.2825,-12608.0,-9472.0,4800.0
2.285,-12608.0,-9408.0,4736.0
2.2875,-12544.0,-9408.0,4800.0
2.29,-12544.0,-9344.0,4736.0
2.2925,-12544.0,-9344.0,4800.0
2.295,-12544.0,-9344.0,4736.0
2.2975,-12544.0,-9280.0,4800.0
2.3,-12480.0,-9280.0,4800.0
2.3025,-12480.0,-9344.0,4800.0
2.305,-12544.0,-9344.0,4864.0
2.3075,-12480.0,-9280.0,4864.0
2.31,-12480.0,-9280.0,4928.0
2.3125,-12480.0,-9280.0,4992.0
2.315,-12416.0,-9344.0,4928.0
2.3175,-12416.0,-9280.0,4928.0
2.32,-12544.0,-9280.0,4864.0
2.3225,-12480.0,-9280.0,4864.0
2.325,-12480.0,-9216.0,4864.0
2.3275,-12544.0,-9216.0,4864.0
2.33,-12480.0,-9216.0,4992.0
2.3325,-12480.0,-9216.0,4864.0
2.335,-12352.0,-9216.0,4864.0
2.3375,-12416.0,-9216.0,4864.0
2.34,-12480.0,-9216.0,4928.0
2.3425,-12352.0,-9216.0,4992.0
2.345,-12288.0,-9344.0,4992.0
2.3475,-12288.0,-9280.0,4928.0
2.35,-12288.0,-9216.0,4992.0
2.3525,-12288.0,-9216.0,5056.0
2.355,-12288.0,-9216.0,4992.0
2.3575,-12352.0,-9216.0,4928.0
2.36,-12352.0,-9280.0,4928.0
2.3625,-12352.0,-9216.0,4864.0
2.365,-12416.0,-9152.0,4800.0
2.3675,-12416.0,-9152.0,4800.0
2.37,-12416.0,-9152.0,4800.0
2.3725,-12480.0,-9152.0,4864.0
2.375,-12416.0,-9152.0,4800.0
2.3775,-12416.0,-9216.0,4800.0
2.38,-12480.0,-9216.0,4800.0
2.3825,-12480.0,-9280.0,4736.0
2.385,-12480.0,-9280.0,4800.0
2.3875,-12480.0,-9344.0,4800.0
2.39,-12480.0,-9280.0,4736.0
2.3925,-12480.0,-9280.0,4800.0
2.395,-12480.0,-9280.0,4864.0
2.3975,-12480.0,-9280.0,4800.0
2.4,-12480.0,-9344.0,4800.0
2.4025,-12480.0,-9344.0,4736.0
2.405,-12416.0,-9280.0,4800.0
2.4075,-12416.0,-9280.0,4864.0
2.41,-12480.0,-9280.0,4800.0
2.4125,-12480.0,-9344.0,4864.0
2.415,-12480.0,-9408.0,4864.0
2.4175,-12480.0,-9344.0,4864.0
2.42,-12480.0,-9344.0,4864.0
2.4225,-12480.0,-9344.0,4864.0
2.425,-12480.0,-9344.0,4864.0
2.4275,-12480.0,-9344.0,4800.0
2.43,-12480.0,-9344.0,4800.0
2.4325,-12480.0,-9408.0,4800.0
2.435,-12480.0,-9344.0,4736.0
2.4375,-12544.0,-9408.0,4800.0
2.44,-12480.0,-9408.0,4800.0
2.4425,-12480.0,-9408.0,4800.0
2.445,-12480.0,-9408.0,4800.0
2.4475,-12544.0,-9408.0,4800.0
2.45,-12544.0,-9472.0,4736.0
2.4525,-12480.0,-9472.0,4736.0
2.455,-12480.0,-9472.0,4736.0
2.4575,-12480.0,-9472.0,4800.0
2.46,-12480.0,-9472.0,4800.0
2.4625,-12544.0,-9472.0,4800.0
2.465,-12480.0,-9472.0,4736.0
2.4675,-12480.0,-9472.0,4800.0
2.47,-12480.0,-9472.0,4800.0
2.4725,-12480.0,-9536.0,4800.0
2.475,-12416.0,-9536.0,4800.0
2.4775,-12480.0,-9536.0,4800.0
2.48,-12416.0,-9600.0,4800.0
2.4825,-12416.0,-9536.0,4800.0
2.485,-12416.0,-9600.0,4736.0
2.4875,-12480.0,-9600.0,4672.0
2.49,-12416.0,-9600.0,4608.0
2.4925,-12480.0,-9600.0,4672.0
2.495,-12416.0,-9664.0,4672.0
2.4975,-12480.0,-9728.0,4672.0
2.5,-12544.0,-9728.0,4608.0
2.5025,-12480.0,-9728.0,4672.0
2.505,-12480.0,-9728.0,4608.0
2.5075,-12416.0,-9664.0,4608.0
2.51,-12416.0,-9664.0,4608.0
2.5125,-12480.0,-9664.0,4608.0
2.515,-12480.0,-9664.0,4672.0
2.5175,-12416.0,-9728.0,4672.0
2.52,-12480.0,-9600.0,4672.0
2.5225,-12416.0,-9600.0,4672.0
2.525,-12480.0,-9664.0,4736.0
2.5275,-12416.0,-9728.0,4800.0
2.53,-12480.0,-9728.0,4736.0
2.5325,-12480.0,-9664.0,4736.0
2.535,-12416.0,-9664.0,4800.0
2.5375,-12480.0,-9600.0,4736.0
2.54,-12544.0,-9600.0,4736.0
2.5425,-12480.0,-9600.0,4800.0
2.545,-12416.0,-9536.0,4736.0
2.5475,-12416.0,-9536.0,4672.0
2.55,-12352.0,-9536.0,4736.0
2.5525,-12416.0,-9600.0,4736.0
2.555,-12416.0,-9600.0,4800.0
2.5575,-12416.0,-9600.0,4736.0
2.56,-12544.0,-9664.0,4800.0
2.5625,-12416.0,-9664.0,4800.0
2.565,-12416.0,-9600.0,4736.0
2.5675,-12480.0,-9600.0,4672.0
2.57,-12416.0,-9600.0,4672.0
2.5725,-12480.0,-9600.0,4736.0
2.575,-12480.0,-9600.0,4736.0
2.5775,-12480.0,-9600.0,4672.0
2.58,-12480.0,-9664.0,4544.0
2.5825,-12416.0,-9664.0,4544.0
2.585,-12480.0,-9664.0,4608.0
2.5875,-12416.0,-9664.0,4608.0
2.59,-12480.0,-9600.0,4672.0
2.5925,-12416.0,-9600.0,4672.0
2.595,-12416.0,-9600.0,4608.0
2.5975,-12416.0,-9664.0,4672.0
2.6,-12416.0,-9664.0,4672.0
2.6025,-12416.0,-9664.0,4736.0
2.605,-12480.0,-9728.0,4800.0
2.6075,-12416.0,-9664.0,4736.0
2.61,-12416.0,-9664.0,4736.0
2.6125,-12416.0,-9664.0,4800.0
2.615,-12416.0,-9600.0,4800.0
2.6175,-12416.0,-9536.0,4800.0
2.62,-12480.0,-9472.0,4736.0
2.6225,-12416.0,-9472.0,4672.0
2.625,-12416.0,-9536.0,4672.0
2.6275,-12480.0,-9536.0,4672.0
2.63,-12480.0,-9600.0,4736.0
2.6325,-12480.0,-9600.0,4800.0
2.635,-12480.0,-9600.0,4736.0
2.6375,-12544.0,-9664.0,4736.0
2.64,-12480.0,-9728.0,4736.0
2.6425,-12480.0,-9664.0,4672.0
2.645,-12480.0,-9664.0,4672.0
2.6475,-12480.0,-9664.0,4672.0
2.65,-12544.0,-9536.0,4672.0
2.6525,-12544.0,-9536.0,4672.0
2.655,-12480.0,-9600.0,4672.0
2.6575,-12480.0,-9600.0,4608.0
2.66,-12480.0,-9600.0,4736.0
2.6625,-12480.0,-9536.0,4608.0
2.665,-12480.0,-9536.0,4608.0
2.6675,-12416.0,-9536.0,4672.0
2.67,-12480.0,-9536.0,4672.0
2.6725,-12416.0,-9536.0,4672.0
2.675,-12416.0,-9536.0,4736.0
2.6775,-12416.0,-9536.0,4736.0
2.68,-12352.0,-9536.0,4736.0
2.6825,-12416.0,-9536.0,4736.0
2.685,-12416.0,-9472.0,4672.0
2.6875,-12416.0,-9472.0,4672.0
2.69,-12416.0,-9472.0,4672.0
2.6925,-12352.0,-9472.0,4736.0
2.695,-12352.0,-9408.0,4672.0
2.6975,-12352.0,-9408.0,4736.0
2.7,-12352.0,-9472.0,4736.0
2.7025,-12352.0,-9472.0,4672.0
2.705,-12416.0,-9536.0,4736.0
2.7075,-12416.0,-9472.0,4736.0
2.71,-12480.0,-9472.0,4736.0
2.7125,-12416.0,-9536.0,4736.0
2.715,-12352.0,-9536.0,4672.0
2.7175,-12416.0,-9472.0,4736.0
2.72,-12416.0,-9472.0,4736.0
2.7225,-12352.0,-9472.0,4736.0
2.725,-12352.0,-9472.0,4864.0
2.7275,-12352.0,-9472.0,4800.0
2.73,-12288.0,-9536.0,4736.0
2.7325,-12352.0,-9536.0,4800.0
2.735,-12288.0,-9536.0,4800.0
2.7375,-12288.0,-9600.0,4736.0
2.74,-12288.0,-9600.0,4736.0
2.7425,-12288.0,-9600.0,4736.0
2.745,-12288.0,-9536.0,4800.0
2.7475,-12224.0,-9536.0,4864.0
2.75,-12224.0,-9536.0,4864.0
2.7525,-12224.0,-9536.0,4864.0
2.755,-12224.0,-9600.0,4736.0
2.7575,-12224.0,-9536.0,4864.0
2.76,-12224.0,-9600.0,4928.0
2.7625,-12224.0,-9536.0,4864.0
2.765,-12224.0,-9536.0,4864.0
2.7675,-12288.0,-9536.0,4928.0
2.77,-12288.0,-9536.0,4800.0
2.7725,-12224.0,-9600.0,4800.0
2.775,-12224.0,-9536.0,4800.0
2.7775,-12160.0,-9472.0,4864.0
2.78,-12224.0,-9472.0,4864.0
2.7825,-12224.0,-9536.0,4864.0
2.785,-12224.0,-9536.0,4864.0
2.7875,-12224.0,-9472.0,4864.0
2.79,-12288.0,-9472.0,4928.0
2.7925,-12352.0,-9472.0,4928.0
2.795,-12288.0,-9536.0,4992.0
2.7975,-12288.0,-9600.0,4928.0
2.8,-12288.0,-9600.0,4928.0
2.8025,-12288.0,-9536.0,4864.0
2.805,-12224.0,-9600.0,4992.0
2.8075,-12288.0,-9600.0,4992.0
2.81,-12352.0,-9536.0,4928.0
2.8125,-12288.0,-9472.0,4928.0
2.815,-12352.0,-9408.0,4864.0
2.8175,-12352.0,-9408.0,4864.0
2.82,-12352.0,-9408.0,4864.0
2.8225,-12352.0,-9472.0,4992.0
2.825,-12288.0,-9408.0,4992.0
2.8275,-12352.0,-9472.0,4864.0
2.83,-12288.0,-9408.0,4928.0
2.8325,-12352.0,-9472.0,4928.0
2.835,-12352.0,-9472.0,4928.0
2.8375,-12416.0,-9344.0,4928.0
2.84,-12416.0,-9408.0,4928.0
2.8425,-12352.0,-9408.0,4928.0
2.845,-12416.0,-9408.0,4864.0
2.8475,-12352.0,-9408.0,4800.0
2.85,-12416.0,-9344.0,4928.0
2.8525,-12416.0,-9344.0,4928.0
2.855,-12288.0,-9344.0,4928.0
2.8575,-12352.0,-9344.0,4928.0
2.86,-12352.0,-9344.0,4928.0
2.8625,-12352.0,-9408.0,4864.0
2.865,-12352.0,-9408.0,4864.0
2.8675,-12352.0,-9408.0,4928.0
2.87,-12352.0,-9408.0,4992.0
2.8725,-12352.0,-9408.0,5056.0
2.875,-12288.0,-9408.0,5056.0
2.8775,-12288.0,-9344.0,5120.0
2.88,-12352.0,-9280.0,5184.0
2.8825,-12352.0,-9344.0,5184.0
2.885,-12352.0,-9280.0,5120.0
2.8875,-12352.0,-9216.0,5120.0
2.89,-12416.0,-9280.0,5056.0
2.8925,-12352.0,-9280.0,4992.0
2.895,-12416.0,-9216.0,4992.0
2.8975,-12480.0,-9216.0,4992.0
2.9,-12416.0,-9216.0,4992.0
2.9025,-12416.0,-9152.0,5056.0
2.905,-12416.0,-9216.0,4992.0
2.9075,-12416.0,-9216.0,4992.0
2.91,-12416.0,-9280.0,4992.0
2.9125,-12480.0,-9280.0,4992.0
2.915,-12480.0,-9280.0,5056.0
2.9175,-12480.0,-9216.0,5120.0
2.92,-12480.0,-9280.0,5056.0
2.9225,-12480.0,-9344.0,5120.0
2.925,-12480.0,-9344.0,5056.0
2.9275,-12480.0,-9344.0,5056.0
2.93,-12480.0,-9344.0,5056.0
2.9325,-12480.0,-9344.0,4992.0
2.935,-12480.0,-9344.0,4928.0
2.9375,-12480.0,-9344.0,4992.0
2.94,-12480.0,-9344.0,4992.0
2.9425,-12480.0,-9344.0,4928.0
2.945,-12544.0,-9344.0,4992.0
2.9475,-12544.0,-9344.0,4928.0
2.95,-12480.0,-9344.0,4928.0
2.9525,-12480.0,-9280.0,4992.0
2.955,-12480.0,-9280.0,4992.0
2.9575,-12480.0,-9344.0,4992.0
2.96,-12480.0,-9216.0,4928.0
2.9625,-12416.0,-9216.0,4992.0
2.965,-12416.0,-9216.0,4928.0
2.9675,-12416.0,-9216.0,4928.0
2.97,-12416.0,-9280.0,4928.0
2.9725,-12480.0,-9216.0,4864.0
2.975,-12544.0,-9216.0,4928.0
2.9775,-12544.0,-9216.0,4928.0
2.98,-12544.0,-9280.0,4928.0
2.9825,-12544.0,-9280.0,4864.0
2.985,-12544.0,-9216.0,4864.0
2.9875,-12544.0,-9280.0,4928.0
2.99,-12608.0,-9280.0,4928.0
2.9925,-12544.0,-9280.0,4864.0
2.995,-12608.0,-9280.0,4928.0
2.9975,-12672.0,-9280.0,4928.0
3.0,-12672.0,-9216.0,4864.0
3.0025,-12608.0,-9216.0,4864.0
3.005,-12672.0,-9216.0,4800.0
3.0075,-12672.0,-9216.0,4800.0
3.01,-12672.0,-9216.0,4736.0
3.0125,-12736.0,-9216.0,4800.0
3.015,-12736.0,-9280.0,4928.0
3.0175,-12800.0,-9280.0,4864.0
3.02,-12736.0,-9216.0,4864.0
3.0225,-12800.0,-9216.0,4864.0
3.025,-12800.0,-9280.0,4864.0
3.0275,-12864.0,-9280.0,4864.0
3.03,-12864.0,-9280.0,4864.0
3.0325,-12864.0,-9344.0,4864.0
3.035,-12864.0,-9344.0,4800.0
3.0375,-12864.0,-9344.0,4864.0
3.04,-12800.0,-9344.0,4800.0
3.0425,-12800.0,-9344.0,4864.0
3.045,-12800.0,-9344.0,4800.0
3.0475,-12800.0,-9344.0,4928.0
3.05,-12736.0,-9280.0,4928.0
3.0525,-12672.0,-9280.0,4928.0
3.055,-12672.0,-9280.0,4928.0
3.0575,-12672.0,-9344.0,4928.0
3.06,-12608.0,-9280.0,4928.0
3.0625,-12608.0,-9216.0,4928.0
3.065,-12608.0,-9216.0,4928.0
3.0675,-12544.0,-9216.0,4992.0
3.07,-12480.0,-9216.0,4928.0
3.0725,-12416.0,-9216.0,4864.0
3.075,-12416.0,-9152.0,4928.0
3.0775,-12352.0,-9152.0,4992.0
3.08,-12288.0,-9088.0,4992.0
3.0825,-12288.0,-9088.0,4992.0
3.085,-12288.0,-9088.0,5056.0
3.0875,-12288.0,-9088.0,4928.0
3.09,-12288.0,-8960.0,4928.0
3.0925,-12352.0,-9024.0,4992.0
3.095,-12352.0,-8960.0,4928.0
3.0975,-12416.0,-8960.0,4992.0
3.1,-12416.0,-8896.0,4928.0
3.1025,-12352.0,-8896.0,4928.0
3.105,-12416.0,-8896.0,4928.0
3.1075,-12480.0,-8960.0,4928.0
3.11,-12608.0,-8896.0,4928.0
3.1125,-12608.0,-9024.0,4928.0
3.115,-12736.0,-9024.0,4928.0
3.1175,-12736.0,-8960.0,4864.0
3.12,-12800.0,-8960.0,4928.0
3.1225,-12864.0,-8896.0,4992.0
3.125,-12928.0,-8960.0,4928.0
3.1275,-12928.0,-8896.0,4928.0
3.13,-12992.0,-8896.0,4864.0
3.1325,-12992.0,-8896.0,4864.0
3.135,-12992.0,-8896.0,4800.0
3.1375,-12992.0,-8896.0,4864.0
3.14,-12992.0,-8832.0,4928.0
3.1425,-12992.0,-8832.0,4928.0
3.145,-12992.0,-8896.0,4864.0
3.1475,-12928.0,-8896.0,4928.0
3.15,-12864.0,-8896.0,4928.0
3.1525,-12800.0,-8896.0,4928.0
3.155,-12800.0,-8896.0,4928.0
3.1575,-12800.0,-8896.0,4928.0
3.16,-12800.0,-8896.0,4928.0
3.1625,-12672.0,-8896.0,4928.0
3.165,-12608.0,-8896.0,4928.0
3.1675,-12608.0,-8960.0,4992.0
3.17,-12544.0,-8960.0,4992.0
3.1725,-12480.0,-8896.0,4928.0
3.175,-12544.0,-8960.0,4928.0
3.1775,-12480.0,-8960.0,4992.0
3.18,-12416.0,-8960.0,4928.0
3.1825,-12416.0,-8960.0,4992.0
3.185,-12416.0,-8960.0,4928.0
3.1875,-12480.0,-8960.0,4928.0
3.19,-12480.0,-8960.0,4864.0
3.1925,-12544.0,-8960.0,4928.0
3.195,-12544.0,-8960.0,4928.0
3.1975,-12544.0,-8960.0,4864.0
3.2,-12608.0,-9024.0,4928.0
3.2025,-12608.0,-9024.0,4800.0
3.205,-12608.0,-9024.0,4800.0
3.2075,-12672.0,-9024.0,4800.0
3.21,-12608.0,-9024.0,4864.0
3.2125,-12672.0,-9024.0,4864.0
3.215,-12736.0,-9024.0,4800.0
3.2175,-12672.0,-8960.0,4800.0
3.22,-12736.0,-9024.0,4800.0
3.2225,-12800.0,-9088.0,4800.0
3.225,-12736.0,-9024.0,4736.0
3.2275,-12864.0,-9024.0,4672.0
3.23,-12864.0,-9088.0,4672.0
3.2325,-12864.0,-9024.0,4672.0
3.235,-12864.0,-9152.0,4736.0
3.2375,-12864.0,-9216.0,4736.0
3.24,-12864.0,-9152.0,4800.0
3.2425,-12864.0,-9216.0,4800.0
3.245,-12864.0,-9152.0,4800.0
3.2475,-12928.0,-9216.0,4800.0
3.25,-12928.0,-9216.0,4800.0
3.2525,-12992.0,-9216.0,4736.0
3.255,-12928.0,-9216.0,4736.0
3.2575,-12928.0,-9280.0,4736.0
3.26,-12928.0,-9216.0,4672.0
3.2625,-12992.0,-9216.0,4608.0
3.265,-12928.0,-9216.0,4672.0
3.2675,-12928.0,-9216.0,4608.0
3.27,-12928.0,-9152.0,4608.0
3.2725,-12864.0,-9088.0,4608.0
3.275,-12800.0,-9088.0,4544.0
3.2775,-12736.0,-9152.0,4544.0
3.28,-12736.0,-9152.0,4672.0
3.2825,-12672.0,-9088.0,4608.0
3.285,-12608.0,-9024.0,4672.0
3.2875,-12608.0,-9024.0,4800.0
3.29,-12544.0,-8960.0,4736.0
3.2925,-12480.0,-8896.0,4672.0
3.295,-12352.0,-8896.0,4672.0
3.2975,-12352.0,-8896.0,4608.0
3.3,-12352.0,-8896.0,4736.0
3.3025,-12352.0,-8960.0,4672.0
3.305,-12352.0,-8896.0,4736.0
3.3075,-12288.0,-8960.0,4736.0
3.31,-12224.0,-8960.0,4736.0
3.3125,-12160.0,-8960.0,4672.0
3.315,-12096.0,-8896.0,4672.0
3.3175,-12096.0,-8960.0,4672.0
3.32,-12096.0,-9024.0,4672.0
3.3225,-12032.0,-9024.0,4608.0
3.325,-12032.0,-9024.0,4672.0
3.3275,-12032.0,-8960.0,4672.0
3.33,-11968.0,-8960.0,4672.0
3.3325,-11968.0,-9024.0,4608.0
3.335,-12032.0,-9024.0,4608.0
3.3375,-12032.0,-9088.0,4544.0
3.34,-12032.0,-9152.0,4672.0
3.3425,-12160.0,-9088.0,4608.0
3.345,-12160.0,-9088.0,4608.0
3.3475,-12096.0,-9088.0,4672.0
3.35,-12160.0,-9088.0,4608.0
3.3525,-12160.0,-9088.0,4544.0
3.355,-12160.0,-9216.0,4608.0
3.3575,-12160.0,-9152.0,4608.0
3.36,-12288.0,-9152.0,4544.0
3.3625,-12416.0,-9152.0,4544.0
3.365,-12416.0,-9088.0,4544.0
3.3675,-12416.0,-9152.0,4544.0
3.37,-12480.0,-9088.0,4544.0
3.3725,-12544.0,-9152.0,4544.0
3.375,-12608.0,-9088.0,4480.0
3.3775,-12672.0,-9088.0,4480.0
3.38,-12800.0,-9088.0,4416.0
3.3825,-12864.0,-9152.0,4480.0
3.385,-12928.0,-9088.0,4416.0
3.3875,-12992.0,-9088.0,4352.0
3.39,-13120.0,-9152.0,4352.0
3.3925,-13184.0,-9088.0,4288.0
3.395,-13248.0,-9216.0,4224.0
3.3975,-13312.0,-9280.0,4224.0
3.4,-13376.0,-9280.0,4288.0
3.4025,-13376.0,-9280.0,4224.0
3.405,-13504.0,-9216.0,4224.0
3.4075,-13568.0,-9216.0,4224.0
3.41,-13632.0,-9152.0,4288.0
3.4125,-13696.0,-9152.0,4288.0
3.415,-13760.0,-9152.0,4288.0
3.4175,-13760.0,-9280.0,4224.0
3.42,-13760.0,-9280.0,4288.0
3.4225,-13824.0,-9280.0,4160.0
3.425,-13888.0,-9344.0,4160.0
3.4275,-13888.0,-9408.0,4160.0
3.43,-13952.0,-9344.0,4160.0
3.4325,-13952.0,-9344.0,4096.0
3.435,-13952.0,-9344.0,4096.0
3.4375,-13952.0,-9408.0,4096.0
3.44,-13952.0,-9408.0,4096.0
3.4425,-13952.0,-9408.0,4032.0
3.445,-13952.0,-9408.0,4032.0
3.4475,-14016.0,-9536.0,4096.0
3.45,-14016.0,-9472.0,4096.0
3.4525,-14016.0,-9536.0,4096.0
3.455,-14016.0,-9600.0,3968.0
3.4575,-14080.0,-9600.0,3968.0
3.46,-14080.0,-9600.0,4096.0
3.4625,-14144.0,-9600.0,4032.0
3.465,-14144.0,-9664.0,4096.0
3.4675,-14144.0,-9600.0,4096.0
3.47,-14144.0,-9600.0,4160.0
3.4725,-14144.0,-9536.0,4224.0
3.475,-14080.0,-9600.0,4160.0
3.4775,-14080.0,-9600.0,4288.0
3.48,-14080.0,-9600.0,4288.0
3.4825,-14080.0,-9600.0,4288.0
3.485,-14080.0,-9536.0,4224.0
3.4875,-14016.0,-9536.0,4352.0
3.49,-13952.0,-9536.0,4288.0
3.4925,-13888.0,-9472.0,4224.0
3.495,-13952.0,-9408.0,4352.0
3.4975,-13952.0,-9408.0,4288.0
3.5,-13888.0,-9472.0,4352.0
3.5025,-13888.0,-9408.0,4352.0
3.505,-13824.0,-9344.0,4416.0
3.5075,-13760.0,-9280.0,4416.0
3.51,-13696.0,-9408.0,4480.0
3.5125,-13632.0,-9408.0,4480.0
3.515,-13632.0,-9536.0,4416.0
3.5175,-13568.0,-9536.0,4480.0
3.52,-13504.0,-9472.0,4544.0
3.5225,-13504.0,-9472.0,4544.0
3.525,-13440.0,-9408.0,4544.0
3.5275,-13312.0,-9408.0,4480.0
3.53,-13248.0,-9280.0,4480.0
3.5325,-13184.0,-9344.0,4608.0
3.535,-13120.0,-9344.0,4608.0
3.5375,-12992.0,-9344.0,4672.0
3.54,-12992.0,-9344.0,4736.0
3.5425,-12864.0,-9280.0,4736.0
3.545,-12864.0,-9280.0,4864.0
3.5475,-12864.0,-9280.0,4864.0
3.55,-12800.0,-9344.0,4864.0
3.5525,-12736.0,-9344.0,4864.0
3.555,-12736.0,-9280.0,4800.0
3.5575,-12672.0,-9280.0,4864.0
3.56,-12672.0,-9152.0,4864.0
3.5625,-12544.0,-9088.0,4928.0
3.565,-12544.0,-9088.0,4864.0
3.5675,-12544.0,-9088.0,4864.0
3.57,-12544.0,-9088.0,4864.0
3.5725,-12544.0,-9024.0,4864.0
3.575,-12544.0,-9024.0,4928.0
3.5775,-12480.0,-9024.0,4928.0
3.58,-12480.0,-9024.0,5056.0
3.5825,-12544.0,-9088.0,5056.0
3.585,-12544.0,-9088.0,4992.0
3.5875,-12608.0,-9088.0,4992.0
3.59,-12544.0,-9088.0,5056.0
3.5925,-12608.0,-9152.0,4992.0
3.595,-12672.0,-9152.0,4992.0
3.5975,-12672.0,-9152.0,4992.0
3.6,-12672.0,-9216.0,4992.0
3.6025,-12736.0,-9152.0,4928.0
3.605,-12736.0,-9152.0,4992.0
3.6075,-12800.0,-9152.0,5056.0
3.61,-12736.0,-9152.0,5056.0
3.6125,-12672.0,-9152.0,5056.0
3.615,-12736.0,-9152.0,5120.0
3.6175,-12672.0,-9216.0,5120.0
3.62,-12672.0,-9216.0,5120.0
3.6225,-12672.0,-9280.0,5184.0
3.625,-12672.0,-9280.0,5120.0
3.6275,-12672.0,-9280.0,5120.0
3.63,-12736.0,-9280.0,5120.0
3.6325,-12736.0,-9280.0,5184.0
3.635,-12736.0,-9280.0,5184.0
3.6375,-12736.0,-9280.0,5184.0
3.64,-12736.0,-9344.0,5184.0
3.6425,-12800.0,-9344.0,5184.0
3.645,-12736.0,-9280.0,5120.0
3.6475,-12672.0,-9344.0,5184.0
3.65,-12672.0,-9344.0,5184.0
3.6525,-12672.0,-9408.0,5120.0
3.655,-12672.0,-9408.0,5184.0
3.6575,-12672.0,-9408.0,5184.0
3.66,-12672.0,-9344.0,5184.0
3.6625,-12608.0,-9408.0,5248.0
3.665,-12608.0,-9344.0,5248.0
3.6675,-12352.0,-9344.0,5248.0
3.67,-12480.0,-9344.0,5184.0
3.6725,-12544.0,-9344.0,5184.0
3.675,-12544.0,-9280.0,5184.0
3.6775,-12416.0,-9280.0,5184.0
3.68,-12416.0,-9216.0,5312.0
3.6825,-12416.0,-9280.0,5120.0
3.685,-12288.0,-9216.0,5184.0
3.6875,-12352.0,-9152.0,5248.0
3.69,-12416.0,-9216.0,5184.0
3.6925,-12416.0,-9152.0,5248.0
3.695,-12416.0,-9152.0,5248.0
3.6975,-12416.0,-9152.0,5120.0
3.7,-12480.0,-9152.0,5056.0
3.7025,-12480.0,-9088.0,5056.0
3.705,-12480.0,-9088.0,5056.0
3.7075,-12480.0,-9088.0,5056.0
3.71,-12480.0,-9152.0,5056.0
3.7125,-12544.0,-9088.0,5056.0
3.715,-12608.0,-9024.0,5056.0
3.7175,-12544.0,-9024.0,5056.0
3.72,-12544.0,-9024.0,4992.0
3.7225,-12608.0,-9088.0,4992.0
3.725,-12608.0,-9088.0,5056.0
3.7275,-12608.0,-9024.0,5056.0
3.73,-12608.0,-9152.0,5056.0
3.7325,-12608.0,-9152.0,5056.0
3.735,-12608.0,-9152.0,5056.0
3.7375,-12608.0,-9088.0,4992.0
3.74,-12608.0,-9152.0,4928.0
3.7425,-12608.0,-9088.0,4928.0
3.745,-12608.0,-9088.0,4864.0
3.7475,-12672.0,-9088.0,4928.0
3.75,-12672.0,-9088.0,4992.0
3.7525,-12672.0,-9152.0,4992.0
3.755,-12608.0,-9088.0,4992.0
3.7575,-12608.0,-9088.0,5056.0
3.76,-12608.0,-9152.0,4992.0
3.7625,-12544.0,-9152.0,4928.0
3.765,-12608.0,-9152.0,4864.0
3.7675,-12608.0,-9152.0,4928.0
3.77,-12608.0,-9088.0,4928.0
3.7725,-12608.0,-9152.0,4928.0
3.775,-12608.0,-9216.0,4992.0
3.7775,-12544.0,-9216.0,4864.0
3.78,-12608.0,-9280.0,4800.0
3.7825,-12544.0,-9216.0,4800.0
3.785,-12544.0,-9280.0,4928.0
3.7875,-12544.0,-9344.0,4864.0
3.79,-12480.0,-9344.0,4864.0
3.7925,-12480.0,-9280.0,4736.0
3.795,-12480.0,-9344.0,4800.0
3.7975,-12480.0,-9344.0,4800.0
3.8,-12416.0,-9408.0,4864.0
3.8025,-12480.0,-9408.0,4864.0
3.805,-12544.0,-9408.0,4992.0
3.8075,-12480.0,-9408.0,4928.0
3.81,-12544.0,-9472.0,4864.0
3.8125,-12480.0,-9536.0,4864.0
3.815,-12480.0,-9536.0,4800.0
3.8175,-12480.0,-9536.0,4864.0
3.82,-12544.0,-9536.0,4736.0
3.8225,-12480.0,-9472.0,4672.0
3.825,-12416.0,-9536.0,4672.0
3.8275,-12480.0,-9472.0,4672.0
3.83,-12480.0,-9600.0,4736.0
3.8325,-12416.0,-9600.0,4736.0
3.835,-12480.0,-9536.0,4736.0
3.8375,-12480.0,-9600.0,4736.0
3.84,-12480.0,-9664.0,4800.0
3.8425,-12480.0,-9600.0,4800.0
3.845,-12480.0,-9600.0,4928.0
3.8475,-12416.0,-9600.0,4864.0
3.85,-12416.0,-9664.0,4800.0
3.8525,-12416.0,-9728.0,4800.0
3.855,-12416.0,-9664.0,4864.0
3.8575,-12480.0,-9728.0,4800.0
3.86,-12480.0,-9664.0,4864.0
3.8625,-12480.0,-9664.0,4864.0
3.865,-12416.0,-9664.0,4864.0
3.8675,-12416.0,-9664.0,4864.0
3.87,-12480.0,-9728.0,4800.0
3.8725,-12480.0,-9728.0,4800.0
3.875,-12480.0,-9728.0,4736.0
3.8775,-12416.0,-9792.0,4800.0
3.88,-12480.0,-9856.0,4736.0
3.8825,-12416.0,-9792.0,4736.0
3.885,-12416.0,-9856.0,4736.0
3.8875,-12416.0,-9856.0,4736.0
3.89,-12480.0,-9856.0,4736.0
3.8925,-12416.0,-9920.0,4800.0
3.895,-12416.0,-9920.0,4800.0
3.8975,-12416.0,-9920.0,4864.0
3.9,-12416.0,-9920.0,4800.0
3.9025,-12416.0,-9984.0,4736.0
3.905,-12352.0,-9984.0,4672.0
3.9075,-12416.0,-9984.0,4672.0
3.91,-12416.0,-9984.0,4672.0
3.9125,-12416.0,-9984.0,4672.0
3.915,-12544.0,-9984.0,4736.0
3.9175,-12480.0,-9984.0,4672.0
3.92,-12544.0,-10112.0,4736.0
3.9225,-12544.0,-10112.0,4672.0
3.925,-12672.0,-10112.0,4672.0
3.9275,-12736.0,-10176.0,4736.0
3.93,-12800.0,-10176.0,4864.0
3.9325,-12800.0,-10112.0,4800.0
3.935,-12800.0,-10176.0,4736.0
3.9375,-12800.0,-10176.0,4736.0
3.94,-12864.0,-10112.0,4800.0
3.9425,-12864.0,-10176.0,4800.0
3.945,-12928.0,-10176.0,4800.0
3.9475,-12992.0,-10176.0,4672.0
3.95,-12992.0,-10176.0,4672.0
3.9525,-13056.0,-10240.0,4672.0
3.955,-13120.0,-10240.0,4736.0
3.9575,-13184.0,-10240.0,4672.0
3.96,-13312.0,-10240.0,4672.0
3.9625,-13376.0,-10304.0,4672.0
3.965,-13440.0,-10368.0,4672.0
3.9675,-13568.0,-10432.0,4672.0
3.97,-13568.0,-10496.0,4672.0
3.9725,-13696.0,-10432.0,4672.0
3.975,-13760.0,-10368.0,4672.0
3.9775,-13696.0,-10304.0,4672.0
3.98,-13824.0,-10432.0,4736.0
3.9825,-13824.0,-10368.0,4672.0
3.985,-13952.0,-10304.0,4672.0
3.9875,-13952.0,-10240.0,4608.0
3.99,-13888.0,-10240.0,4608.0
3.9925,-14016.0,-10368.0,4608.0
3.995,-13952.0,-10304.0,4608.0
3.9975,-14016.0,-10368.0,4608.0
4.0,-14016.0,-10240.0,4672.0
4.0025,-14016.0,-10304.0,4544.0
4.005,-13952.0,-10240.0,4480.0
4.0075,-13888.0,-10240.0,4480.0
4.01,-13824.0,-10240.0,4544.0
4.0125,-13824.0,-10176.0,4608.0
4.015,-13824.0,-10176.0,4608.0
4.0175,-13760.0,-10112.0,4544.0
4.02,-13760.0,-10112.0,4608.0
4.0225,-13696.0,-10112.0,4608.0
4.025,-13632.0,-10112.0,4608.0
4.0275,-13568.0,-10176.0,4672.0
4.03,-13504.0,-10176.0,4672.0
4.0325,-13440.0,-10176.0,4736.0
4.035,-13440.0,-10176.0,4800.0
4.0375,-13312.0,-10112.0,4800.0
4.04,-13184.0,-10048.0,4800.0
4.0425,-13120.0,-10048.0,4864.0
4.045,-12992.0,-10048.0,4800.0
4.0475,-12864.0,-9984.0,4864.0
4.05,-12864.0,-9984.0,4800.0
4.0525,-12736.0,-9920.0,4800.0
4.055,-12672.0,-9856.0,4800.0
4.0575,-12544.0,-9856.0,4800.0
4.06,-12480.0,-9792.0,4800.0
4.0625,-12416.0,-9792.0,4800.0
4.065,-12416.0,-9792.0,4800.0
4.0675,-12288.0,-9792.0,4736.0
4.07,-12224.0,-9728.0,4736.0
4.0725,-12160.0,-9728.0,4800.0
4.075,-12160.0,-9728.0,4800.0
4.0775,-12096.0,-9664.0,4864.0
4.08,-11904.0,-9728.0,4800.0
4.0825,-11904.0,-9664.0,4864.0
4.085,-11840.0,-9664.0,4992.0
4.0875,-11840.0,-9664.0,4928.0
4.09,-11776.0,-9728.0,4928.0
4.0925,-11776.0,-9728.0,4928.0
4.095,-11712.0,-9728.0,4928.0
4.0975,-11648.0,-9664.0,4928.0
4.1,-11648.0,-9728.0,4928.0
4.1025,-11584.0,-9728.0,4928.0
4.105,-11584.0,-9664.0,4928.0
4.1075,-11584.0,-9728.0,4864.0
4.11,-11584.0,-9664.0,4736.0
4.1125,-11584.0,-9600.0,4736.0
4.115,-11520.0,-9664.0,4736.0
4.1175,-11392.0,-9728.0,4800.0
4.12,-11456.0,-9728.0,4800.0
4.1225,-11392.0,-9728.0,4736.0
4.125,-11392.0,-9600.0,4800.0
4.1275,-11328.0,-9600.0,4736.0
4.13,-11264.0,-9600.0,4800.0
4.1325,-11264.0,-9600.0,4800.0
4.135,-11200.0,-9664.0,4800.0
4.1375,-11200.0,-9664.0,4800.0
4.14,-11136.0,-9664.0,4736.0
4.1425,-11136.0,-9600.0,4800.0
4.145,-11136.0,-9664.0,4736.0
4.1475,-11072.0,-9600.0,4736.0
4.15,-11008.0,-9664.0,4736.0
4.1525,-11008.0,-9600.0,4672.0
4.155,-10944.0,-9600.0,4672.0
4.1575,-10944.0,-9536.0,4544.0
4.16,-10880.0,-9600.0,4544.0
4.1625,-10944.0,-9536.0,4672.0
4.165,-10944.0,-9536.0,4544.0
4.1675,-10880.0,-9536.0,4544.0
4.17,-10816.0,-9536.0,4544.0
4.1725,-10816.0,-9536.0,4480.0
4.175,-10816.0,-9536.0,4416.0
4.1775,-10880.0,-9536.0,4416.0
4.18,-10880.0,-9536.0,4352.0
4.1825,-10880.0,-9536.0,4416.0
4.185,-10944.0,-9472.0,4416.0
4.1875,-10944.0,-9536.0,4352.0
4.19,-11008.0,-9536.0,4352.0
4.1925,-11008.0,-9536.0,4416.0
4.195,-11008.0,-9536.0,4416.0
4.1975,-11008.0,-9472.0,4416.0
4.2,-11072.0,-9472.0,4288.0
4.2025,-11200.0,-9408.0,4352.0
4.205,-11264.0,-9472.0,4352.0
4.2075,-11264.0,-9472.0,4352.0
4.21,-11328.0,-9536.0,4352.0
4.2125,-11392.0,-9600.0,4288.0
4.215,-11392.0,-9536.0,4288.0
4.2175,-11392.0,-9536.0,4224.0
4.22,-11456.0,-9536.0,4160.0
4.2225,-11520.0,-9600.0,4160.0
4.225,-11520.0,-9600.0,4160.0
4.2275,-11520.0,-9536.0,4096.0
4.23,-11584.0,-9536.0,4096.0
4.2325,-11584.0,-9536.0,4096.0
4.235,-11584.0,-9536.0,4160.0
4.2375,-11648.0,-9536.0,4032.0
4.24,-11648.0,-9664.0,4096.0
4.2425,-11712.0,-9728.0,3968.0
4.245,-11776.0,-9664.0,3968.0
4.2475,-11776.0,-9728.0,4032.0
4.25,-11776.0,-9664.0,3968.0
4.2525,-11776.0,-9664.0,3968.0
4.255,-11776.0,-9728.0,3968.0
4.2575,-11776.0,-9664.0,3968.0
4.26,-11840.0,-9600.0,3968.0
4.2625,-11840.0,-9664.0,3904.0
4.265,-11840.0,-9664.0,3904.0
4.2675,-11904.0,-9664.0,3904.0
4.27,-11840.0,-9600.0,3904.0
4.2725,-11904.0,-9536.0,3840.0
4.275,-11904.0,-9536.0,3904.0
4.2775,-11776.0,-9408.0,3840.0
4.28,-11776.0,-9408.0,3840.0
4.2825,-11776.0,-9472.0,3840.0
4.285,-11712.0,-9472.0,3840.0
4.2875,-11712.0,-9408.0,3840.0
4.29,-11712.0,-9408.0,3904.0
4.2925,-11712.0,-9344.0,3840.0
4.295,-11776.0,-9344.0,3840.0
4.2975,-11712.0,-9280.0,3776.0
4.3,-11712.0,-9344.0,3776.0
4.3025,-11712.0,-9344.0,3776.0
4.305,-11776.0,-9280.0,3776.0
4.3075,-11712.0,-9344.0,3840.0
4.31,-11776.0,-9408.0,3840.0
4.3125,-11840.0,-9408.0,3776.0
4.315,-11840.0,-9408.0,3776.0
4.3175,-11840.0,-9344.0,3712.0
4.32,-11904.0,-9344.0,3776.0
4.3225,-11904.0,-9408.0,3776.0
4.325,-11904.0,-9344.0,3712.0
4.3275,-11968.0,-9408.0,3712.0
4.33,-12032.0,-9408.0,3712.0
4.3325,-12096.0,-9408.0,3648.0
4.335,-12096.0,-9408.0,3648.0
4.3375,-12160.0,-9408.0,3648.0
4.34,-12288.0,-9408.0,3712.0
4.3425,-12224.0,-9408.0,3712.0
4.345,-12288.0,-9344.0,3776.0
4.3475,-12352.0,-9344.0,3712.0
4.35,-12352.0,-9344.0,3712.0
4.3525,-12416.0,-9408.0,3712.0
4.355,-12416.0,-9408.0,3712.0
4.3575,-12480.0,-9408.0,3712.0
4.36,-12480.0,-9472.0,3776.0
4.3625,-12544.0,-9408.0,3840.0
4.365,-12544.0,-9408.0,3776.0
4.3675,-12544.0,-9344.0,3776.0
4.37,-12544.0,-9344.0,3840.0
4.3725,-12544.0,-9408.0,3840.0
4.375,-12544.0,-9408.0,3904.0
4.3775,-12544.0,-9344.0,3904.0
4.38,-12608.0,-9408.0,3904.0
4.3825,-12608.0,-9408.0,3904.0
4.385,-12672.0,-9408.0,4032.0
4.3875,-12672.0,-9408.0,4032.0
4.39,-12672.0,-9472.0,4032.0
4.3925,-12608.0,-9472.0,4096.0
4.395,-12608.0,-9472.0,4096.0
4.3975,-12608.0,-9472.0,4096.0
4.4,-12608.0,-9536.0,4160.0
4.4025,-12544.0,-9536.0,4224.0
4.405,-12544.0,-9536.0,4224.0
4.4075,-12544.0,-9600.0,4288.0
4.41,-12544.0,-9600.0,4288.0
4.4125,-12608.0,-9536.0,4288.0
4.415,-12544.0,-9536.0,4288.0
4.4175,-12480.0,-9600.0,4352.0
4.42,-12480.0,-9600.0,4352.0
4.4225,-12480.0,-9536.0,4352.0
4.425,-12544.0,-9472.0,4416.0
4.4275,-12544.0,-9536.0,4544.0
4.43,-12480.0,-9600.0,4544.0
4.4325,-12544.0,-9600.0,4544.0
4.435,-12544.0,-9536.0,4608.0
4.4375,-12480.0,-9536.0,4608.0
4.44,-12544.0,-9536.0,4672.0
4.4425,-12608.0,-9472.0,4736.0
4.445,-12608.0,-9536.0,4736.0
4.4475,-12608.0,-9536.0,4736.0
4.45,-12544.0,-9600.0,4672.0
4.4525,-12480.0,-9664.0,4864.0
4.455,-12480.0,-9664.0,4864.0
4.4575,-12480.0,-9600.0,4800.0
4.46,-12480.0,-9600.0,4864.0
4.4625,-12480.0,-9600.0,4864.0
4.465,-12480.0,-9664.0,4864.0
4.4675,-12480.0,-9664.0,4800.0
4.47,-12480.0,-9536.0,4864.0
4.4725,-12416.0,-9600.0,4800.0
4.475,-12416.0,-9600.0,4800.0
4.4775,-12480.0,-9600.0,4800.0
4.48,-12480.0,-9600.0,4800.0
4.4825,-12480.0,-9600.0,4736.0
4.485,-12544.0,-9536.0,4672.0
4.4875,-12544.0,-9472.0,4736.0
4.49,-12608.0,-9472.0,4800.0
4.4925,-12672.0,-9408.0,4800.0
4.495,-12736.0,-9472.0,4736.0
4.4975,-12800.0,-9408.0,4800.0
4.5,-12928.0,-9408.0,4800.0
4.5025,-12992.0,-9344.0,4736.0
4.505,-13120.0,-9408.0,4736.0
4.5075,-13120.0,-9344.0,4672.0
4.51,-13312.0,-9344.0,4672.0
4.5125,-13376.0,-9344.0,4608.0
4.515,-13568.0,-9344.0,4608.0
4.5175,-13696.0,-9344.0,4544.0
4.52,-13824.0,-9344.0,4544.0
4.5225,-14016.0,-9344.0,4608.0
4.525,-14144.0,-9344.0,4480.0
4.5275,-14336.0,-9280.0,4480.0
4.53,-14528.0,-9280.0,4416.0
4.5325,-14592.0,-9280.0,4416.0
4.535,-14720.0,-9280.0,4480.0
4.5375,-14912.0,-9280.0,4480.0
4.54,-15040.0,-9280.0,4480.0
4.5425,-15296.0,-9216.0,4416.0
4.545,-15424.0,-9088.0,4480.0
4.5475,-15488.0,-9024.0,4480.0
4.55,-15616.0,-9024.0,4416.0
4.5525,-15808.0,-9024.0,4416.0
4.555,-15936.0,-8960.0,4480.0
4.5575,-16064.0,-8960.0,4480.0
4.56,-16256.0,-8896.0,4608.0
4.5625,-16384.0,-8832.0,4608.0
4.565,-16384.0,-8832.0,4608.0
4.5675,-16448.0,-8768.0,4736.0
4.57,-16512.0,-8704.0,4672.0
4.5725,-16576.0,-8704.0,4800.0
4.575,-16704.0,-8768.0,4864.0
4.5775,-16768.0,-8768.0,4864.0
4.58,-16768.0,-8768.0,4800.0
4.5825,-16768.0,-8768.0,4800.0
4.585,-16768.0,-8832.0,4864.0
4.5875,-16832.0,-8896.0,4864.0
4.59,-16896.0,-8832.0,4800.0
4.5925,-16832.0,-8768.0,4800.0
4.595,-16832.0,-8768.0,4800.0
4.5975,-16896.0,-8704.0,4736.0
4.6,-16960.0,-8640.0,4736.0
4.6025,-16960.0,-8640.0,4736.0
4.605,-16960.0,-8576.0,4736.0
4.6075,-16960.0,-8512.0,4672.0
4.61,-17024.0,-8512.0,4608.0
4.6125,-17024.0,-8512.0,4608.0
4.615,-17024.0,-8448.0,4544.0
4.6175,-17024.0,-8384.0,4608.0
4.62,-16960.0,-8384.0,4608.0
4.6225,-16960.0,-8320.0,4608.0
4.625,-16896.0,-8256.0,4736.0
4.6275,-16896.0,-8192.0,4736.0
4.63,-16896.0,-8192.0,4800.0
4.6325,-16832.0,-8064.0,4864.0
4.635,-16832.0,-7936.0,4864.0
4.6375,-16832.0,-7872.0,4992.0
4.64,-16704.0,-7744.0,5120.0
4.6425,-16640.0,-7552.0,5056.0
4.645,-16576.0,-7424.0,5184.0
4.6475,-16576.0,-7296.0,5184.0
4.65,-16576.0,-7168.0,5184.0
4.6525,-16640.0,-7104.0,5056.0
4.655,-16576.0,-7040.0,5184.0
4.6575,-16512.0,-6976.0,5120.0
4.66,-16448.0,-6912.0,4992.0
4.6625,-16448.0,-6848.0,5056.0
4.665,-16448.0,-6848.0,4992.0
4.6675,-16448.0,-6784.0,4992.0
4.67,-16576.0,-6720.0,4992.0
4.6725,-16576.0,-6592.0,4992.0
4.675,-16512.0,-6528.0,4992.0
4.6775,-16512.0,-6464.0,4992.0
4.68,-16512.0,-6336.0,5056.0
4.6825,-16512.0,-6336.0,5120.0
4.685,-16512.0,-6336.0,5120.0
4.6875,-16448.0,-6272.0,5120.0
4.69,-16448.0,-6336.0,5056.0
4.6925,-16384.0,-6272.0,5056.0
4.695,-16320.0,-6144.0,5120.0
4.6975,-16256.0,-6016.0,5120.0
4.7,-16192.0,-6016.0,5056.0
4.7025,-16192.0,-6016.0,5120.0
4.705,-16064.0,-5952.0,4992.0
4.7075,-16000.0,-5952.0,5056.0
4.71,-15936.0,-5952.0,5056.0
4.7125,-15872.0,-5888.0,5056.0
4.715,-15744.0,-5824.0,4992.0
4.7175,-15616.0,-5760.0,4992.0
4.72,-15488.0,-5632.0,5056.0
4.7225,-15360.0,-5568.0,5056.0
4.725,-15168.0,-5504.0,5120.0
4.7275,-15104.0,-5440.0,5120.0
4.73,-14976.0,-5440.0,5120.0
4.7325,-14912.0,-5376.0,5056.0
4.735,-14848.0,-5312.0,4992.0
4.7375,-14784.0,-5312.0,5056.0
4.74,-14656.0,-5312.0,5056.0
4.7425,-14656.0,-5184.0,4992.0
4.745,-14656.0,-5184.0,4992.0
4.7475,-14592.0,-4992.0,5056.0
4.75,-14592.0,-4864.0,5056.0
4.7525,-14528.0,-4800.0,5120.0
4.755,-14464.0,-4736.0,5184.0
4.7575,-14464.0,-4736.0,5120.0
4.76,-14528.0,-4736.0,5120.0
4.7625,-14592.0,-4672.0,5120.0
4.765,-14656.0,-4672.0,5184.0
4.7675,-14656.0,-4672.0,5184.0
4.77,-14720.0,-4672.0,5184.0
4.7725,-14784.0,-4672.0,5184.0
4.775,-14848.0,-4672.0,5120.0
4.7775,-14912.0,-4608.0,5120.0
4.78,-14976.0,-4672.0,5056.0
4.7825,-15040.0,-4672.0,5056.0
4.785,-15104.0,-4672.0,5120.0
4.7875,-15168.0,-4672.0,5120.0
4.79,-15296.0,-4736.0,5056.0
4.7925,-15424.0,-4800.0,4992.0
4.795,-15488.0,-4864.0,4992.0
4.7975,-15488.0,-4864.0,4928.0
4.8,-15616.0,-4928.0,4864.0
4.8025,-15680.0,-4992.0,4800.0
4.805,-15680.0,-5056.0,4800.0
4.8075,-15744.0,-5056.0,4864.0
4.81,-15808.0,-5056.0,4864.0
4.8125,-15872.0,-5056.0,4864.0
4.815,-15808.0,-4992.0,4800.0
4.8175,-15744.0,-4992.0,4736.0
4.82,-15744.0,-4928.0,4800.0
4.8225,-15680.0,-4864.0,4800.0
4.825,-15616.0,-4800.0,4864.0
4.8275,-15616.0,-4736.0,4800.0
4.83,-15552.0,-4800.0,4800.0
4.8325,-15552.0,-4800.0,4864.0
4.835,-15552.0,-4800.0,4928.0
4.8375,-15424.0,-4800.0,4928.0
4.84,-15360.0,-4736.0,4928.0
4.8425,-15232.0,-4800.0,4992.0
4.845,-15168.0,-4736.0,4992.0
4.8475,-15168.0,-4736.0,4928.0
4.85,-15104.0,-4736.0,4928.0
4.8525,-15104.0,-4736.0,4928.0
4.855,-15040.0,-4736.0,4864.0
4.8575,-15040.0,-4736.0,4864.0
4.86,-14912.0,-4736.0,4864.0
4.8625,-14912.0,-4672.0,4928.0
4.865,-14912.0,-4672.0,4928.0
4.8675,-14656.0,-4608.0,4992.0
4.87,-14848.0,-4608.0,5056.0
4.8725,-14848.0,-4608.0,5056.0
4.875,-14784.0,-4672.0,5120.0
4.8775,-14848.0,-4608.0,5120.0
4.88,-14848.0,-4608.0,5056.0
4.8825,-14848.0,-4672.0,5120.0
4.885,-14848.0,-4672.0,5120.0
4.8875,-14912.0,-4672.0,5056.0
4.89,-14912.0,-4608.0,5120.0
4.8925,-14848.0,-4608.0,5120.0
4.895,-14848.0,-4672.0,5056.0
4.8975,-14848.0,-4608.0,5056.0
4.9,-14848.0,-4544.0,4992.0
4.9025,-14848.0,-4544.0,5056.0
4.905,-14848.0,-4544.0,5184.0
4.9075,-14848.0,-4544.0,5184.0
4.91,-14912.0,-4544.0,5120.0
4.9125,-14912.0,-4608.0,5184.0
4.915,-14912.0,-4608.0,5184.0
4.9175,-14976.0,-4544.0,5056.0
4.92,-14912.0,-4608.0,5120.0
4.9225,-14976.0,-4608.0,5056.0
4.925,-14976.0,-4608.0,5056.0
4.9275,-14976.0,-4608.0,5056.0
4.93,-14976.0,-4672.0,5056.0
4.9325,-14976.0,-4672.0,5056.0
4.935,-15040.0,-4672.0,5056.0
4.9375,-15040.0,-4736.0,5056.0
4.94,-15040.0,-4736.0,5056.0
4.9425,-15104.0,-4800.0,5056.0
4.945,-15040.0,-4800.0,5056.0
4.9475,-15040.0,-4672.0,4992.0
4.95,-14976.0,-4672.0,4992.0
4.9525,-14976.0,-4672.0,5056.0
4.955,-14976.0,-4608.0,5056.0
4.9575,-14976.0,-4608.0,5056.0
4.96,-14976.0,-4544.0,4992.0
4.9625,-14976.0,-4544.0,4992.0
4.965,-14912.0,-4544.0,4928.0
4.9675,-14912.0,-4480.0,4992.0
4.97,-14976.0,-4416.0,4928.0
4.9725,-14912.0,-4480.0,4864.0
4.975,-14976.0,-4480.0,4928.0
4.9775,-14912.0,-4480.0,4928.0
4.98,-14912.0,-4416.0,4864.0
4.9825,-14912.0,-4416.0,4928.0
4.985,-14912.0,-4416.0,4928.0
4.9875,-14976.0,-4480.0,4928.0
4.99,-14912.0,-4480.0,4864.0
4.9925,-14912.0,-4416.0,4800.0
4.995,-14912.0,-4416.0,4864.0
4.9975,-14976.0,-4416.0,4864.0
5.0,-14976.0,-4352.0,4864.0
5.0025,-14976.0,-4352.0,4800.0
5.005,-15040.0,-4352.0,4800.0
5.0075,-15040.0,-4352.0,4800.0
5.01,-15040.0,-4288.0,4864.0
5.0125,-14976.0,-4352.0,4864.0
5.015,-14912.0,-4288.0,4800.0
5.0175,-14976.0,-4352.0,4800.0
5.02,-14976.0,-4352.0,4800.0
5.0225,-14976.0,-4288.0,4800.0
5.025,-14976.0,-4352.0,4736.0
5.0275,-14976.0,-4352.0,4736.0
5.03,-14976.0,-4352.0,4864.0
5.0325,-14912.0,-4352.0,4864.0
5.035,-14912.0,-4288.0,4864.0
5.0375,-14912.0,-4224.0,4864.0
5.04,-14848.0,-4160.0,4992.0
5.0425,-14784.0,-4096.0,4864.0
5.045,-14784.0,-4160.0,4928.0
5.0475,-14720.0,-4160.0,4928.0
5.05,-14656.0,-4096.0,4928.0
5.0525,-14592.0,-4096.0,4864.0
5.055,-14592.0,-4096.0,4928.0
5.0575,-14464.0,-4096.0,4864.0
5.06,-14400.0,-4032.0,4800.0
5.0625,-14336.0,-3968.0,4928.0
5.065,-14272.0,-3968.0,4864.0
5.0675,-14208.0,-4032.0,4928.0
5.07,-14208.0,-3968.0,4864.0
5.0725,-14144.0,-3968.0,4864.0
5.075,-14080.0,-3968.0,4928.0
5.0775,-14080.0,-3904.0,4928.0
5.08,-14080.0,-3904.0,4992.0
5.0825,-14016.0,-3904.0,4992.0
5.085,-14080.0,-3904.0,4992.0
5.0875,-14080.0,-3904.0,4928.0
5.09,-13952.0,-3968.0,4800.0
5.0925,-14016.0,-3968.0,4864.0
5.095,-14016.0,-3968.0,4864.0
5.0975,-14016.0,-3904.0,4864.0
5.1,-14016.0,-3904.0,4736.0
5.1025,-14016.0,-3904.0,4736.0
5.105,-14016.0,-3904.0,4864.0
5.1075,-14080.0,-3840.0,4800.0
5.11,-14144.0,-3840.0,4736.0
5.1125,-14144.0,-3904.0,4864.0
5.115,-14080.0,-3904.0,4736.0
5.1175,-14144.0,-3904.0,4736.0
5.12,-14208.0,-3840.0,4800.0
5.1225,-14208.0,-3840.0,4736.0
5.125,-14208.0,-3904.0,4672.0
5.1275,-14144.0,-3968.0,4736.0
5.13,-14272.0,-3904.0,4736.0
5.1325,-14272.0,-3904.0,4672.0
5.135,-14272.0,-3904.0,4608.0
5.1375,-14208.0,-3968.0,4608.0
5.14,-14208.0,-3968.0,4544.0
5.1425,-14144.0,-3968.0,4544.0
5.145,-14080.0,-3968.0,4480.0
5.1475,-14144.0,-3904.0,4480.0
5.15,-14080.0,-3968.0,4544.0
5.1525,-14080.0,-3904.0,4480.0
5.155,-13952.0,-3904.0,4480.0
5.1575,-13952.0,-3904.0,4416.0
5.16,-13952.0,-3904.0,4480.0
5.1625,-13888.0,-3904.0,4480.0
5.165,-13888.0,-3840.0,4480.0
5.1675,-13888.0,-3904.0,4416.0
5.17,-13888.0,-3904.0,4416.0
5.1725,-13824.0,-3904.0,4352.0
5.175,-13824.0,-3904.0,4288.0
5.1775,-13888.0,-3904.0,4288.0
5.18,-13824.0,-3840.0,4288.0
5.1825,-13824.0,-3904.0,4224.0
5.185,-13824.0,-3904.0,4352.0
5.1875,-13824.0,-3968.0,4352.0
5.19,-13760.0,-3904.0,4416.0
5.1925,-13760.0,-3904.0,4416.0
5.195,-13760.0,-3840.0,4480.0
5.1975,-13760.0,-3904.0,4352.0
5.2,-13824.0,-3904.0,4352.0
5.2025,-13760.0,-3968.0,4352.0
5.205,-13824.0,-3904.0,4288.0
5.2075,-13824.0,-3904.0,4288.0
5.21,-13824.0,-3904.0,4352.0
5.2125,-13888.0,-3904.0,4352.0
5.215,-13888.0,-3840.0,4352.0
5.2175,-13824.0,-3840.0,4288.0
5.22,-13760.0,-3840.0,4224.0
5.2225,-13824.0,-3840.0,4224.0
5.225,-13824.0,-3840.0,4224.0
5.2275,-13824.0,-3840.0,4288.0
5.23,-13888.0,-3776.0,4224.0
5.2325,-13824.0,-3776.0,4224.0
5.235,-13824.0,-3776.0,4160.0
5.2375,-13888.0,-3840.0,4224.0
5.24,-13888.0,-3840.0,4224.0
5.2425,-13888.0,-3840.0,4224.0
5.245,-13952.0,-3840.0,4160.0
5.2475,-14016.0,-3840.0,4160.0
5.25,-14016.0,-3904.0,4160.0
5.2525,-14080.0,-3904.0,4160.0
5.255,-14144.0,-3904.0,4160.0
5.2575,-14144.0,-3840.0,4288.0
5.26,-14208.0,-3904.0,4288.0
5.2625,-14208.0,-3904.0,4352.0
5.265,-14208.0,-3904.0,4352.0
5.2675,-14336.0,-3904.0,4480.0
5.27,-14336.0,-3968.0,4544.0
5.2725,-14336.0,-3904.0,4544.0
5.275,-14400.0,-3968.0,4544.0
5.2775,-14400.0,-4032.0,4480.0
5.28,-14592.0,-3968.0,4480.0
5.2825,-14592.0,-3968.0,4352.0
5.285,-14656.0,-4032.0,4288.0
5.2875,-14656.0,-4096.0,4160.0
5.29,-14720.0,-4032.0,4224.0
5.2925,-14784.0,-4032.0,4160.0
5.295,-14784.0,-4096.0,4160.0
5.2975,-14784.0,-4032.0,4160.0
5.3,-14784.0,-4096.0,4160.0
5.3025,-14720.0,-4032.0,4224.0
5.305,-14848.0,-4096.0,4224.0
5.3075,-14912.0,-4032.0,4224.0
5.31,-14848.0,-4032.0,4288.0
5.3125,-14848.0,-4032.0,4352.0
5.315,-14912.0,-4096.0,4352.0
5.3175,-14912.0,-4032.0,4288.0
5.32,-14848.0,-4096.0,4288.0
5.3225,-14912.0,-4096.0,4288.0
5.325,-14976.0,-4160.0,4224.0
5.3275,-14976.0,-4160.0,4288.0
5.33,-14976.0,-4096.0,4288.0
5.3325,-15040.0,-4096.0,4352.0
5.335,-14976.0,-4032.0,4288.0
5.3375,-15040.0,-4032.0,4224.0
5.34,-15104.0,-3968.0,4224.0
5.3425,-15040.0,-3904.0,4288.0
5.345,-15040.0,-3904.0,4288.0
5.3475,-15040.0,-3904.0,4224.0
5.35,-14976.0,-3776.0,4288.0
5.3525,-14976.0,-3776.0,4352.0
5.355,-14912.0,-3776.0,4416.0
5.3575,-14976.0,-3712.0,4352.0
5.36,-14976.0,-3648.0,4416.0
5.3625,-15040.0,-3584.0,4416.0
5.365,-14976.0,-3584.0,4416.0
5.3675,-14976.0,-3584.0,4480.0
5.37,-14912.0,-3584.0,4480.0
5.3725,-14976.0,-3520.0,4544.0
5.375,-14976.0,-3456.0,4544.0
5.3775,-15040.0,-3456.0,4480.0
5.38,-15040.0,-3456.0,4480.0
5.3825,-15040.0,-3456.0,4480.0
5.385,-15040.0,-3456.0,4480.0
5.3875,-14976.0,-3456.0,4480.0
5.39,-15040.0,-3392.0,4544.0
5.3925,-15104.0,-3392.0,4608.0
5.395,-15040.0,-3392.0,4544.0
5.3975,-15040.0,-3328.0,4608.0
5.4,-15040.0,-3328.0,4608.0
5.4025,-15040.0,-3392.0,4544.0
5.405,-15104.0,-3392.0,4608.0
5.4075,-15168.0,-3328.0,4672.0
5.41,-15168.0,-3392.0,4608.0
5.4125,-15168.0,-3392.0,4608.0
5.415,-15232.0,-3392.0,4544.0
5.4175,-15168.0,-3456.0,4608.0
5.42,-15104.0,-3456.0,4608.0
5.4225,-15104.0,-3456.0,4544.0
5.425,-15104.0,-3456.0,4608.0
5.4275,-15040.0,-3456.0,4672.0
5.43,-15040.0,-3456.0,4672.0
5.4325,-14976.0,-3456.0,4672.0
5.435,-14976.0,-3456.0,4672.0
5.4375,-14976.0,-3456.0,4672.0
5.44,-14976.0,-3520.0,4736.0
5.4425,-14976.0,-3520.0,4800.0
5.445,-14976.0,-3520.0,4736.0
5.4475,-14976.0,-3584.0,4736.0
5.45,-14976.0,-3648.0,4864.0
5.4525,-14976.0,-3648.0,4800.0
5.455,-14976.0,-3648.0,4736.0
5.4575,-15040.0,-3648.0,4800.0
5.46,-15104.0,-3648.0,4800.0
5.4625,-15104.0,-3648.0,4864.0
5.465,-15040.0,-3584.0,4800.0
5.4675,-15104.0,-3584.0,4800.0
5.47,-15104.0,-3584.0,4864.0
5.4725,-15040.0,-3584.0,4864.0
5.475,-15104.0,-3584.0,4864.0
5.4775,-15040.0,-3584.0,4864.0
5.48,-15104.0,-3584.0,4864.0
5.4825,-15168.0,-3648.0,4864.0
5.485,-15168.0,-3648.0,4928.0
5.4875,-15232.0,-3584.0,4928.0
5.49,-15168.0,-3648.0,4864.0
5.4925,-15232.0,-3648.0,4800.0
5.495,-15232.0,-3712.0,4800.0
5.4975,-15232.0,-3712.0,4864.0
5.5,-15232.0,-3712.0,4736.0
5.5025,-15232.0,-3712.0,4864.0
5.505,-15296.0,-3712.0,4800.0
5.5075,-15360.0,-3648.0,4736.0
5.51,-15424.0,-3648.0,4800.0
5.5125,-15424.0,-3648.0,4736.0
5.515,-15424.0,-3712.0,4736.0
5.5175,-15488.0,-3712.0,4800.0
5.52,-15488.0,-3712.0,4800.0
5.5225,-15488.0,-3712.0,4800.0
5.525,-15616.0,-3712.0,4864.0
5.5275,-15680.0,-3712.0,4800.0
5.53,-15680.0,-3776.0,4736.0
5.5325,-15808.0,-3840.0,4736.0
5.535,-15808.0,-3840.0,4736.0
5.5375,-15808.0,-3840.0,4800.0
5.54,-15872.0,-3776.0,4736.0
5.5425,-15808.0,-3776.0,4672.0
5.545,-15872.0,-3712.0,4672.0
5.5475,-15872.0,-3712.0,4544.0
5.55,-15936.0,-3712.0,4608.0
5.5525,-15936.0,-3648.0,4608.0
5.555,-15872.0,-3648.0,4544.0
5.5575,-15936.0,-3712.0,4544.0
5.56,-15872.0,-3712.0,4544.0
5.5625,-15936.0,-3648.0,4544.0
5.565,-15872.0,-3648.0,4544.0
5.5675,-15872.0,-3648.0,4480.0
5.57,-15808.0,-3648.0,4480.0
5.5725,-15744.0,-3648.0,4480.0
5.575,-15616.0,-3648.0,4480.0
5.5775,-15616.0,-3584.0,4480.0
5.58,-15616.0,-3584.0,4480.0
5.5825,-15552.0,-3584.0,4480.0
5.585,-15488.0,-3584.0,4416.0
5.5875,-15488.0,-3584.0,4480.0
5.59,-15360.0,-3584.0,4416.0
5.5925,-15232.0,-3520.0,4352.0
5.595,-15232.0,-3520.0,4352.0
5.5975,-15168.0,-3520.0,4352.0
5.6,-15040.0,-3520.0,4224.0
5.6025,-14976.0,-3456.0,4288.0
5.605,-14912.0,-3392.0,4224.0
5.6075,-14848.0,-3392.0,4160.0
5.61,-14784.0,-3392.0,4160.0
5.6125,-14720.0,-3264.0,4096.0
5.615,-14720.0,-3328.0,4096.0
5.6175,-14592.0,-3328.0,4032.0
5.62,-14592.0,-3328.0,4096.0
5.6225,-14464.0,-3328.0,4032.0
5.625,-14464.0,-3392.0,4032.0
5.6275,-14400.0,-3392.0,3968.0
5.63,-14336.0,-3392.0,4032.0
5.6325,-14272.0,-3328.0,3904.0
5.635,-14272.0,-3264.0,3904.0
5.6375,-14272.0,-3328.0,3776.0
5.64,-14208.0,-3264.0,3776.0
5.6425,-14208.0,-3264.0,3712.0
5.645,-14272.0,-3264.0,3712.0
5.6475,-14272.0,-3264.0,3712.0
5.65,-14336.0,-3328.0,3712.0
5.6525,-14272.0,-3328.0,3648.0
5.655,-14336.0,-3328.0,3648.0
5.6575,-14400.0,-3264.0,3520.0
5.66,-14400.0,-3264.0,3584.0
5.6625,-14464.0,-3200.0,3520.0
5.665,-14592.0,-3200.0,3520.0
5.6675,-14592.0,-3200.0,3456.0
5.67,-14592.0,-3200.0,3456.0
5.6725,-14656.0,-3200.0,3392.0
5.675,-14720.0,-3136.0,3328.0
5.6775,-14784.0,-3136.0,3328.0
5.68,-14912.0,-3200.0,3264.0
5.6825,-14976.0,-3200.0,3200.0
5.685,-15040.0,-3200.0,3328.0
5.6875,-15104.0,-3136.0,3264.0
5.69,-15168.0,-3136.0,3328.0
5.6925,-15168.0,-3136.0,3264.0
5.695,-15232.0,-3200.0,3200.0
5.6975,-15232.0,-3200.0,3200.0
5.7,-15296.0,-3136.0,3136.0
5.7025,-15296.0,-3136.0,3136.0
5.705,-15360.0,-3200.0,3136.0
5.7075,-15424.0,-3136.0,3200.0
5.71,-15424.0,-3264.0,3200.0
5.7125,-15488.0,-3200.0,3136.0
5.715,-15552.0,-3200.0,3136.0
5.7175,-15552.0,-3200.0,3136.0
5.72,-15552.0,-3264.0,3200.0
5.7225,-15552.0,-3328.0,3136.0
5.725,-15616.0,-3264.0,3072.0
5.7275,-15680.0,-3328.0,3072.0
5.73,-15744.0,-3328.0,3072.0
5.7325,-15744.0,-3328.0,3136.0
5.735,-15808.0,-3392.0,3264.0
5.7375,-15936.0,-3392.0,3200.0
5.74,-15936.0,-3392.0,3136.0
5.7425,-15936.0,-3392.0,3136.0
5.745,-16000.0,-3456.0,3200.0
5.7475,-16000.0,-3456.0,3264.0
5.75,-16064.0,-3456.0,3200.0
5.7525,-16064.0,-3584.0,3264.0
5.755,-16128.0,-3584.0,3328.0
5.7575,-16256.0,-3584.0,3328.0
5.76,-16384.0,-3712.0,3328.0
5.7625,-16384.0,-3776.0,3328.0
5.765,-16448.0,-3776.0,3328.0
5.7675,-16448.0,-3776.0,3200.0
5.77,-16512.0,-3840.0,3264.0
5.7725,-16576.0,-3840.0,3200.0
5.775,-16576.0,-3840.0,3264.0
5.7775,-16640.0,-3840.0,3264.0
5.78,-16704.0,-3776.0,3264.0
5.7825,-16704.0,-3840.0,3200.0
5.785,-16704.0,-3840.0,3200.0
5.7875,-16704.0,-3840.0,3136.0
5.79,-16704.0,-3840.0,3072.0
5.7925,-16640.0,-3840.0,3072.0
5.795,-16704.0,-3904.0,3136.0
5.7975,-16704.0,-3840.0,3136.0
5.8,-16704.0,-3840.0,3136.0
5.8025,-16704.0,-3776.0,3200.0
5.805,-16640.0,-3904.0,3264.0
5.8075,-16640.0,-3840.0,3328.0
5.81,-16576.0,-3840.0,3328.0
5.8125,-16576.0,-3776.0,3264.0
5.815,-16512.0,-3840.0,3200.0
5.8175,-16512.0,-3776.0,3200.0
5.82,-16512.0,-3776.0,3264.0
5.8225,-16448.0,-3712.0,3264.0
5.825,-16320.0,-3712.0,3264.0
5.8275,-16256.0,-3648.0,3200.0
5.83,-16128.0,-3648.0,3200.0
5.8325,-16128.0,-3584.0,3264.0
5.835,-16064.0,-3584.0,3200.0
5.8375,-16000.0,-3520.0,3328.0
5.84,-15936.0,-3520.0,3328.0
5.8425,-15872.0,-3456.0,3328.0
5.845,-15744.0,-3456.0,3392.0
5.8475,-15744.0,-3456.0,3456.0
5.85,-15680.0,-3456.0,3392.0
5.8525,-15744.0,-3328.0,3392.0
5.855,-15680.0,-3328.0,3456.0
5.8575,-15616.0,-3200.0,3520.0
5.86,-15552.0,-3200.0,3520.0
5.8625,-15552.0,-3200.0,3520.0
5.865,-15616.0,-3136.0,3392.0
5.8675,-15552.0,-3136.0,3520.0
5.87,-15616.0,-3136.0,3584.0
5.8725,-15616.0,-3200.0,3648.0
5.875,-15616.0,-3200.0,3584.0
5.8775,-15616.0,-3264.0,3584.0
5.88,-15616.0,-3264.0,3648.0
5.8825,-15616.0,-3200.0,3584.0
5.885,-15616.0,-3200.0,3584.0
5.8875,-15552.0,-3200.0,3584.0
5.89,-15552.0,-3264.0,3584.0
5.8925,-15616.0,-3264.0,3584.0
5.895,-15552.0,-3264.0,3584.0
5.8975,-15552.0,-3200.0,3520.0
5.9,-15488.0,-3200.0,3520.0
5.9025,-15424.0,-3200.0,3520.0
5.905,-15360.0,-3136.0,3520.0
5.9075,-15360.0,-3200.0,3584.0
5.91,-15360.0,-3200.0,3584.0
5.9125,-15360.0,-3264.0,3648.0
5.915,-15296.0,-3200.0,3648.0
5.9175,-15232.0,-3264.0,3648.0
5.92,-15232.0,-3328.0,3712.0
5.9225,-15168.0,-3264.0,3584.0
5.925,-15168.0,-3264.0,3584.0
5.9275,-15168.0,-3264.0,3648.0
5.93,-15104.0,-3264.0,3648.0
5.9325,-15104.0,-3328.0,3712.0
5.935,-15040.0,-3328.0,3776.0
5.9375,-14976.0,-3264.0,3712.0
5.94,-14976.0,-3264.0,3712.0
5.9425,-14976.0,-3328.0,3776.0
5.945,-14976.0,-3264.0,3776.0
5.9475,-14976.0,-3264.0,3840.0
5.95,-14976.0,-3264.0,3776.0
5.9525,-14912.0,-3264.0,3776.0
5.955,-14912.0,-3200.0,3840.0
5.9575,-14912.0,-3264.0,3776.0
5.96,-14912.0,-3264.0,3776.0
5.9625,-14912.0,-3264.0,3776.0
5.965,-14976.0,-3264.0,3776.0
5.9675,-14976.0,-3264.0,3840.0
5.97,-15040.0,-3264.0,3840.0
5.9725,-15040.0,-3264.0,3904.0
5.975,-15040.0,-3200.0,3904.0
5.9775,-15104.0,-3264.0,3904.0
5.98,-15168.0,-3264.0,3840.0
5.9825,-15168.0,-3200.0,3840.0
5.985,-15232.0,-3200.0,3840.0
5.9875,-15296.0,-3200.0,3904.0
5.99,-15360.0,-3200.0,3968.0
5.9925,-15424.0,-3200.0,3904.0
5.995,-15424.0,-3200.0,3840.0
5.9975,-15488.0,-3264.0,3840.0
6.0,-15616.0,-3264.0,3776.0
6.0025,-15680.0,-3200.0,3776.0
6.005,-15744.0,-3264.0,3776.0
6.0075,-15808.0,-3264.0,3776.0
6.01,-15808.0,-3264.0,3840.0
6.0125,-15872.0,-3264.0,3776.0
6.015,-15872.0,-3264.0,3776.0
6.0175,-15872.0,-3264.0,3776.0
6.02,-15936.0,-3200.0,3840.0
6.0225,-16000.0,-3264.0,3840.0
6.025,-15936.0,-3328.0,3776.0
6.0275,-16000.0,-3328.0,3712.0
6.03,-15936.0,-3392.0,3648.0
6.0325,-15936.0,-3392.0,3648.0
6.035,-15936.0,-3392.0,3584.0
6.0375,-15872.0,-3392.0,3712.0
6.04,-15808.0,-3392.0,3712.0
6.0425,-15808.0,-3392.0,3712.0
6.045,-15744.0,-3392.0,3776.0
6.0475,-15680.0,-3328.0,3648.0
6.05,-15616.0,-3328.0,3712.0
6.0525,-15488.0,-3328.0,3712.0
6.055,-15488.0,-3392.0,3712.0
6.0575,-15360.0,-3392.0,3712.0
6.06,-15360.0,-3392.0,3648.0
6.0625,-15360.0,-3520.0,3648.0
6.065,-15296.0,-3520.0,3648.0
6.0675,-15232.0,-3520.0,3584.0
6.07,-15168.0,-3520.0,3520.0
6.0725,-15232.0,-3520.0,3520.0
6.075,-15232.0,-3584.0,3456.0
6.0775,-15168.0,-3584.0,3520.0
6.08,-15232.0,-3584.0,3456.0
6.0825,-15232.0,-3584.0,3328.0
6.085,-15232.0,-3584.0,3264.0
6.0875,-15360.0,-3520.0,3392.0
6.09,-15360.0,-3520.0,3392.0
6.0925,-15296.0,-3520.0,3520.0
6.095,-15360.0,-3456.0,3520.0
6.0975,-15296.0,-3392.0,3520.0
6.1,-15360.0,-3392.0,3584.0
6.1025,-15360.0,-3392.0,3584.0
6.105,-15360.0,-3456.0,3584.0
6.1075,-15424.0,-3456.0,3584.0
6.11,-15424.0,-3456.0,3648.0
6.1125,-15360.0,-3392.0,3584.0
6.115,-15360.0,-3328.0,3584.0
6.1175,-15360.0,-3392.0,3520.0
6.12,-15424.0,-3328.0,3520.0
6.1225,-15424.0,-3328.0,3520.0
6.125,-15424.0,-3328.0,3520.0
6.1275,-15424.0,-3264.0,3456.0
6.13,-15360.0,-3328.0,3392.0
6.1325,-15360.0,-3264.0,3392.0
6.135,-15424.0,-3264.0,3392.0
6.1375,-15424.0,-3264.0,3456.0
6.14,-15424.0,-3264.0,3456.0
6.1425,-15296.0,-3264.0,3328.0
6.145,-15360.0,-3264.0,3328.0
6.1475,-15424.0,-3328.0,3328.0
6.15,-15424.0,-3328.0,3328.0
6.1525,-15424.0,-3392.0,3264.0
6.155,-15360.0,-3392.0,3328.0
6.1575,-15424.0,-3392.0,3328.0
6.16,-15360.0,-3328.0,3264.0
6.1625,-15360.0,-3328.0,3200.0
6.165,-15360.0,-3264.0,3136.0
6.1675,-15424.0,-3264.0,3136.0
6.17,-15360.0,-3200.0,3136.0
6.1725,-15296.0,-3200.0,3136.0
6.175,-15232.0,-3200.0,3072.0
6.1775,-15232.0,-3136.0,3008.0
6.18,-15296.0,-3136.0,3008.0
6.1825,-15232.0,-3200.0,3136.0
6.185,-15168.0,-3136.0,3008.0
6.1875,-15168.0,-3136.0,3008.0
6.19,-15104.0,-3136.0,3008.0
6.1925,-15104.0,-3136.0,2944.0
6.195,-15040.0,-3072.0,2944.0
6.1975,-14976.0,-3072.0,2944.0
6.2,-14976.0,-3072.0,2944.0
6.2025,-14848.0,-3136.0,3008.0
6.205,-14784.0,-3136.0,3008.0
6.2075,-14720.0,-3072.0,3072.0
6.21,-14656.0,-3072.0,3008.0
6.2125,-14656.0,-3136.0,3008.0
6.215,-14592.0,-3072.0,3008.0
6.2175,-14528.0,-3072.0,3008.0
6.22,-14464.0,-3072.0,2944.0
6.2225,-14464.0,-3072.0,2944.0
6.225,-14464.0,-3072.0,2880.0
6.2275,-14400.0,-3008.0,2944.0
6.23,-14464.0,-3008.0,2880.0
6.2325,-14464.0,-3008.0,2880.0
6.235,-14528.0,-3008.0,2880.0
6.2375,-14528.0,-3008.0,2944.0
6.24,-14656.0,-3008.0,3072.0
6.2425,-14720.0,-3008.0,3072.0
6.245,-14784.0,-2944.0,3072.0
6.2475,-14848.0,-3008.0,3072.0
6.25,-14912.0,-2944.0,3072.0
6.2525,-14912.0,-2944.0,3136.0
6.255,-14912.0,-2880.0,3072.0
6.2575,-15040.0,-2816.0,3136.0
6.26,-14976.0,-2752.0,3072.0
6.2625,-14976.0,-2816.0,3072.0
6.265,-14912.0,-2880.0,3072.0
6.2675,-14976.0,-2816.0,3072.0
6.27,-14912.0,-2816.0,2944.0
6.2725,-14848.0,-2816.0,3008.0
6.275,-14912.0,-2880.0,2944.0
6.2775,-14784.0,-2880.0,2944.0
6.28,-14784.0,-2944.0,3072.0
6.2825,-14784.0,-2944.0,3008.0
6.285,-14784.0,-2944.0,3072.0
6.2875,-14784.0,-3008.0,3008.0
6.29,-14848.0,-3136.0,3008.0
6.2925,-14784.0,-3200.0,3008.0
6.295,-14848.0,-3200.0,3008.0
6.2975,-14848.0,-3200.0,3008.0
6.3,-14848.0,-3200.0,2944.0
6.3025,-14912.0,-3200.0,2880.0
6.305,-14976.0,-3264.0,2944.0
6.3075,-14976.0,-3264.0,2880.0
6.31,-15040.0,-3264.0,2944.0
6.3125,-15040.0,-3328.0,3008.0
6.315,-15168.0,-3264.0,3008.0
6.3175,-15168.0,-3328.0,2944.0
6.32,-15168.0,-3328.0,3008.0
6.3225,-15168.0,-3328.0,2944.0
6.325,-15168.0,-3392.0,2880.0
6.3275,-15168.0,-3392.0,2944.0
6.33,-15104.0,-3392.0,2944.0
6.3325,-15104.0,-3392.0,3008.0
6.335,-15168.0,-3392.0,2880.0
6.3375,-15296.0,-3456.0,2944.0
6.34,-15232.0,-3392.0,3072.0
6.3425,-15296.0,-3392.0,3008.0
6.345,-15360.0,-3392.0,2944.0
6.3475,-15360.0,-3392.0,3008.0
6.35,-15296.0,-3392.0,2944.0
6.3525,-15360.0,-3392.0,2944.0
6.355,-15360.0,-3392.0,2944.0
6.3575,-15360.0,-3328.0,2944.0
6.36,-15488.0,-3392.0,2880.0
6.3625,-15424.0,-3392.0,2816.0
6.365,-15488.0,-3392.0,2944.0
6.3675,-15488.0,-3328.0,2944.0
6.37,-15552.0,-3328.0,3008.0
6.3725,-15616.0,-3264.0,3008.0
6.375,-15616.0,-3264.0,3008.0
6.3775,-15616.0,-3200.0,3072.0
6.38,-15552.0,-3200.0,3136.0
6.3825,-15552.0,-3200.0,3200.0
6.385,-15552.0,-3136.0,3200.0
6.3875,-15616.0,-3200.0,3200.0
6.39,-15616.0,-3200.0,3200.0
6.3925,-15616.0,-3200.0,3200.0
6.395,-15616.0,-3200.0,3200.0
6.3975,-15616.0,-3264.0,3264.0
6.4,-15616.0,-3264.0,3264.0
6.4025,-15680.0,-3328.0,3264.0
6.405,-15744.0,-3328.0,3328.0
6.4075,-15680.0,-3264.0,3328.0
6.41,-15744.0,-3264.0,3328.0
6.4125,-15808.0,-3264.0,3264.0
6.415,-15872.0,-3264.0,3264.0
6.4175,-15872.0,-3264.0,3328.0
6.42,-15936.0,-3264.0,3264.0
6.4225,-15936.0,-3264.0,3264.0
6.425,-16000.0,-3328.0,3200.0
6.4275,-16000.0,-3328.0,3200.0
6.43,-16000.0,-3328.0,3200.0
6.4325,-16000.0,-3328.0,3072.0
6.435,-16000.0,-3328.0,3072.0
6.4375,-16000.0,-3328.0,3072.0
6.44,-16000.0,-3328.0,3136.0
6.4425,-15936.0,-3328.0,3200.0
6.445,-15872.0,-3264.0,3136.0
6.4475,-15872.0,-3200.0,3136.0
6.45,-15808.0,-3200.0,3136.0
6.4525,-15808.0,-3200.0,3136.0
6.455,-15808.0,-3072.0,3200.0
6.4575,-15808.0,-3072.0,3200.0
6.46,-15744.0,-3200.0,3328.0
6.4625,-15616.0,-3136.0,3328.0
6.465,-15616.0,-3136.0,3264.0
6.4675,-15616.0,-3136.0,3264.0
6.47,-15552.0,-3072.0,3328.0
6.4725,-15616.0,-3136.0,3392.0
6.475,-15616.0,-3072.0,3392.0
6.4775,-15616.0,-3072.0,3456.0
6.48,-15680.0,-3072.0,3456.0
6.4825,-15680.0,-3008.0,3456.0
6.485,-15744.0,-3008.0,3456.0
6.4875,-15808.0,-3008.0,3456.0
6.49,-15936.0,-3008.0,3520.0
6.4925,-16000.0,-3008.0,3456.0
6.495,-16064.0,-2944.0,3456.0
6.4975,-16128.0,-2944.0,3520.0
6.5,-16064.0,-3008.0,3520.0
6.5025,-16192.0,-2944.0,3520.0
6.505,-16192.0,-3008.0,3392.0
6.5075,-16256.0,-3008.0,3456.0
6.51,-16320.0,-3008.0,3456.0
6.5125,-16384.0,-3072.0,3520.0
6.515,-16512.0,-3072.0,3456.0
6.5175,-16512.0,-3072.0,3392.0
6.52,-16512.0,-3072.0,3392.0
6.5225,-16576.0,-3072.0,3392.0
6.525,-16640.0,-3072.0,3328.0
6.5275,-16704.0,-3072.0,3392.0
6.53,-16768.0,-3072.0,3392.0
6.5325,-16832.0,-3072.0,3328.0
6.535,-16832.0,-3008.0,3392.0
6.5375,-16832.0,-3072.0,3392.0
6.54,-16832.0,-3008.0,3392.0
6.5425,-16768.0,-3008.0,3392.0
6.545,-16704.0,-3008.0,3392.0
6.5475,-16704.0,-3008.0,3392.0
6.55,-16704.0,-2944.0,3392.0
6.5525,-16640.0,-2944.0,3456.0
6.555,-16576.0,-2880.0,3456.0
6.5575,-16512.0,-2880.0,3520.0
6.56,-16384.0,-2880.0,3456.0
6.5625,-16320.0,-2880.0,3456.0
6.565,-16320.0,-2880.0,3392.0
6.5675,-16256.0,-2944.0,3328.0
6.57,-16256.0,-2944.0,3392.0
6.5725,-16256.0,-2944.0,3392.0
6.575,-16192.0,-2880.0,3328.0
6.5775,-16192.0,-2880.0,3392.0
6.58,-16256.0,-2880.0,3328.0
6.5825,-16320.0,-2944.0,3328.0
6.585,-16320.0,-2944.0,3456.0
6.5875,-16320.0,-2944.0,3392.0
6.59,-16320.0,-2944.0,3392.0
6.5925,-16448.0,-2944.0,3456.0
6.595,-16512.0,-2944.0,3456.0
6.5975,-16576.0,-2944.0,3520.0
6.6,-16576.0,-2944.0,3520.0
6.6025,-16576.0,-3008.0,3520.0
6.605,-16576.0,-2944.0,3456.0
6.6075,-16640.0,-2880.0,3520.0
6.61,-16640.0,-2816.0,3520.0
6.6125,-16640.0,-2880.0,3520.0
6.615,-16640.0,-2880.0,3520.0
6.6175,-16576.0,-2880.0,3520.0
6.62,-16576.0,-2880.0,3520.0
6.6225,-16640.0,-2880.0,3584.0
6.625,-16576.0,-2944.0,3584.0
6.6275,-16576.0,-2944.0,3584.0
6.63,-16512.0,-2880.0,3520.0
6.6325,-16448.0,-2944.0,3456.0
6.635,-16448.0,-2944.0,3456.0
6.6375,-16448.0,-2944.0,3456.0
6.64,-16384.0,-2944.0,3584.0
6.6425,-16384.0,-2944.0,3520.0
6.645,-16256.0,-2880.0,3648.0
6.6475,-16320.0,-2880.0,3648.0
6.65,-16320.0,-2944.0,3584.0
6.6525,-16256.0,-2944.0,3648.0
6.655,-16320.0,-2944.0,3648.0
6.6575,-16320.0,-2944.0,3648.0
6.66,-16384.0,-2944.0,3648.0
6.6625,-16384.0,-2944.0,3648.0
6.665,-16384.0,-2944.0,3584.0
6.6675,-16448.0,-3008.0,3584.0
6.67,-16384.0,-3008.0,3648.0
6.6725,-16384.0,-3008.0,3584.0
6.675,-16448.0,-3008.0,3584.0
6.6775,-16448.0,-3008.0,3520.0
6.68,-16576.0,-3008.0,3520.0
6.6825,-16512.0,-2944.0,3520.0
6.685,-16512.0,-3008.0,3584.0
6.6875,-16448.0,-2944.0,3584.0
6.69,-16448.0,-3008.0,3584.0
6.6925,-16448.0,-3008.0,3648.0
6.695,-16384.0,-3008.0,3584.0
6.6975,-16448.0,-3072.0,3584.0
6.7,-16384.0,-3072.0,3584.0
6.7025,-16384.0,-3072.0,3584.0
6.705,-16384.0,-3072.0,3520.0
6.7075,-16320.0,-3200.0,3456.0
6.71,-16320.0,-3136.0,3456.0
6.7125,-16320.0,-3200.0,3456.0
6.715,-16320.0,-3200.0,3456.0
6.7175,-16320.0,-3264.0,3392.0
6.72,-16320.0,-3136.0,3456.0
6.7225,-16320.0,-3200.0,3328.0
6.725,-16320.0,-3072.0,3328.0
6.7275,-16448.0,-3136.0,3520.0
6.73,-16448.0,-3136.0,3520.0
6.7325,-16448.0,-3136.0,3520.0
6.735,-16384.0,-3136.0,3520.0
6.7375,-16448.0,-3136.0,3456.0
6.74,-16512.0,-3136.0,3456.0
6.7425,-16512.0,-3136.0,3520.0
6.745,-16512.0,-3136.0,3520.0
6.7475,-16576.0,-3072.0,3584.0
6.75,-16576.0,-3136.0,3520.0
6.7525,-16576.0,-3072.0,3520.0
6.755,-16576.0,-3072.0,3584.0
6.7575,-16576.0,-3072.0,3520.0
6.76,-16640.0,-3136.0,3584.0
6.7625,-16704.0,-3072.0,3648.0
6.765,-16768.0,-3072.0,3584.0
6.7675,-16832.0,-3136.0,3584.0
6.77,-16832.0,-3072.0,3520.0
6.7725,-16960.0,-3136.0,3584.0
6.775,-16960.0,-3136.0,3520.0
6.7775,-16960.0,-3136.0,3584.0
6.78,-17088.0,-3200.0,3520.0
6.7825,-17152.0,-3200.0,3584.0
6.785,-17216.0,-3264.0,3584.0
6.7875,-17216.0,-3200.0,3648.0
6.79,-17216.0,-3264.0,3584.0
6.7925,-17280.0,-3264.0,3648.0
6.795,-17280.0,-3264.0,3648.0
6.7975,-17280.0,-3264.0,3712.0
6.8,-17280.0,-3392.0,3648.0
6.8025,-17216.0,-3328.0,3648.0
6.805,-17280.0,-3328.0,3584.0
6.8075,-17216.0,-3328.0,3584.0
6.81,-17152.0,-3392.0,3584.0
6.8125,-17088.0,-3392.0,3712.0
6.815,-17088.0,-3328.0,3712.0
6.8175,-17088.0,-3328.0,3712.0
6.82,-17088.0,-3392.0,3776.0
6.8225,-17024.0,-3456.0,3712.0
6.825,-17024.0,-3456.0,3776.0
6.8275,-17024.0,-3520.0,3648.0
6.83,-17088.0,-3584.0,3712.0
6.8325,-16960.0,-3520.0,3776.0
6.835,-16960.0,-3520.0,3712.0
6.8375,-16960.0,-3456.0,3648.0
6.84,-17024.0,-3456.0,3712.0
6.8425,-17024.0,-3392.0,3712.0
6.845,-17088.0,-3392.0,3648.0
6.8475,-17088.0,-3392.0,3648.0
6.85,-17088.0,-3392.0,3712.0
6.8525,-17088.0,-3328.0,3712.0
6.855,-17152.0,-3392.0,3712.0
6.8575,-17216.0,-3392.0,3776.0
6.86,-17280.0,-3456.0,3776.0
6.8625,-17280.0,-3392.0,3712.0
6.865,-17216.0,-3456.0,3712.0
6.8675,-17216.0,-3456.0,3712.0
6.87,-17216.0,-3392.0,3712.0
6.8725,-17152.0,-3392.0,3776.0
6.875,-17216.0,-3328.0,3776.0
6.8775,-17152.0,-3264.0,3840.0
6.88,-17088.0,-3264.0,3968.0
6.8825,-17152.0,-3328.0,3968.0
6.885,-17088.0,-3264.0,3968.0
6.8875,-17088.0,-3264.0,3968.0
6.89,-17024.0,-3200.0,4032.0
6.8925,-17024.0,-3264.0,4032.0
6.895,-16960.0,-3136.0,3968.0
6.8975,-16896.0,-3136.0,4032.0
6.9,-16832.0,-3072.0,4032.0
6.9025,-16768.0,-3072.0,3904.0
6.905,-16768.0,-3136.0,4032.0
6.9075,-16704.0,-3200.0,4032.0
6.91,-16704.0,-3136.0,4032.0
6.9125,-16640.0,-3136.0,4096.0
6.915,-16640.0,-3200.0,4096.0
6.9175,-16640.0,-3264.0,4096.0
6.92,-16576.0,-3328.0,4096.0
6.9225,-16448.0,-3264.0,4096.0
6.925,-16384.0,-3328.0,4096.0
6.9275,-16256.0,-3328.0,4032.0
6.93,-16192.0,-3264.0,4032.0
6.9325,-16064.0,-3392.0,4096.0
6.935,-16000.0,-3392.0,4096.0
6.9375,-15872.0,-3392.0,4160.0
6.94,-15872.0,-3456.0,4160.0
6.9425,-15808.0,-3520.0,4288.0
6.945,-15680.0,-3584.0,4288.0
6.9475,-15680.0,-3648.0,4352.0
6.95,-15616.0,-3712.0,4416.0
6.9525,-15552.0,-3776.0,4480.0
6.955,-15552.0,-3776.0,4544.0
6.9575,-15488.0,-3840.0,4480.0
6.96,-15552.0,-3968.0,4608.0
6.9625,-15552.0,-3968.0,4608.0
6.965,-15552.0,-3968.0,4608.0
6.9675,-15552.0,-3968.0,4544.0
6.97,-15552.0,-3968.0,4672.0
6.9725,-15488.0,-4032.0,4608.0
6.975,-15552.0,-4096.0,4736.0
6.9775,-15424.0,-4032.0,4736.0
6.98,-15296.0,-4096.0,4800.0
6.9825,-15296.0,-4160.0,4928.0
6.985,-15232.0,-4160.0,4992.0
6.9875,-15168.0,-4160.0,5056.0
6.99,-15104.0,-4224.0,5120.0
6.9925,-15040.0,-4352.0,5184.0
6.995,-14976.0,-4416.0,5184.0
6.9975,-14912.0,-4416.0,5312.0
7.0,-14848.0,-4544.0,5312.0
7.0025,-14848.0,-4544.0,5312.0
7.005,-14784.0,-4736.0,5312.0
7.0075,-14848.0,-4800.0,5184.0
7.01,-14912.0,-4992.0,5184.0
7.0125,-14912.0,-4992.0,5184.0
7.015,-14976.0,-5120.0,5184.0
7.0175,-15104.0,-5184.0,5120.0
7.02,-15232.0,-5184.0,5056.0
7.0225,-15232.0,-5184.0,5056.0
7.025,-15296.0,-5184.0,5248.0
7.0275,-15424.0,-5184.0,5248.0
7.03,-15552.0,-5184.0,5312.0
7.0325,-15680.0,-5248.0,5312.0
7.035,-15680.0,-5248.0,5312.0
7.0375,-15680.0,-5312.0,5376.0
7.04,-15808.0,-5376.0,5440.0
7.0425,-15872.0,-5440.0,5376.0
7.045,-15936.0,-5504.0,5504.0
7.0475,-16064.0,-5568.0,5568.0
7.05,-16064.0,-5568.0,5504.0
7.0525,-16128.0,-5632.0,5568.0
7.055,-16192.0,-5696.0,5504.0
7.0575,-16256.0,-5696.0,5568.0
7.06,-16320.0,-5696.0,5632.0
7.0625,-16384.0,-5696.0,5632.0
7.065,-16384.0,-5696.0,5632.0
7.0675,-16448.0,-5760.0,5568.0
7.07,-16512.0,-5696.0,5632.0
7.0725,-16448.0,-5824.0,5568.0
7.075,-16512.0,-5824.0,5568.0
7.0775,-16640.0,-5888.0,5504.0
7.08,-16704.0,-5888.0,5568.0
7.0825,-16576.0,-5952.0,5568.0
7.085,-16640.0,-6016.0,5440.0
7.0875,-16576.0,-6080.0,5504.0
7.09,-16512.0,-6080.0,5568.0
7.0925,-16512.0,-6144.0,5568.0
7.095,-16512.0,-6080.0,5568.0
7.0975,-16448.0,-6080.0,5632.0
7.1,-16320.0,-6144.0,5632.0
7.1025,-16256.0,-6144.0,5632.0
7.105,-16192.0,-6080.0,5632.0
7.1075,-16128.0,-6080.0,5696.0
7.11,-16000.0,-6080.0,5760.0
7.1125,-15936.0,-6080.0,5824.0
7.115,-15808.0,-6080.0,5824.0
7.1175,-15744.0,-6080.0,5888.0
7.12,-15616.0,-6080.0,5888.0
7.1225,-15616.0,-6080.0,5888.0
7.125,-15488.0,-6080.0,5888.0
7.1275,-15552.0,-6080.0,5888.0
7.13,-15552.0,-6080.0,5824.0
7.1325,-15424.0,-6016.0,5824.0
7.135,-15360.0,-6080.0,5760.0
7.1375,-15424.0,-6080.0,5824.0
7.14,-15424.0,-6016.0,5760.0
7.1425,-15424.0,-6016.0,5760.0
7.145,-15424.0,-6016.0,5824.0
7.1475,-15488.0,-6080.0,5760.0
7.15,-15424.0,-6016.0,5824.0
7.1525,-15424.0,-6080.0,5824.0
7.155,-15424.0,-6144.0,5824.0
7.1575,-15424.0,-6080.0,5760.0
7.16,-15424.0,-6144.0,5760.0
7.1625,-15424.0,-6144.0,5824.0
7.165,-15488.0,-6208.0,5824.0
7.1675,-15488.0,-6272.0,5824.0
7.17,-15552.0,-6336.0,5696.0
7.1725,-15552.0,-6272.0,5632.0
7.175,-15616.0,-6272.0,5632.0
7.1775,-15616.0,-6272.0,5568.0
7.18,-15616.0,-6272.0,5632.0
7.1825,-15616.0,-6336.0,5632.0
7.185,-15616.0,-6336.0,5632.0
7.1875,-15680.0,-6400.0,5568.0
7.19,-15680.0,-6400.0,5632.0
7.1925,-15744.0,-6400.0,5696.0
7.195,-15744.0,-6464.0,5696.0
7.1975,-15744.0,-6464.0,5632.0
7.2,-15744.0,-6592.0,5696.0
7.2025,-15808.0,-6656.0,5696.0
7.205,-15744.0,-6656.0,5632.0
7.2075,-15808.0,-6656.0,5760.0
7.21,-15744.0,-6656.0,5760.0
7.2125,-15744.0,-6656.0,5760.0
7.215,-15680.0,-6656.0,5824.0
7.2175,-15616.0,-6656.0,5760.0
7.22,-15552.0,-6656.0,5760.0
7.2225,-15552.0,-6656.0,5696.0
7.225,-15424.0,-6656.0,5824.0
7.2275,-15424.0,-6656.0,5824.0
7.23,-15360.0,-6592.0,5824.0
7.2325,-15232.0,-6656.0,5824.0
7.235,-15104.0,-6656.0,5824.0
7.2375,-15040.0,-6656.0,5824.0
7.24,-14976.0,-6720.0,5888.0
7.2425,-14848.0,-6720.0,5952.0
7.245,-14720.0,-6720.0,5888.0
7.2475,-14656.0,-6784.0,5952.0
7.25,-14528.0,-6784.0,5952.0
7.2525,-14400.0,-6784.0,6016.0
7.255,-14272.0,-6784.0,6016.0
7.2575,-14080.0,-6784.0,6016.0
7.26,-14016.0,-6784.0,6016.0
7.2625,-13888.0,-6784.0,6016.0
7.265,-13824.0,-6784.0,6016.0
7.2675,-13696.0,-6848.0,6016.0
7.27,-13568.0,-6848.0,6080.0
7.2725,-13504.0,-6912.0,6080.0
7.275,-13504.0,-6912.0,6080.0
7.2775,-13504.0,-6912.0,6080.0
7.28,-13504.0,-6976.0,6144.0
7.2825,-13440.0,-7040.0,6208.0
7.285,-13440.0,-7104.0,6272.0
7.2875,-13440.0,-7168.0,6208.0
7.29,-13376.0,-7232.0,6208.0
7.2925,-13312.0,-7232.0,6272.0
7.295,-13312.0,-7296.0,6336.0
7.2975,-13376.0,-7296.0,6336.0
7.3,-13312.0,-7424.0,6400.0
7.3025,-13248.0,-7360.0,6336.0
7.305,-13248.0,-7424.0,6336.0
7.3075,-13248.0,-7488.0,6336.0
7.31,-13248.0,-7488.0,6336.0
7.3125,-13184.0,-7424.0,6400.0
7.315,-13120.0,-7488.0,6400.0
7.3175,-13120.0,-7552.0,6400.0
7.32,-13056.0,-7552.0,6400.0
7.3225,-13056.0,-7616.0,6336.0
7.325,-13120.0,-7616.0,6336.0
7.3275,-13056.0,-7680.0,6400.0
7.33,-13056.0,-7680.0,6336.0
7.3325,-12992.0,-7744.0,6272.0
7.335,-12928.0,-7744.0,6144.0
7.3375,-12928.0,-7744.0,6208.0
7.34,-12864.0,-7872.0,6208.0
7.3425,-12864.0,-7808.0,6208.0
7.345,-12800.0,-7808.0,6208.0
7.3475,-12672.0,-7872.0,6272.0
7.35,-12608.0,-7936.0,6208.0
7.3525,-12544.0,-8000.0,6144.0
7.355,-12416.0,-7936.0,6208.0
7.3575,-12288.0,-8000.0,6272.0
7.36,-12224.0,-8064.0,6272.0
7.3625,-12096.0,-8192.0,6272.0
7.365,-12032.0,-8192.0,6272.0
7.3675,-11904.0,-8256.0,6208.0
7.37,-11840.0,-8320.0,6272.0
7.3725,-11840.0,-8256.0,6208.0
7.375,-11712.0,-8256.0,6208.0
7.3775,-11584.0,-8192.0,6208.0
7.38,-11520.0,-8192.0,6208.0
7.3825,-11456.0,-8192.0,6336.0
7.385,-11456.0,-8128.0,6336.0
7.3875,-11392.0,-8192.0,6272.0
7.39,-11328.0,-8256.0,6272.0
7.3925,-11392.0,-8256.0,6272.0
7.395,-11264.0,-8320.0,6208.0
7.3975,-11264.0,-8256.0,6272.0
7.4,-11200.0,-8192.0,6272.0
7.4025,-11136.0,-8128.0,6208.0
7.405,-11008.0,-8128.0,6208.0
7.4075,-11008.0,-8128.0,6272.0
7.41,-11008.0,-8192.0,6208.0
7.4125,-11008.0,-8256.0,6144.0
7.415,-10944.0,-8256.0,6144.0
7.4175,-10944.0,-8256.0,6080.0
7.42,-10880.0,-8256.0,6080.0
7.4225,-10816.0,-8256.0,6080.0
7.425,-10816.0,-8320.0,6080.0
7.4275,-10752.0,-8320.0,6016.0
7.43,-10816.0,-8320.0,6080.0
7.4325,-10752.0,-8384.0,6016.0
7.435,-10752.0,-8384.0,5952.0
7.4375,-10816.0,-8320.0,5952.0
7.44,-10752.0,-8384.0,5888.0
7.4425,-10688.0,-8448.0,5952.0
7.445,-10816.0,-8448.0,5824.0
7.4475,-10880.0,-8448.0,5952.0
7.45,-10880.0,-8448.0,5888.0
7.4525,-10880.0,-8384.0,6016.0
7.455,-10944.0,-8384.0,6016.0
7.4575,-10944.0,-8320.0,5952.0
7.46,-11008.0,-8320.0,6016.0
7.4625,-11072.0,-8384.0,5952.0
7.465,-11072.0,-8384.0,5888.0
7.4675,-11072.0,-8320.0,5888.0
7.47,-11136.0,-8256.0,5952.0
7.4725,-11264.0,-8256.0,5888.0
7.475,-11264.0,-8256.0,5824.0
7.4775,-11328.0,-8192.0,5952.0
7.48,-11328.0,-8320.0,5952.0
7.4825,-11456.0,-8320.0,5824.0
7.485,-11520.0,-8384.0,5824.0
7.4875,-11648.0,-8256.0,5760.0
7.49,-11648.0,-8192.0,5760.0
7.4925,-11648.0,-8256.0,5760.0
7.495,-11776.0,-8256.0,5824.0
7.4975,-11840.0,-8256.0,5824.0
7.5,-11904.0,-8256.0,5824.0
7.5025,-11968.0,-8192.0,5824.0
7.505,-12032.0,-8192.0,5824.0
7.5075,-12160.0,-8192.0,5760.0
7.51,-12224.0,-8320.0,5760.0
7.5125,-12352.0,-8320.0,5824.0
7.515,-12416.0,-8320.0,5824.0
7.5175,-12480.0,-8320.0,5824.0
7.52,-12672.0,-8448.0,5888.0
7.5225,-12800.0,-8512.0,5888.0
7.525,-12800.0,-8576.0,5888.0
7.5275,-12864.0,-8512.0,5888.0
7.53,-12992.0,-8640.0,5824.0
7.5325,-13056.0,-8640.0,5824.0
7.535,-13120.0,-8704.0,5760.0
7.5375,-13184.0,-8704.0,5824.0
7.54,-13248.0,-8704.0,5824.0
7.5425,-13312.0,-8704.0,5760.0
7.545,-13376.0,-8768.0,5824.0
7.5475,-13440.0,-8704.0,5824.0
7.55,-13440.0,-8768.0,5888.0
7.5525,-13504.0,-8704.0,5760.0
7.555,-13504.0,-8832.0,5760.0
7.5575,-13568.0,-8832.0,5760.0
7.56,-13568.0,-8896.0,5760.0
7.5625,-13632.0,-8896.0,5760.0
7.565,-13632.0,-8960.0,5760.0
7.5675,-13696.0,-9024.0,5760.0
7.57,-13696.0,-9024.0,5696.0
7.5725,-13632.0,-9024.0,5696.0
7.575,-13696.0,-9024.0,5760.0
7.5775,-13632.0,-8960.0,5760.0
7.58,-13504.0,-9024.0,5888.0
7.5825,-13504.0,-9024.0,5888.0
7.585,-13440.0,-9024.0,5888.0
7.5875,-13312.0,-9024.0,5952.0
7.59,-13248.0,-9024.0,6016.0
7.5925,-13184.0,-9024.0,6016.0
7.595,-13184.0,-9024.0,6080.0
7.5975,-13120.0,-8960.0,6080.0
7.6,-12992.0,-9024.0,6208.0
7.6025,-12928.0,-8960.0,6144.0
7.605,-12864.0,-8960.0,6144.0
7.6075,-12736.0,-8896.0,6144.0
7.61,-12672.0,-8896.0,6208.0
7.6125,-12608.0,-8896.0,6208.0
7.615,-12544.0,-8768.0,6208.0
7.6175,-12480.0,-8704.0,6208.0
7.62,-12352.0,-8704.0,6208.0
7.6225,-12352.0,-8704.0,6208.0
7.625,-12288.0,-8640.0,6208.0
7.6275,-12224.0,-8704.0,6272.0
7.63,-12096.0,-8640.0,6336.0
7.6325,-11968.0,-8640.0,6400.0
7.635,-11904.0,-8640.0,6400.0
7.6375,-11904.0,-8704.0,6464.0
7.64,-11904.0,-8704.0,6400.0
7.6425,-11904.0,-8640.0,6400.0
7.645,-11840.0,-8640.0,6400.0
7.6475,-11776.0,-8704.0,6336.0
7.65,-11712.0,-8640.0,6272.0
7.6525,-11648.0,-8576.0,6336.0
7.655,-11584.0,-8576.0,6336.0
7.6575,-11584.0,-8576.0,6400.0
7.66,-11520.0,-8576.0,6464.0
7.6625,-11520.0,-8448.0,6400.0
7.665,-11520.0,-8512.0,6464.0
7.6675,-11456.0,-8448.0,6464.0
7.67,-11456.0,-8448.0,6528.0
7.6725,-11520.0,-8512.0,6592.0
7.675,-11520.0,-8512.0,6592.0
7.6775,-11584.0,-8512.0,6592.0
7.68,-11648.0,-8512.0,6528.0
7.6825,-11712.0,-8512.0,6528.0
7.685,-11776.0,-8576.0,6464.0
7.6875,-11776.0,-8576.0,6464.0
7.69,-11840.0,-8512.0,6336.0
7.6925,-11840.0,-8512.0,6336.0
7.695,-11840.0,-8576.0,6272.0
7.6975,-11904.0,-8576.0,6208.0
7.7,-11840.0,-8576.0,6208.0
7.7025,-11840.0,-8576.0,6144.0
7.705,-11904.0,-8512.0,6144.0
7.7075,-11904.0,-8512.0,6080.0
7.71,-11904.0,-8512.0,6144.0
7.7125,-11968.0,-8448.0,6208.0
7.715,-12032.0,-8448.0,6208.0
7.7175,-12032.0,-8448.0,6272.0
7.72,-11968.0,-8512.0,6272.0
7.7225,-11968.0,-8512.0,6336.0
7.725,-11968.0,-8576.0,6272.0
7.7275,-11968.0,-8512.0,6336.0
7.73,-11968.0,-8512.0,6336.0
7.7325,-12032.0,-8512.0,6336.0
7.735,-12032.0,-8448.0,6336.0
7.7375,-11968.0,-8512.0,6272.0
7.74,-11904.0,-8512.0,6272.0
7.7425,-11904.0,-8512.0,6336.0
7.745,-11840.0,-8448.0,6336.0
7.7475,-11840.0,-8448.0,6400.0
7.75,-11776.0,-8448.0,6464.0
7.7525,-11840.0,-8448.0,6400.0
7.755,-11776.0,-8384.0,6528.0
7.7575,-11776.0,-8448.0,6400.0
7.76,-11904.0,-8448.0,6400.0
7.7625,-11840.0,-8512.0,6400.0
7.765,-11904.0,-8512.0,6400.0
7.7675,-11968.0,-8512.0,6400.0
7.77,-11904.0,-8512.0,6336.0
7.7725,-11840.0,-8576.0,6400.0
7.775,-11968.0,-8576.0,6336.0
7.7775,-11968.0,-8576.0,6272.0
7.78,-12032.0,-8576.0,6336.0
7.7825,-12096.0,-8576.0,6336.0
7.785,-12096.0,-8576.0,6208.0
7.7875,-12160.0,-8640.0,6272.0
7.79,-12224.0,-8640.0,6336.0
7.7925,-12352.0,-8640.0,6272.0
7.795,-12416.0,-8640.0,6208.0
7.7975,-12416.0,-8640.0,6144.0
7.8,-12480.0,-8640.0,6208.0
7.8025,-12608.0,-8704.0,6208.0
7.805,-12608.0,-8640.0,6208.0
7.8075,-12608.0,-8640.0,6144.0
7.81,-12608.0,-8640.0,6144.0
7.8125,-12672.0,-8704.0,6208.0
7.815,-12672.0,-8704.0,6080.0
7.8175,-12672.0,-8640.0,6144.0
7.82,-12672.0,-8704.0,6208.0
7.8225,-12608.0,-8704.0,6144.0
7.825,-12608.0,-8704.0,6080.0
7.8275,-12352.0,-8704.0,6208.0
7.83,-12480.0,-8704.0,6144.0
7.8325,-12416.0,-8704.0,6144.0
7.835,-12352.0,-8576.0,6272.0
7.8375,-12352.0,-8640.0,6272.0
7.84,-12288.0,-8576.0,6272.0
7.8425,-12288.0,-8576.0,6336.0
7.845,-12224.0,-8576.0,6336.0
7.8475,-12224.0,-8576.0,6336.0
7.85,-12224.0,-8576.0,6336.0
7.8525,-12288.0,-8512.0,6400.0
7.855,-12416.0,-8512.0,6528.0
7.8575,-12416.0,-8512.0,6528.0
7.86,-12480.0,-8448.0,6592.0
7.8625,-12544.0,-8512.0,6464.0
7.865,-12608.0,-8512.0,6464.0
7.8675,-12608.0,-8512.0,6336.0
7.87,-12672.0,-8448.0,6272.0
7.8725,-12800.0,-8512.0,6272.0
7.875,-12928.0,-8512.0,6272.0
7.8775,-12992.0,-8448.0,6272.0
7.88,-13056.0,-8512.0,6272.0
7.8825,-13056.0,-8512.0,6208.0
7.885,-13056.0,-8576.0,6208.0
7.8875,-13120.0,-8512.0,6272.0
7.89,-13120.0,-8512.0,6272.0
7.8925,-13120.0,-8448.0,6272.0
7.895,-13120.0,-8448.0,6336.0
7.8975,-13120.0,-8512.0,6336.0
7.9,-13120.0,-8512.0,6272.0
7.9025,-13120.0,-8448.0,6144.0
7.905,-13184.0,-8512.0,6208.0
7.9075,-13184.0,-8512.0,6272.0
7.91,-13184.0,-8576.0,6272.0
7.9125,-13184.0,-8512.0,6272.0
7.915,-13120.0,-8512.0,6272.0
7.9175,-13056.0,-8512.0,6336.0
7.92,-12992.0,-8512.0,6272.0
7.9225,-12928.0,-8512.0,6336.0
7.925,-12864.0,-8512.0,6400.0
7.9275,-12864.0,-8448.0,6272.0
7.93,-12800.0,-8384.0,6272.0
7.9325,-12736.0,-8384.0,6336.0
7.935,-12672.0,-8384.0,6336.0
7.9375,-12608.0,-8320.0,6272.0
7.94,-12544.0,-8320.0,6336.0
7.9425,-12480.0,-8384.0,6336.0
7.945,-12480.0,-8448.0,6336.0
7.9475,-12416.0,-8320.0,6336.0
7.95,-12416.0,-8384.0,6336.0
7.9525,-12416.0,-8320.0,6336.0
7.955,-12480.0,-8320.0,6336.0
7.9575,-12416.0,-8320.0,6336.0
7.96,-12416.0,-8320.0,6336.0
7.9625,-12480.0,-8320.0,6336.0
7.965,-12480.0,-8256.0,6400.0
7.9675,-12544.0,-8256.0,6400.0
7.97,-12544.0,-8256.0,6464.0
7.9725,-12544.0,-8256.0,6400.0
7.975,-12544.0,-8192.0,6336.0
7.9775,-12544.0,-8128.0,6400.0
7.98,-12608.0,-8192.0,6400.0
7.9825,-12672.0,-8128.0,6464.0
7.985,-12672.0,-8128.0,6400.0
7.9875,-12736.0,-8128.0,6336.0
7.99,-12672.0,-8128.0,6336.0
7.9925,-12736.0,-8128.0,6336.0
7.995,-12800.0,-8128.0,6272.0
7.9975,-12864.0,-8192.0,6272.0
8.0,-12800.0,-8192.0,6336.0
8.0025,-12992.0,-8256.0,6272.0
8.005,-13056.0,-8256.0,6272.0
8.0075,-13056.0,-8192.0,6272.0
8.01,-13056.0,-8256.0,6336.0
8.0125,-13120.0,-8256.0,6272.0
8.015,-13120.0,-8320.0,6272.0
8.0175,-13120.0,-8256.0,6272.0
8.02,-13056.0,-8192.0,6272.0
8.0225,-13056.0,-8256.0,6208.0
8.025,-12992.0,-8192.0,6272.0
8.0275,-13056.0,-8192.0,6208.0
8.03,-13056.0,-8192.0,6272.0
8.0325,-13120.0,-8256.0,6272.0
8.035,-13056.0,-8192.0,6336.0
8.0375,-13056.0,-8128.0,6272.0
8.04,-13120.0,-8128.0,6336.0
8.0425,-13056.0,-8128.0,6336.0
8.045,-12992.0,-8128.0,6336.0
8.0475,-12992.0,-8128.0,6400.0
8.05,-12992.0,-8128.0,6336.0
8.0525,-12992.0,-8192.0,6336.0
8.055,-12992.0,-8128.0,6336.0
8.0575,-13056.0,-8128.0,6336.0
8.06,-13056.0,-8128.0,6400.0
8.0625,-13056.0,-8064.0,6464.0
8.065,-12992.0,-8000.0,6400.0
8.0675,-13056.0,-8064.0,6400.0
8.07,-13120.0,-8064.0,6400.0
8.0725,-13056.0,-8064.0,6464.0
8.075,-13120.0,-8128.0,6400.0
8.0775,-13120.0,-8064.0,6464.0
8.08,-13120.0,-8064.0,6400.0
8.0825,-13184.0,-8064.0,6464.0
8.085,-13184.0,-8064.0,6400.0
8.0875,-13120.0,-8000.0,6464.0
8.09,-13120.0,-8000.0,6464.0
8.0925,-13056.0,-8000.0,6464.0
8.095,-13120.0,-8000.0,6528.0
8.0975,-13120.0,-8000.0,6464.0
8.1,-13120.0,-8064.0,6400.0
8.1025,-13056.0,-8128.0,6336.0
8.105,-12992.0,-8128.0,6464.0
8.1075,-12992.0,-8192.0,6464.0
8.11,-12864.0,-8192.0,6528.0
8.1125,-12864.0,-8192.0,6528.0
8.115,-12864.0,-8192.0,6528.0
8.1175,-12800.0,-8192.0,6592.0
8.12,-12800.0,-8192.0,6656.0
8.1225,-12736.0,-8128.0,6720.0
8.125,-12672.0,-8128.0,6720.0
8.1275,-12672.0,-8192.0,6656.0
8.13,-12736.0,-8128.0,6656.0
8.1325,-12672.0,-8128.0,6592.0
8.135,-12672.0,-8128.0,6656.0
8.1375,-12672.0,-8192.0,6592.0
8.14,-12672.0,-8192.0,6528.0
8.1425,-12672.0,-8256.0,6528.0
8.145,-12672.0,-8256.0,6464.0
8.1475,-12608.0,-8256.0,6528.0
8.15,-12608.0,-8320.0,6528.0
8.1525,-12608.0,-8320.0,6528.0
8.155,-12608.0,-8320.0,6528.0
8.1575,-12608.0,-8256.0,6592.0
8.16,-12544.0,-8256.0,6656.0
8.1625,-12544.0,-8192.0,6592.0
8.165,-12544.0,-8256.0,6592.0
8.1675,-12544.0,-8256.0,6592.0
8.17,-12608.0,-8320.0,6528.0
8.1725,-12544.0,-8256.0,6400.0
8.175,-12544.0,-8256.0,6400.0
8.1775,-12608.0,-8256.0,6400.0
8.18,-12608.0,-8192.0,6464.0
8.1825,-12672.0,-8192.0,6400.0
8.185,-12736.0,-8192.0,6400.0
8.1875,-12800.0,-8192.0,6400.0
8.19,-12864.0,-8128.0,6272.0
8.1925,-12928.0,-8128.0,6336.0
8.195,-12992.0,-8128.0,6336.0
8.1975,-12992.0,-8064.0,6336.0
8.2,-13056.0,-8064.0,6336.0
8.2025,-13056.0,-8128.0,6336.0
8.205,-13184.0,-8064.0,6208.0
8.2075,-13184.0,-8000.0,6272.0
8.21,-13248.0,-8000.0,6080.0
8.2125,-13312.0,-8000.0,6144.0
8.215,-13376.0,-7936.0,6080.0
8.2175,-13376.0,-8000.0,6144.0
8.22,-13440.0,-7936.0,6016.0
8.2225,-13504.0,-7936.0,6016.0
8.225,-13504.0,-7872.0,6016.0
8.2275,-13504.0,-7808.0,6080.0
8.23,-13504.0,-7872.0,5952.0
8.2325,-13440.0,-7872.0,6016.0
8.235,-13440.0,-7808.0,6016.0
8.2375,-13440.0,-7808.0,6016.0
8.24,-13376.0,-7808.0,6080.0
8.2425,-13312.0,-7808.0,6016.0
8.245,-13376.0,-7808.0,6016.0
8.2475,-13248.0,-7808.0,6016.0
8.25,-13312.0,-7872.0,6016.0
8.2525,-13248.0,-7872.0,6080.0
8.255,-13184.0,-7872.0,6080.0
8.2575,-13312.0,-7872.0,5952.0
8.26,-13312.0,-7936.0,5952.0
8.2625,-13312.0,-8000.0,5952.0
8.265,-13312.0,-8000.0,5824.0
8.2675,-13312.0,-8000.0,5824.0
8.27,-13440.0,-8000.0,5824.0
8.2725,-13440.0,-8064.0,5760.0
8.275,-13504.0,-8128.0,5696.0
8.2775,-13568.0,-8128.0,5632.0
8.28,-13504.0,-8128.0,5568.0
8.2825,-13632.0,-8192.0,5568.0
8.285,-13632.0,-8192.0,5696.0
8.2875,-13632.0,-8192.0,5696.0
8.29,-13568.0,-8192.0,5632.0
8.2925,-13568.0,-8192.0,5632.0
8.295,-13632.0,-8256.0,5632.0
8.2975,-13568.0,-8320.0,5632.0
8.3,-13504.0,-8320.0,5632.0
8.3025,-13504.0,-8192.0,5632.0
8.305,-13504.0,-8256.0,5504.0
8.3075,-13440.0,-8320.0,5440.0
8.31,-13440.0,-8320.0,5376.0
8.3125,-13376.0,-8256.0,5440.0
8.315,-13376.0,-8192.0,5440.0
8.3175,-13312.0,-8192.0,5440.0
8.32,-13184.0,-8192.0,5504.0
8.3225,-13184.0,-8192.0,5504.0
8.325,-13184.0,-8128.0,5504.0
8.3275,-13120.0,-8128.0,5568.0
8.33,-13120.0,-8128.0,5568.0
8.3325,-13056.0,-8128.0,5632.0
8.335,-13120.0,-8000.0,5760.0
8.3375,-13120.0,-8064.0,5696.0
8.34,-13120.0,-8000.0,5696.0
8.3425,-13056.0,-8000.0,5632.0
8.345,-13120.0,-8000.0,5632.0
8.3475,-13120.0,-8000.0,5632.0
8.35,-13120.0,-8000.0,5632.0
8.3525,-13184.0,-8000.0,5696.0
8.355,-13312.0,-8000.0,5632.0
8.3575,-13312.0,-7872.0,5632.0
8.36,-13376.0,-7872.0,5568.0
8.3625,-13440.0,-7936.0,5504.0
8.365,-13504.0,-8000.0,5504.0
8.3675,-13568.0,-8000.0,5504.0
8.37,-13696.0,-8000.0,5504.0
8.3725,-13824.0,-8000.0,5440.0
8.375,-13888.0,-8000.0,5440.0
8.3775,-13952.0,-8000.0,5376.0
8.38,-14016.0,-8000.0,5312.0
8.3825,-14016.0,-8064.0,5248.0
8.385,-14080.0,-8064.0,5184.0
8.3875,-14208.0,-8064.0,5184.0
8.39,-14208.0,-8128.0,5184.0
8.3925,-14208.0,-8128.0,5120.0
8.395,-14336.0,-8192.0,5120.0
8.3975,-14336.0,-8320.0,5120.0
8.4,-14400.0,-8320.0,5120.0
8.4025,-14464.0,-8320.0,5120.0
8.405,-14400.0,-8320.0,4992.0
8.4075,-14400.0,-8384.0,4992.0
8.41,-14400.0,-8384.0,4992.0
8.4125,-14400.0,-8384.0,4928.0
8.415,-14336.0,-8384.0,4992.0
8.4175,-14272.0,-8384.0,4992.0
8.42,-14272.0,-8384.0,4992.0
8.4225,-14208.0,-8384.0,4928.0
8.425,-14144.0,-8384.0,4864.0
8.4275,-14080.0,-8320.0,4992.0
8.43,-14016.0,-8256.0,4992.0
8.4325,-14016.0,-8256.0,4928.0
8.435,-13952.0,-8192.0,5056.0
8.4375,-13888.0,-8192.0,5056.0
8.44,-13888.0,-8128.0,5120.0
8.4425,-13824.0,-8000.0,5120.0
8.445,-13696.0,-8000.0,5184.0
8.4475,-13632.0,-7936.0,5120.0
8.45,-13504.0,-7872.0,5184.0
8.4525,-13504.0,-7872.0,5248.0
8.455,-13440.0,-7872.0,5248.0
8.4575,-13312.0,-7808.0,5184.0
8.46,-13248.0,-7744.0,5184.0
8.4625,-13248.0,-7680.0,5248.0
8.465,-13184.0,-7680.0,5120.0
8.4675,-13184.0,-7680.0,5120.0
8.47,-13184.0,-7680.0,5056.0
8.4725,-13184.0,-7744.0,5056.0
8.475,-13248.0,-7744.0,5120.0
8.4775,-13312.0,-7680.0,5184.0
8.48,-13376.0,-7680.0,5120.0
8.4825,-13440.0,-7616.0,5056.0
8.485,-13440.0,-7616.0,5056.0
8.4875,-13568.0,-7616.0,5056.0
8.49,-13632.0,-7616.0,5120.0
8.4925,-13696.0,-7680.0,5056.0
8.495,-13888.0,-7680.0,5056.0
8.4975,-14016.0,-7744.0,4928.0
8.5,-14144.0,-7744.0,4928.0
8.5025,-14272.0,-7808.0,4928.0
8.505,-14464.0,-7872.0,4800.0
8.5075,-14528.0,-7872.0,4736.0
8.51,-14592.0,-7872.0,4608.0
8.5125,-14720.0,-7872.0,4544.0
8.515,-14848.0,-7808.0,4544.0
8.5175,-14912.0,-7872.0,4416.0
8.52,-14976.0,-7872.0,4352.0
8.5225,-15040.0,-7872.0,4352.0
8.525,-15040.0,-7872.0,4352.0
8.5275,-15168.0,-7872.0,4352.0
8.53,-15232.0,-7936.0,4416.0
8.5325,-15232.0,-7872.0,4352.0
8.535,-15232.0,-7872.0,4416.0
8.5375,-15232.0,-7872.0,4416.0
8.54,-15168.0,-7936.0,4416.0
8.5425,-15168.0,-7872.0,4480.0
8.545,-15168.0,-7872.0,4544.0
8.5475,-15104.0,-7872.0,4672.0
8.55,-15104.0,-7872.0,4672.0
8.5525,-15104.0,-7808.0,4672.0
8.555,-14976.0,-7744.0,4672.0
8.5575,-14976.0,-7744.0,4608.0
8.56,-14912.0,-7680.0,4672.0
8.5625,-14784.0,-7616.0,4672.0
8.565,-14720.0,-7680.0,4608.0
8.5675,-14784.0,-7680.0,4672.0
8.57,-14720.0,-7680.0,4672.0
8.5725,-14656.0,-7616.0,4672.0
8.575,-14592.0,-7552.0,4736.0
8.5775,-14592.0,-7616.0,4736.0
8.58,-14592.0,-7616.0,4800.0
8.5825,-14528.0,-7616.0,4800.0
8.585,-14528.0,-7616.0,4928.0
8.5875,-14464.0,-7616.0,4864.0
8.59,-14400.0,-7616.0,4800.0
8.5925,-14336.0,-7616.0,4736.0
8.595,-14272.0,-7552.0,4736.0
8.5975,-14144.0,-7616.0,4672.0
8.6,-14080.0,-7552.0,4800.0
8.6025,-14016.0,-7552.0,4736.0
8.605,-14016.0,-7552.0,4736.0
8.6075,-13952.0,-7616.0,4736.0
8.61,-13824.0,-7616.0,4736.0
8.6125,-13760.0,-7616.0,4800.0
8.615,-13632.0,-7616.0,4864.0
8.6175,-13504.0,-7616.0,4800.0
8.62,-13504.0,-7616.0,4928.0
8.6225,-13440.0,-7552.0,4928.0
8.625,-13440.0,-7552.0,4864.0
8.6275,-13184.0,-7552.0,4928.0
8.63,-13248.0,-7488.0,4864.0
8.6325,-13312.0,-7552.0,4864.0
8.635,-13248.0,-7616.0,4864.0
8.6375,-13248.0,-7616.0,4928.0
8.64,-13248.0,-7680.0,4800.0
8.6425,-13248.0,-7680.0,4864.0
8.645,-13248.0,-7744.0,4864.0
8.6475,-13184.0,-7680.0,4800.0
8.65,-13248.0,-7680.0,4800.0
8.6525,-13248.0,-7616.0,4800.0
8.655,-13248.0,-7552.0,4800.0
8.6575,-13312.0,-7552.0,4800.0
8.66,-13248.0,-7552.0,4800.0
8.6625,-13248.0,-7616.0,4864.0
8.665,-13312.0,-7616.0,4864.0
8.6675,-13312.0,-7616.0,4864.0
8.67,-13248.0,-7616.0,4992.0
8.6725,-13312.0,-7616.0,4928.0
8.675,-13376.0,-7552.0,4864.0
8.6775,-13376.0,-7552.0,4864.0
8.68,-13376.0,-7616.0,4864.0
8.6825,-13376.0,-7616.0,4864.0
8.685,-13376.0,-7552.0,4864.0
8.6875,-13376.0,-7552.0,4864.0
8.69,-13312.0,-7488.0,4800.0
8.6925,-13376.0,-7488.0,4864.0
8.695,-13376.0,-7488.0,4864.0
8.6975,-13312.0,-7488.0,4992.0
8.7,-13376.0,-7488.0,4864.0
8.7025,-13312.0,-7552.0,4864.0
8.705,-13312.0,-7552.0,4864.0
8.7075,-13248.0,-7552.0,4800.0
8.71,-13248.0,-7552.0,4800.0
8.7125,-13312.0,-7552.0,4864.0
8.715,-13312.0,-7552.0,4864.0
8.7175,-13376.0,-7616.0,4800.0
8.72,-13248.0,-7552.0,4864.0
8.7225,-13248.0,-7552.0,4800.0
8.725,-13248.0,-7616.0,4864.0
8.7275,-13312.0,-7616.0,4800.0
8.73,-13312.0,-7680.0,4736.0
8.7325,-13312.0,-7680.0,4800.0
8.735,-13312.0,-7744.0,4736.0
8.7375,-13312.0,-7744.0,4672.0
8.74,-13312.0,-7808.0,4608.0
8.7425,-13312.0,-7808.0,4544.0
8.745,-13376.0,-7808.0,4608.0
8.7475,-13376.0,-7744.0,4672.0
8.75,-13440.0,-7744.0,4672.0
8.7525,-13376.0,-7744.0,4672.0
8.755,-13376.0,-7744.0,4608.0
8.7575,-13440.0,-7808.0,4672.0
8.76,-13376.0,-7872.0,4672.0
8.7625,-13440.0,-7808.0,4672.0
8.765,-13504.0,-7744.0,4608.0
8.7675,-13504.0,-7744.0,4672.0
8.77,-13504.0,-7680.0,4672.0
8.7725,-13568.0,-7680.0,4672.0
8.775,-13568.0,-7680.0,4672.0
8.7775,-13568.0,-7744.0,4672.0
8.78,-13568.0,-7744.0,4736.0
8.7825,-13632.0,-7744.0,4800.0
8.785,-13632.0,-7744.0,4736.0
8.7875,-13696.0,-7808.0,4736.0
8.79,-13760.0,-7808.0,4736.0
8.7925,-13760.0,-7808.0,4608.0
8.795,-13696.0,-7808.0,4672.0
8.7975,-13696.0,-7808.0,4672.0
8.8,-13696.0,-7872.0,4672.0
8.8025,-13632.0,-7808.0,4736.0
8.805,-13632.0,-7808.0,4736.0
8.8075,-13568.0,-7872.0,4800.0
8.81,-13632.0,-7872.0,4800.0
8.8125,-13568.0,-7808.0,4800.0
8.815,-13504.0,-7808.0,4736.0
8.8175,-13504.0,-7936.0,4736.0
8.82,-13440.0,-7872.0,4736.0
8.8225,-13312.0,-7808.0,4672.0
8.825,-13312.0,-7872.0,4800.0
8.8275,-13248.0,-7872.0,4800.0
8.83,-13184.0,-7872.0,4800.0
8.8325,-13184.0,-7872.0,4800.0
8.835,-13120.0,-7936.0,4800.0
8.8375,-13056.0,-7872.0,4736.0
8.84,-13056.0,-7872.0,4800.0
8.8425,-13056.0,-7872.0,4800.0
8.845,-12992.0,-7872.0,4800.0
8.8475,-12992.0,-7872.0,4800.0
8.85,-12928.0,-7872.0,4864.0
8.8525,-12864.0,-7872.0,4800.0
8.855,-12800.0,-7872.0,4800.0
8.8575,-12736.0,-7872.0,4800.0
8.86,-12800.0,-7808.0,4800.0
8.8625,-12736.0,-7808.0,4864.0
8.865,-12736.0,-7808.0,4864.0
8.8675,-12736.0,-7808.0,4864.0
8.87,-12736.0,-7744.0,4800.0
8.8725,-12736.0,-7744.0,4864.0
8.875,-12672.0,-7808.0,4864.0
8.8775,-12672.0,-7808.0,4864.0
8.88,-12736.0,-7872.0,4864.0
8.8825,-12800.0,-7872.0,4800.0
8.885,-12800.0,-7808.0,4800.0
8.8875,-12928.0,-7808.0,4800.0
8.89,-12928.0,-7872.0,4864.0
8.8925,-12928.0,-7872.0,4928.0
8.895,-12992.0,-7872.0,4928.0
8.8975,-13056.0,-7936.0,4864.0
8.9,-13120.0,-7936.0,4864.0
8.9025,-13184.0,-7936.0,4864.0
8.905,-13248.0,-8000.0,4864.0
8.9075,-13312.0,-8000.0,4992.0
8.91,-13312.0,-8064.0,4928.0
8.9125,-13312.0,-8064.0,4928.0
8.915,-13312.0,-8064.0,4928.0
8.9175,-13376.0,-8128.0,4864.0
8.92,-13440.0,-8128.0,4800.0
8.9225,-13376.0,-8128.0,4864.0
8.925,-13376.0,-8064.0,4864.0
8.9275,-13440.0,-8192.0,4864.0
8.93,-13376.0,-8192.0,4864.0
8.9325,-13376.0,-8256.0,4928.0
8.935,-13376.0,-8256.0,4800.0
8.9375,-13312.0,-8320.0,4864.0
8.94,-13312.0,-8320.0,4928.0
8.9425,-13312.0,-8320.0,4864.0
8.945,-13312.0,-8320.0,4864.0
8.9475,-13312.0,-8320.0,4928.0
8.95,-13248.0,-8320.0,4864.0
8.9525,-13312.0,-8384.0,4864.0
8.955,-13248.0,-8384.0,4928.0
8.9575,-13248.0,-8384.0,4864.0
8.96,-13312.0,-8384.0,4992.0
8.9625,-13184.0,-8384.0,4992.0
8.965,-13184.0,-8320.0,4928.0
8.9675,-13184.0,-8320.0,4864.0
8.97,-13184.0,-8384.0,4864.0
8.9725,-13184.0,-8320.0,4992.0
8.975,-13184.0,-8384.0,4992.0
8.9775,-13184.0,-8384.0,4928.0
8.98,-13248.0,-8448.0,4928.0
8.9825,-13248.0,-8512.0,4992.0
8.985,-13248.0,-8512.0,4992.0
8.9875,-13248.0,-8512.0,4992.0
8.99,-13248.0,-8576.0,4992.0
8.9925,-13312.0,-8512.0,4928.0
8.995,-13376.0,-8512.0,4928.0
8.9975,-13440.0,-8512.0,4928.0
9.0,-13504.0,-8448.0,4928.0
9.0025,-13568.0,-8448.0,4864.0
9.005,-13568.0,-8448.0,4864.0
9.0075,-13632.0,-8448.0,4864.0
9.01,-13632.0,-8448.0,4864.0
9.0125,-13632.0,-8448.0,4864.0
9.015,-13632.0,-8512.0,4864.0
9.0175,-13696.0,-8512.0,4928.0
9.02,-13760.0,-8512.0,4992.0
9.0225,-13696.0,-8512.0,5056.0
9.025,-13696.0,-8512.0,4992.0
9.0275,-13696.0,-8576.0,4992.0
9.03,-13760.0,-8576.0,4992.0
9.0325,-13760.0,-8512.0,4992.0
9.035,-13696.0,-8512.0,5056.0
9.0375,-13760.0,-8512.0,5056.0
9.04,-13696.0,-8576.0,5056.0
9.0425,-13696.0,-8512.0,5056.0
9.045,-13632.0,-8512.0,4992.0
9.0475,-13632.0,-8512.0,4992.0
9.05,-13632.0,-8576.0,4992.0
9.0525,-13632.0,-8512.0,4992.0
9.055,-13568.0,-8640.0,5056.0
9.0575,-13568.0,-8576.0,5056.0
9.06,-13568.0,-8576.0,5056.0
9.0625,-13568.0,-8640.0,5056.0
9.065,-13696.0,-8576.0,5120.0
9.0675,-13696.0,-8640.0,5120.0
9.07,-13696.0,-8640.0,5120.0
9.0725,-13696.0,-8704.0,5120.0
9.075,-13632.0,-8704.0,5056.0
9.0775,-13696.0,-8640.0,4992.0
9.08,-13760.0,-8640.0,4992.0
9.0825,-13760.0,-8640.0,4992.0
9.085,-13888.0,-8576.0,5056.0
9.0875,-13888.0,-8576.0,5056.0
9.09,-13888.0,-8576.0,5120.0
9.0925,-13888.0,-8576.0,5184.0
9.095,-13888.0,-8512.0,5120.0
9.0975,-13888.0,-8512.0,5120.0
9.1,-13824.0,-8512.0,5184.0
9.1025,-13824.0,-8448.0,5184.0
9.105,-13888.0,-8384.0,5184.0
9.1075,-13824.0,-8320.0,5184.0
9.11,-13824.0,-8320.0,5248.0
9.1125,-13760.0,-8256.0,5248.0
9.115,-13760.0,-8256.0,5248.0
9.1175,-13760.0,-8256.0,5248.0
9.12,-13632.0,-8256.0,5248.0
9.1225,-13632.0,-8256.0,5312.0
9.125,-13504.0,-8192.0,5248.0
9.1275,-13440.0,-8256.0,5120.0
9.13,-13440.0,-8256.0,5248.0
9.1325,-13440.0,-8256.0,5376.0
9.135,-13440.0,-8256.0,5312.0
9.1375,-13312.0,-8192.0,5312.0
9.14,-13248.0,-8192.0,5376.0
9.1425,-13184.0,-8192.0,5376.0
9.145,-13184.0,-8192.0,5312.0
9.1475,-13120.0,-8192.0,5312.0
9.15,-12992.0,-8192.0,5312.0
9.1525,-12928.0,-8192.0,5312.0
9.155,-12928.0,-8192.0,5248.0
9.1575,-12864.0,-8128.0,5312.0
9.16,-12928.0,-8192.0,5312.0
9.1625,-12864.0,-8128.0,5248.0
9.165,-12864.0,-8128.0,5248.0
9.1675,-12928.0,-8064.0,5312.0
9.17,-12864.0,-8128.0,5312.0
9.1725,-12864.0,-8064.0,5248.0
9.175,-12864.0,-8064.0,5312.0
9.1775,-12864.0,-8128.0,5312.0
9.18,-12864.0,-8064.0,5376.0
9.1825,-12992.0,-8064.0,5376.0
9.185,-12992.0,-8064.0,5376.0
9.1875,-12928.0,-8000.0,5376.0
9.19,-13056.0,-8000.0,5248.0
9.1925,-13056.0,-8000.0,5312.0
9.195,-13056.0,-8000.0,5312.0
9.1975,-13056.0,-8000.0,5248.0
9.2,-13120.0,-8000.0,5312.0
9.2025,-13056.0,-8000.0,5312.0
9.205,-13120.0,-8000.0,5312.0
9.2075,-13120.0,-8064.0,5312.0
9.21,-13056.0,-8064.0,5376.0
9.2125,-13056.0,-8000.0,5312.0
9.215,-13120.0,-8000.0,5376.0
9.2175,-13120.0,-7936.0,5376.0
9.22,-13056.0,-8000.0,5312.0
9.2225,-13120.0,-8000.0,5376.0
9.225,-13120.0,-7936.0,5312.0
9.2275,-13120.0,-7936.0,5184.0
9.23,-13120.0,-8000.0,5312.0
9.2325,-13120.0,-8000.0,5376.0
9.235,-13056.0,-8000.0,5376.0
9.2375,-13120.0,-7936.0,5376.0
9.24,-13120.0,-8000.0,5312.0
9.2425,-13120.0,-8000.0,5312.0
9.245,-13120.0,-7936.0,5248.0
9.2475,-13184.0,-7936.0,5248.0
9.25,-13184.0,-8000.0,5184.0
9.2525,-13248.0,-7936.0,5248.0
9.255,-13184.0,-8000.0,5184.0
9.2575,-13184.0,-8000.0,5248.0
9.26,-13184.0,-8000.0,5184.0
9.2625,-13184.0,-8000.0,5248.0
9.265,-13184.0,-8000.0,5184.0
9.2675,-13184.0,-7936.0,5248.0
9.27,-13248.0,-7936.0,5248.0
9.2725,-13184.0,-8000.0,5184.0
9.275,-13248.0,-8000.0,5184.0
9.2775,-13184.0,-7936.0,5120.0
9.28,-13056.0,-8000.0,5120.0
9.2825,-13056.0,-8000.0,5184.0
9.285,-13056.0,-8000.0,5248.0
9.2875,-12992.0,-8000.0,5120.0
9.29,-12992.0,-8000.0,5120.0
9.2925,-12992.0,-8000.0,5120.0
9.295,-12992.0,-8000.0,5120.0
9.2975,-12928.0,-8000.0,5120.0
9.3,-12928.0,-7936.0,5056.0
9.3025,-12864.0,-7936.0,5056.0
9.305,-12864.0,-7936.0,5056.0
9.3075,-12864.0,-7936.0,5056.0
9.31,-12864.0,-7936.0,5056.0
9.3125,-12864.0,-7936.0,4992.0
9.315,-12864.0,-7872.0,5056.0
9.3175,-12864.0,-7936.0,5120.0
9.32,-12864.0,-7936.0,5120.0
9.3225,-12928.0,-7936.0,5056.0
9.325,-12928.0,-7936.0,5056.0
9.3275,-12864.0,-7936.0,5056.0
9.33,-12928.0,-7936.0,5056.0
9.3325,-12928.0,-7936.0,4992.0
9.335,-12928.0,-7936.0,4928.0
9.3375,-12928.0,-7872.0,4928.0
9.34,-13056.0,-7936.0,4864.0
9.3425,-12992.0,-7936.0,4800.0
9.345,-13120.0,-7936.0,4864.0
9.3475,-13184.0,-7872.0,4800.0
9.35,-13184.0,-7872.0,4736.0
9.3525,-13312.0,-7936.0,4800.0
9.355,-13312.0,-7872.0,4800.0
9.3575,-13440.0,-7872.0,4736.0
9.36,-13568.0,-8000.0,4800.0
9.3625,-13696.0,-8000.0,4736.0
9.365,-13760.0,-7936.0,4800.0
9.3675,-13760.0,-8000.0,4672.0
9.37,-13888.0,-7936.0,4672.0
9.3725,-13952.0,-8000.0,4736.0
9.375,-14080.0,-7936.0,4672.0
9.3775,-14208.0,-8000.0,4672.0
9.38,-14208.0,-7936.0,4736.0
9.3825,-14272.0,-8000.0,4736.0
9.385,-14336.0,-8000.0,4736.0
9.3875,-14400.0,-7936.0,4672.0
9.39,-14400.0,-8000.0,4608.0
9.3925,-14528.0,-7936.0,4608.0
9.395,-14528.0,-7936.0,4608.0
9.3975,-14592.0,-7936.0,4608.0
9.4,-14528.0,-7936.0,4608.0
9.4025,-14528.0,-7936.0,4544.0
9.405,-14592.0,-7936.0,4608.0
9.4075,-14592.0,-7936.0,4672.0
9.41,-14592.0,-7936.0,4608.0
9.4125,-14592.0,-7936.0,4608.0
9.415,-14592.0,-7872.0,4608.0
9.4175,-14592.0,-7872.0,4672.0
9.42,-14656.0,-8000.0,4736.0
9.4225,-14656.0,-8000.0,4736.0
9.425,-14656.0,-8000.0,4672.0
9.4275,-14592.0,-8000.0,4672.0
9.43,-14592.0,-8064.0,4736.0
9.4325,-14528.0,-8064.0,4672.0
9.435,-14528.0,-8000.0,4672.0
9.4375,-14464.0,-8064.0,4736.0
9.44,-14400.0,-8064.0,4608.0
9.4425,-14400.0,-8000.0,4672.0
9.445,-14336.0,-7936.0,4608.0
9.4475,-14272.0,-7936.0,4672.0
9.45,-14272.0,-7936.0,4608.0
9.4525,-14272.0,-8000.0,4608.0
9.455,-14272.0,-7936.0,4544.0
9.4575,-14272.0,-7936.0,4544.0
9.46,-14272.0,-7936.0,4544.0
9.4625,-14208.0,-7936.0,4608.0
9.465,-14208.0,-7872.0,4672.0
9.4675,-14208.0,-7936.0,4608.0
9.47,-14208.0,-7936.0,4672.0
9.4725,-14208.0,-7936.0,4672.0
9.475,-14208.0,-7872.0,4736.0
9.4775,-14144.0,-7808.0,4736.0
9.48,-14144.0,-7744.0,4736.0
9.4825,-14208.0,-7680.0,4736.0
9.485,-14144.0,-7680.0,4736.0
9.4875,-14144.0,-7680.0,4736.0
9.49,-14208.0,-7616.0,4800.0
9.4925,-14208.0,-7680.0,4736.0
9.495,-14208.0,-7680.0,4800.0
9.4975,-14272.0,-7680.0,4800.0
9.5,-14400.0,-7680.0,4800.0
9.5025,-14336.0,-7680.0,4800.0
9.505,-14336.0,-7680.0,4800.0
9.5075,-14336.0,-7680.0,4736.0
9.51,-14336.0,-7680.0,4736.0
9.5125,-14336.0,-7680.0,4736.0
9.515,-14400.0,-7616.0,4736.0
9.5175,-14400.0,-7616.0,4672.0
9.52,-14400.0,-7552.0,4672.0
9.5225,-14400.0,-7552.0,4672.0
9.525,-14400.0,-7552.0,4608.0
9.5275,-14400.0,-7552.0,4608.0
9.53,-14400.0,-7488.0,4672.0
9.5325,-14336.0,-7552.0,4608.0
9.535,-14336.0,-7616.0,4672.0
9.5375,-14336.0,-7552.0,4608.0
9.54,-14272.0,-7552.0,4672.0
9.5425,-14208.0,-7552.0,4672.0
9.545,-14272.0,-7488.0,4608.0
9.5475,-14336.0,-7488.0,4672.0
9.55,-14272.0,-7488.0,4608.0
9.5525,-14272.0,-7488.0,4608.0
9.555,-14336.0,-7424.0,4672.0
9.5575,-14336.0,-7424.0,4672.0
9.56,-14272.0,-7424.0,4608.0
9.5625,-14208.0,-7424.0,4736.0
9.565,-14144.0,-7360.0,4736.0
9.5675,-14080.0,-7360.0,4672.0
9.57,-14016.0,-7360.0,4736.0
9.5725,-14080.0,-7296.0,4800.0
9.575,-14080.0,-7232.0,4800.0
9.5775,-14016.0,-7232.0,4736.0
9.58,-14016.0,-7232.0,4800.0
9.5825,-14080.0,-7232.0,4672.0
9.585,-14016.0,-7232.0,4672.0
9.5875,-14016.0,-7232.0,4672.0
9.59,-13952.0,-7232.0,4608.0
9.5925,-13824.0,-7232.0,4608.0
9.595,-13888.0,-7168.0,4608.0
9.5975,-13824.0,-7168.0,4672.0
9.6,-13888.0,-7040.0,4608.0
9.6025,-13824.0,-7040.0,4608.0
9.605,-13824.0,-6976.0,4672.0
9.6075,-13824.0,-7040.0,4672.0
9.61,-13824.0,-6976.0,4608.0
9.6125,-13760.0,-6976.0,4736.0
9.615,-13760.0,-6976.0,4736.0
9.6175,-13760.0,-6912.0,4672.0
9.62,-13760.0,-6912.0,4672.0
9.6225,-13760.0,-6912.0,4672.0
9.625,-13696.0,-6912.0,4672.0
9.6275,-13760.0,-6848.0,4736.0
9.63,-13696.0,-6848.0,4672.0
9.6325,-13696.0,-6912.0,4608.0
9.635,-13760.0,-6848.0,4608.0
9.6375,-13760.0,-6848.0,4608.0
9.64,-13760.0,-6848.0,4672.0
9.6425,-13760.0,-6848.0,4608.0
9.645,-13760.0,-6848.0,4608.0
9.6475,-13824.0,-6912.0,4544.0
9.65,-13824.0,-6848.0,4544.0
9.6525,-13760.0,-6912.0,4608.0
9.655,-13824.0,-6912.0,4544.0
9.6575,-13824.0,-6912.0,4544.0
9.66,-13824.0,-6848.0,4544.0
9.6625,-13824.0,-6848.0,4608.0
9.665,-13824.0,-6784.0,4672.0
9.6675,-13888.0,-6848.0,4608.0
9.67,-13952.0,-6848.0,4608.0
9.6725,-13952.0,-6912.0,4672.0
9.675,-14016.0,-6848.0,4736.0
9.6775,-14016.0,-6848.0,4672.0
9.68,-14080.0,-6848.0,4736.0
9.6825,-14144.0,-6848.0,4736.0
9.685,-14144.0,-6912.0,4672.0
9.6875,-14144.0,-6848.0,4608.0
9.69,-14272.0,-6912.0,4608.0
9.6925,-14272.0,-6912.0,4672.0
9.695,-14336.0,-7040.0,4672.0
9.6975,-14400.0,-7104.0,4608.0
9.7,-14400.0,-7104.0,4608.0
9.7025,-14464.0,-7040.0,4544.0
9.705,-14464.0,-7040.0,4480.0
9.7075,-14528.0,-7040.0,4416.0
9.71,-14528.0,-7040.0,4416.0
9.7125,-14656.0,-7040.0,4352.0
9.715,-14656.0,-7104.0,4480.0
9.7175,-14720.0,-7168.0,4480.0
9.72,-14784.0,-7168.0,4416.0
9.7225,-14848.0,-7168.0,4480.0
9.725,-14912.0,-7232.0,4480.0
9.7275,-14976.0,-7232.0,4544.0
9.73,-15104.0,-7232.0,4480.0
9.7325,-15168.0,-7232.0,4544.0
9.735,-15296.0,-7232.0,4544.0
9.7375,-15296.0,-7168.0,4608.0
9.74,-15424.0,-7168.0,4672.0
9.7425,-15488.0,-7168.0,4736.0
9.745,-15616.0,-7168.0,4672.0
9.7475,-15680.0,-7104.0,4672.0
9.75,-15744.0,-7104.0,4736.0
9.7525,-15808.0,-7040.0,4672.0
9.755,-15872.0,-7040.0,4672.0
9.7575,-16064.0,-6976.0,4800.0
9.76,-16192.0,-6976.0,4736.0
9.7625,-16384.0,-6976.0,4672.0
9.765,-16384.0,-6976.0,4736.0
9.7675,-16512.0,-6976.0,4736.0
9.77,-16640.0,-6976.0,4736.0
9.7725,-16768.0,-7040.0,4736.0
9.775,-16832.0,-6976.0,4736.0
9.7775,-16960.0,-6976.0,4736.0
9.78,-17088.0,-6976.0,4736.0
9.7825,-17024.0,-6912.0,4800.0
9.785,-17152.0,-6912.0,4736.0
9.7875,-17216.0,-6848.0,4800.0
9.79,-17344.0,-6848.0,4864.0
9.7925,-17408.0,-6720.0,4928.0
9.795,-17472.0,-6720.0,4864.0
9.7975,-17536.0,-6720.0,4864.0
9.8,-17664.0,-6656.0,4864.0
9.8025,-17728.0,-6720.0,4800.0
9.805,-17792.0,-6656.0,4864.0
9.8075,-17920.0,-6592.0,4864.0
9.81,-17920.0,-6592.0,4864.0
9.8125,-18048.0,-6592.0,4864.0
9.815,-17984.0,-6592.0,4800.0
9.8175,-18048.0,-6656.0,4864.0
9.82,-18112.0,-6528.0,4864.0
9.8225,-18112.0,-6464.0,4800.0
9.825,-18112.0,-6528.0,4800.0
9.8275,-18176.0,-6400.0,4864.0
9.83,-18112.0,-6336.0,4864.0
9.8325,-18176.0,-6336.0,4864.0
9.835,-18176.0,-6336.0,4864.0
9.8375,-18176.0,-6272.0,4928.0
9.84,-18176.0,-6272.0,4992.0
9.8425,-18112.0,-6208.0,4928.0
9.845,-18112.0,-6144.0,4992.0
9.8475,-18048.0,-6080.0,4928.0
9.85,-17984.0,-6080.0,4992.0
9.8525,-17920.0,-6080.0,4992.0
9.855,-17920.0,-5952.0,4864.0
9.8575,-17856.0,-5952.0,4928.0
9.86,-17792.0,-5888.0,4928.0
9.8625,-17728.0,-5888.0,4928.0
9.865,-17536.0,-5888.0,4928.0
9.8675,-17536.0,-5760.0,4992.0
9.87,-17472.0,-5760.0,5056.0
9.8725,-17408.0,-5760.0,4992.0
9.875,-17280.0,-5760.0,4928.0
9.8775,-17152.0,-5696.0,4928.0
9.88,-17152.0,-5696.0,4928.0
9.8825,-17088.0,-5632.0,4992.0
9.885,-16960.0,-5568.0,4928.0
9.8875,-16960.0,-5440.0,4928.0
9.89,-16832.0,-5376.0,4928.0
9.8925,-16768.0,-5312.0,4928.0
9.895,-16768.0,-5312.0,4928.0
9.8975,-16704.0,-5248.0,4992.0
