time_stamp,acc_x,acc_y,acc_z
0.0,-13504.0,-9024.0,2176.0
0.0025,-13504.0,-9024.0,2048.0
0.005,-13504.0,-9024.0,2048.0
0.0075,-13568.0,-9024.0,2048.0
0.01,-13568.0,-9024.0,2112.0
0.0125,-13568.0,-9024.0,2176.0
0.015,-13632.0,-9024.0,2112.0
0.0175,-13568.0,-8960.0,1984.0
0.02,-13568.0,-9024.0,1984.0
0.0225,-13568.0,-9024.0,2048.0
0.025,-13632.0,-9024.0,2112.0
0.0275,-13696.0,-8960.0,2048.0
0.03,-13632.0,-9024.0,2112.0
0.0325,-13632.0,-8960.0,2112.0
0.035,-13632.0,-9024.0,2048.0
0.0375,-13632.0,-8960.0,2048.0
0.04,-13632.0,-9024.0,1984.0
0.0425,-13696.0,-9024.0,1984.0
0.045,-13632.0,-9024.0,1984.0
0.0475,-13632.0,-8960.0,2048.0
0.05,-13696.0,-8960.0,2048.0
0.0525,-13696.0,-8960.0,2112.0
0.055,-13632.0,-8960.0,2112.0
0.0575,-13632.0,-8960.0,2176.0
0.06,-13632.0,-8960.0,2048.0
0.0625,-13632.0,-8960.0,2176.0
0.065,-13632.0,-9024.0,2112.0
0.0675,-13696.0,-8960.0,2112.0
0.07,-13632.0,-8960.0,2112.0
0.0725,-13632.0,-8960.0,2112.0
0.075,-13568.0,-9024.0,2048.0
0.0775,-13568.0,-9024.0,2048.0
0.08,-13568.0,-9088.0,2112.0
0.0825,-13504.0,-9088.0,1984.0
0.085,-13440.0,-9088.0,2048.0
0.0875,-13504.0,-9088.0,1984.0
0.09,-13504.0,-9024.0,1984.0
0.0925,-13568.0,-9088.0,2048.0
0.095,-13568.0,-9088.0,2048.0
0.0975,-13504.0,-9024.0,2048.0
0.1,-13568.0,-9088.0,2048.0
0.1025,-13568.0,-9088.0,1984.0
0.105,-13504.0,-9088.0,2112.0
0.1075,-13504.0,-9088.0,2048.0
0.11,-13504.0,-9088.0,2048.0
0.1125,-13568.0,-9152.0,2112.0
0.115,-13504.0,-9088.0,2112.0
0.1175,-13568.0,-9088.0,2048.0
0.12,-13568.0,-9088.0,2048.0
0.1225,-13568.0,-9088.0,2048.0
0.125,-13504.0,-9024.0,2048.0
0.1275,-13504.0,-9024.0,2048.0
0.13,-13504.0,-9024.0,2048.0
0.1325,-13504.0,-9024.0,2112.0
0.135,-13504.0,-8960.0,2112.0
0.1375,-13568.0,-8960.0,2112.0
0.14,-13504.0,-8960.0,2112.0
0.1425,-13440.0,-8960.0,2176.0
0.145,-13504.0,-8960.0,2112.0
0.1475,-13440.0,-8960.0,2176.0
0.15,-13440.0,-8960.0,2176.0
0.1525,-13440.0,-8960.0,2176.0
0.155,-13440.0,-8896.0,2176.0
0.1575,-13440.0,-8896.0,2240.0
0.16,-13568.0,-8896.0,2176.0
0.1625,-13440.0,-8896.0,2176.0
0.165,-13568.0,-8896.0,2176.0
0.1675,-13504.0,-8896.0,2112.0
0.17,-13504.0,-8896.0,2176.0
0.1725,-13504.0,-8832.0,2176.0
0.175,-13504.0,-8896.0,2176.0
0.1775,-13504.0,-8896.0,2176.0
0.18,-13504.0,-8960.0,2048.0
0.1825,-13568.0,-8896.0,2112.0
0.185,-13568.0,-8896.0,2112.0
0.1875,-13568.0,-8896.0,2112.0
0.19,-13568.0,-8960.0,2112.0
0.1925,-13504.0,-8960.0,2112.0
0.195,-13504.0,-8896.0,2112.0
0.1975,-13504.0,-8896.0,2112.0
0.2,-13504.0,-8896.0,2112.0
0.2025,-13504.0,-8960.0,2048.0
0.205,-13504.0,-8960.0,2176.0
0.2075,-13504.0,-8960.0,2112.0
0.21,-13504.0,-8896.0,2112.0
0.2125,-13504.0,-8960.0,2048.0
0.215,-13504.0,-8960.0,2176.0
0.2175,-13504.0,-8960.0,2112.0
0.22,-13504.0,-8896.0,2112.0
0.2225,-13504.0,-8896.0,2176.0
0.225,-13504.0,-8896.0,2112.0
0.2275,-13440.0,-8896.0,2112.0
0.23,-13440.0,-8896.0,2112.0
0.2325,-13440.0,-8896.0,2112.0
0.235,-13440.0,-8896.0,2112.0
0.2375,-13440.0,-8832.0,2176.0
0.24,-13504.0,-8896.0,2112.0
0.2425,-13440.0,-8832.0,2176.0
0.245,-13440.0,-8896.0,2048.0
0.2475,-13376.0,-8896.0,1984.0
0.25,-13504.0,-8832.0,2048.0
0.2525,-13504.0,-8832.0,2048.0
0.255,-13504.0,-8768.0,2112.0
0.2575,-13440.0,-8768.0,2048.0
0.26,-13440.0,-8832.0,1984.0
0.2625,-13440.0,-8896.0,1984.0
0.265,-13504.0,-8832.0,1984.0
0.2675,-13504.0,-8832.0,2048.0
0.27,-13504.0,-8896.0,1984.0
0.2725,-13504.0,-8896.0,2048.0
0.275,-13504.0,-8960.0,2048.0
0.2775,-13504.0,-8960.0,1984.0
0.28,-13568.0,-8960.0,1984.0
0.2825,-13568.0,-8960.0,2048.0
0.285,-13504.0,-8896.0,2048.0
0.2875,-13504.0,-8896.0,2048.0
0.29,-13504.0,-8960.0,2048.0
0.2925,-13568.0,-8896.0,2048.0
0.295,-13568.0,-8960.0,2048.0
0.2975,-13504.0,-8960.0,1984.0
0.3,-13504.0,-8960.0,2048.0
0.3025,-13568.0,-8960.0,2048.0
0.305,-13568.0,-9024.0,1984.0
0.3075,-13568.0,-8960.0,2048.0
0.31,-13504.0,-8960.0,2048.0
0.3125,-13504.0,-8960.0,2048.0
0.315,-13504.0,-9024.0,2112.0
0.3175,-13440.0,-8960.0,2048.0
0.32,-13504.0,-8960.0,2048.0
0.3225,-13504.0,-8960.0,2048.0
0.325,-13440.0,-8960.0,1984.0
0.3275,-13504.0,-9024.0,2048.0
0.33,-13568.0,-9024.0,2048.0
0.3325,-13568.0,-9024.0,1984.0
0.335,-13504.0,-8960.0,2048.0
0.3375,-13504.0,-8960.0,1984.0
0.34,-13440.0,-8960.0,1984.0
0.3425,-13504.0,-8960.0,2048.0
0.345,-13504.0,-8960.0,2048.0
0.3475,-13504.0,-8960.0,1984.0
0.35,-13504.0,-8960.0,1984.0
0.3525,-13504.0,-9024.0,1984.0
0.355,-13504.0,-9024.0,1984.0
0.3575,-13440.0,-9024.0,1984.0
0.36,-13504.0,-9088.0,2048.0
0.3625,-13504.0,-9088.0,2048.0
0.365,-13504.0,-9024.0,2048.0
0.3675,-13504.0,-9088.0,2112.0
0.37,-13568.0,-9088.0,2048.0
0.3725,-13504.0,-9088.0,1984.0
0.375,-13504.0,-9024.0,1984.0
0.3775,-13440.0,-9024.0,2048.0
0.38,-13440.0,-9024.0,1984.0
0.3825,-13440.0,-9024.0,1984.0
0.385,-13376.0,-9024.0,1984.0
0.3875,-13440.0,-9088.0,2048.0
0.39,-13504.0,-9024.0,2048.0
0.3925,-13504.0,-9024.0,2048.0
0.395,-13504.0,-9024.0,2048.0
0.3975,-13504.0,-8960.0,2048.0
0.4,-13440.0,-9088.0,2112.0
0.4025,-13440.0,-9088.0,1984.0
0.405,-13440.0,-9088.0,1984.0
0.4075,-13504.0,-9088.0,1984.0
0.41,-13504.0,-9088.0,1984.0
0.4125,-13440.0,-9088.0,2048.0
0.415,-13504.0,-9152.0,1984.0
0.4175,-13504.0,-9152.0,2048.0
0.42,-13504.0,-9152.0,1984.0
0.4225,-13568.0,-9152.0,1984.0
0.425,-13504.0,-9152.0,1984.0
0.4275,-13440.0,-9152.0,2048.0
0.43,-13504.0,-9152.0,2048.0
0.4325,-13504.0,-9216.0,2048.0
0.435,-13504.0,-9216.0,1984.0
0.4375,-13504.0,-9216.0,2048.0
0.44,-13504.0,-9216.0,2048.0
0.4425,-13504.0,-9216.0,1984.0
0.445,-13440.0,-9216.0,1984.0
0.4475,-13440.0,-9152.0,1984.0
0.45,-13440.0,-9216.0,1920.0
0.4525,-13504.0,-9152.0,1984.0
0.455,-13504.0,-9216.0,1984.0
0.4575,-13504.0,-9152.0,1984.0
0.46,-13504.0,-9216.0,1920.0
0.4625,-13504.0,-9216.0,1984.0
0.465,-13504.0,-9152.0,1920.0
0.4675,-13504.0,-9216.0,1920.0
0.47,-13504.0,-9280.0,1856.0
0.4725,-13504.0,-9216.0,1920.0
0.475,-13504.0,-9280.0,1984.0
0.4775,-13568.0,-9280.0,1984.0
0.48,-13440.0,-9280.0,2048.0
0.4825,-13440.0,-9280.0,1984.0
0.485,-13504.0,-9280.0,1984.0
0.4875,-13504.0,-9280.0,1984.0
0.49,-13504.0,-9280.0,2048.0
0.4925,-13504.0,-9216.0,2048.0
0.495,-13504.0,-9280.0,1984.0
0.4975,-13440.0,-9280.0,2048.0
0.5,-13440.0,-9280.0,2048.0
0.5025,-13440.0,-9280.0,1984.0
0.505,-13504.0,-9216.0,1984.0
0.5075,-13440.0,-9280.0,1984.0
0.51,-13504.0,-9216.0,1984.0
0.5125,-13568.0,-9152.0,1984.0
0.515,-13504.0,-9152.0,2048.0
0.5175,-13440.0,-9152.0,1984.0
0.52,-13440.0,-9152.0,1920.0
0.5225,-13504.0,-9216.0,2048.0
0.525,-13504.0,-9152.0,2048.0
0.5275,-13504.0,-9216.0,2048.0
0.53,-13504.0,-9152.0,2048.0
0.5325,-13504.0,-9152.0,2048.0
0.535,-13504.0,-9152.0,2048.0
0.5375,-13568.0,-9152.0,2048.0
0.54,-13504.0,-9216.0,2048.0
0.5425,-13568.0,-9152.0,1984.0
0.545,-13504.0,-9152.0,1984.0
0.5475,-13568.0,-9152.0,1984.0
0.55,-13568.0,-9152.0,1984.0
0.5525,-13568.0,-9152.0,1984.0
0.555,-13632.0,-9152.0,1920.0
0.5575,-13632.0,-9152.0,1984.0
0.56,-13504.0,-9216.0,2048.0
0.5625,-13504.0,-9152.0,1984.0
0.565,-13568.0,-9152.0,1984.0
0.5675,-13504.0,-9152.0,1984.0
0.57,-13568.0,-9152.0,1984.0
0.5725,-13568.0,-9152.0,2048.0
0.575,-13568.0,-9088.0,2048.0
0.5775,-13568.0,-9152.0,1920.0
0.58,-13568.0,-9152.0,2048.0
0.5825,-13568.0,-9088.0,2048.0
0.585,-13568.0,-9152.0,1920.0
0.5875,-13568.0,-9152.0,1984.0
0.59,-13632.0,-9088.0,1984.0
0.5925,-13632.0,-9152.0,2112.0
0.595,-13568.0,-9088.0,2048.0
0.5975,-13568.0,-9088.0,2112.0
0.6,-13568.0,-9024.0,2048.0
0.6025,-13632.0,-9024.0,2048.0
0.605,-13568.0,-9088.0,2048.0
0.6075,-13632.0,-9088.0,2048.0
0.61,-13568.0,-9024.0,2048.0
0.6125,-13568.0,-9024.0,1984.0
0.615,-13568.0,-9088.0,2048.0
0.6175,-13504.0,-9152.0,2048.0
0.62,-13568.0,-9152.0,2112.0
0.6225,-13568.0,-9024.0,2048.0
0.625,-13568.0,-9024.0,1984.0
0.6275,-13568.0,-9088.0,1984.0
0.63,-13568.0,-9088.0,1920.0
0.6325,-13632.0,-9088.0,2048.0
0.635,-13568.0,-9024.0,1984.0
0.6375,-13504.0,-9024.0,1920.0
0.64,-13504.0,-8960.0,2048.0
0.6425,-13568.0,-8896.0,1920.0
0.645,-13504.0,-9024.0,1984.0
0.6475,-13504.0,-8960.0,2048.0
0.65,-13376.0,-9024.0,2048.0
0.6525,-13440.0,-9024.0,2048.0
0.655,-13504.0,-8960.0,2048.0
0.6575,-13504.0,-8960.0,2112.0
0.66,-13504.0,-9024.0,2112.0
0.6625,-13504.0,-8960.0,2048.0
0.665,-13504.0,-8960.0,2048.0
0.6675,-13504.0,-9024.0,2048.0
0.67,-13504.0,-8960.0,2112.0
0.6725,-13504.0,-8960.0,2112.0
0.675,-13504.0,-9024.0,2112.0
0.6775,-13440.0,-8960.0,2112.0
0.68,-13504.0,-9024.0,2112.0
0.6825,-13504.0,-8960.0,2048.0
0.685,-13504.0,-8896.0,2048.0
0.6875,-13504.0,-8960.0,1984.0
0.69,-13504.0,-8960.0,1984.0
0.6925,-13504.0,-8960.0,2048.0
0.695,-13504.0,-8960.0,1920.0
0.6975,-13504.0,-8960.0,1984.0
0.7,-13568.0,-8960.0,1984.0
0.7025,-13568.0,-8960.0,2048.0
0.705,-13568.0,-8960.0,2048.0
0.7075,-13632.0,-8960.0,2048.0
0.71,-13632.0,-8896.0,2048.0
0.7125,-13632.0,-9024.0,1920.0
0.715,-13632.0,-8960.0,1984.0
0.7175,-13696.0,-8896.0,1984.0
0.72,-13696.0,-9024.0,2048.0
0.7225,-13696.0,-8960.0,2048.0
0.725,-13632.0,-8960.0,2112.0
0.7275,-13696.0,-8960.0,2048.0
0.73,-13696.0,-8960.0,2048.0
0.7325,-13760.0,-8960.0,2112.0
0.735,-13632.0,-8960.0,2112.0
0.7375,-13632.0,-8896.0,2112.0
0.74,-13632.0,-8896.0,2048.0
0.7425,-13696.0,-8896.0,2112.0
0.745,-13632.0,-8960.0,2112.0
0.7475,-13632.0,-8960.0,2048.0
0.75,-13696.0,-8896.0,2048.0
0.7525,-13632.0,-8896.0,2112.0
0.755,-13632.0,-8960.0,2112.0
0.7575,-13632.0,-8960.0,2112.0
0.76,-13632.0,-9024.0,2112.0
0.7625,-13568.0,-9024.0,2112.0
0.765,-13632.0,-9024.0,2048.0
0.7675,-13632.0,-9088.0,1984.0
0.77,-13632.0,-9088.0,1920.0
0.7725,-13632.0,-9024.0,1984.0
0.775,-13568.0,-9088.0,1920.0
0.7775,-13632.0,-9024.0,1984.0
0.78,-13568.0,-9024.0,2048.0
0.7825,-13504.0,-9024.0,2112.0
0.785,-13504.0,-9024.0,2112.0
0.7875,-13568.0,-9024.0,2176.0
0.79,-13568.0,-9088.0,2176.0
0.7925,-13568.0,-9088.0,2240.0
0.795,-13632.0,-9088.0,2240.0
0.7975,-13568.0,-9088.0,2240.0
0.8,-13568.0,-9088.0,2112.0
0.8025,-13568.0,-9088.0,2048.0
0.805,-13504.0,-9088.0,2176.0
0.8075,-13504.0,-9088.0,2176.0
0.81,-13504.0,-9152.0,2176.0
0.8125,-13568.0,-9088.0,2240.0
0.815,-13568.0,-9088.0,2176.0
0.8175,-13568.0,-9088.0,2176.0
0.82,-13568.0,-9088.0,2112.0
0.8225,-13504.0,-9088.0,2176.0
0.825,-13504.0,-9088.0,2176.0
0.8275,-13504.0,-9088.0,2240.0
0.83,-13504.0,-8960.0,2176.0
0.8325,-13504.0,-9024.0,2176.0
0.835,-13504.0,-8896.0,2112.0
0.8375,-13440.0,-8896.0,2112.0
0.84,-13504.0,-8960.0,2176.0
0.8425,-13504.0,-9024.0,2240.0
0.845,-13504.0,-9088.0,2240.0
0.8475,-13568.0,-9088.0,2112.0
0.85,-13632.0,-9088.0,2112.0
0.8525,-13568.0,-9152.0,2240.0
0.855,-13568.0,-9152.0,2240.0
0.8575,-13568.0,-9152.0,2240.0
0.86,-13568.0,-9088.0,2240.0
0.8625,-13568.0,-9088.0,2240.0
0.865,-13568.0,-9088.0,2240.0
0.8675,-13568.0,-9088.0,2240.0
0.87,-13568.0,-9024.0,2240.0
0.8725,-13632.0,-9024.0,2240.0
0.875,-13504.0,-9024.0,2176.0
0.8775,-13504.0,-9024.0,2176.0
0.88,-13568.0,-9024.0,2176.0
0.8825,-13504.0,-9024.0,2240.0
0.885,-13568.0,-9088.0,2112.0
0.8875,-13568.0,-9088.0,2176.0
0.89,-13568.0,-9088.0,2176.0
0.8925,-13568.0,-9024.0,2112.0
0.895,-13568.0,-9024.0,2176.0
0.8975,-13504.0,-9088.0,2176.0
0.9,-13568.0,-9024.0,2176.0
0.9025,-13504.0,-9024.0,2176.0
0.905,-13568.0,-9024.0,2304.0
0.9075,-13568.0,-8960.0,2304.0
0.91,-13504.0,-8960.0,2304.0
0.9125,-13504.0,-9024.0,2240.0
0.915,-13504.0,-9024.0,2112.0
0.9175,-13504.0,-9024.0,2112.0
0.92,-13568.0,-9024.0,2112.0
0.9225,-13568.0,-9088.0,2176.0
0.925,-13568.0,-9024.0,2112.0
0.9275,-13504.0,-9088.0,2176.0
0.93,-13568.0,-9088.0,2176.0
0.9325,-13568.0,-9088.0,2240.0
0.935,-13568.0,-9088.0,2176.0
0.9375,-13568.0,-9024.0,2176.0
0.94,-13568.0,-9024.0,2176.0
0.9425,-13504.0,-9088.0,2176.0
0.945,-13504.0,-9024.0,2176.0
0.9475,-13504.0,-9024.0,2176.0
0.95,-13504.0,-9024.0,2176.0
0.9525,-13568.0,-9024.0,2176.0
0.955,-13504.0,-9088.0,2112.0
0.9575,-13440.0,-9024.0,2112.0
0.96,-13568.0,-9024.0,2048.0
0.9625,-13568.0,-9088.0,2048.0
0.965,-13568.0,-9088.0,2048.0
0.9675,-13504.0,-9024.0,2048.0
0.97,-13568.0,-9024.0,2048.0
0.9725,-13568.0,-9024.0,2112.0
0.975,-13504.0,-8960.0,2112.0
0.9775,-13504.0,-9088.0,2048.0
0.98,-13568.0,-9024.0,2112.0
0.9825,-13504.0,-9024.0,2112.0
0.985,-13504.0,-9024.0,2048.0
0.9875,-13504.0,-9024.0,2112.0
0.99,-13504.0,-9088.0,2048.0
0.9925,-13504.0,-9088.0,2112.0
0.995,-13568.0,-9088.0,2112.0
0.9975,-13504.0,-9088.0,2112.0
1.0,-13504.0,-9088.0,2176.0
1.0025,-13504.0,-9024.0,2176.0
1.005,-13440.0,-9024.0,2112.0
1.0075,-13504.0,-9024.0,2176.0
1.01,-13504.0,-9024.0,2176.0
1.0125,-13504.0,-9088.0,2112.0
1.015,-13504.0,-9024.0,2112.0
1.0175,-13504.0,-9088.0,2112.0
1.02,-13568.0,-9088.0,2112.0
1.0225,-13568.0,-9088.0,2048.0
1.025,-13504.0,-9024.0,1984.0
1.0275,-13504.0,-9024.0,1984.0
1.03,-13504.0,-9024.0,1984.0
1.0325,-13504.0,-9024.0,1984.0
1.035,-13504.0,-9088.0,1984.0
1.0375,-13504.0,-9024.0,2048.0
1.04,-13504.0,-9024.0,1984.0
1.0425,-13504.0,-9024.0,1984.0
1.045,-13504.0,-9024.0,1984.0
1.0475,-13440.0,-9024.0,2048.0
1.05,-13440.0,-9024.0,2048.0
1.0525,-13504.0,-8960.0,2048.0
1.055,-13504.0,-9024.0,2112.0
1.0575,-13504.0,-8960.0,2112.0
1.06,-13568.0,-8960.0,2176.0
1.0625,-13568.0,-8960.0,2112.0
1.065,-13504.0,-8960.0,2048.0
1.0675,-13504.0,-8896.0,2048.0
1.07,-13440.0,-8896.0,2048.0
1.0725,-13504.0,-8896.0,1984.0
1.075,-13504.0,-8896.0,2048.0
1.0775,-13504.0,-8896.0,1984.0
1.08,-13504.0,-8960.0,1984.0
1.0825,-13504.0,-8960.0,2048.0
1.085,-13440.0,-8960.0,2048.0
1.0875,-13440.0,-8960.0,2112.0
1.09,-13440.0,-8960.0,2112.0
1.0925,-13440.0,-9024.0,2112.0
1.095,-13440.0,-9024.0,2112.0
1.0975,-13504.0,-8896.0,2112.0
1.1,-13504.0,-8960.0,2112.0
1.1025,-13504.0,-8896.0,2112.0
1.105,-13504.0,-8896.0,2112.0
1.1075,-13504.0,-8896.0,2112.0
1.11,-13504.0,-8896.0,2112.0
1.1125,-13440.0,-8960.0,2112.0
1.115,-13504.0,-8960.0,2176.0
1.1175,-13440.0,-8960.0,2112.0
1.12,-13504.0,-8960.0,2048.0
1.1225,-13504.0,-8960.0,2048.0
1.125,-13568.0,-8960.0,2048.0
1.1275,-13568.0,-8960.0,2112.0
1.13,-13632.0,-9024.0,2048.0
1.1325,-13568.0,-9024.0,2112.0
1.135,-13568.0,-9024.0,2112.0
1.1375,-13568.0,-9088.0,2048.0
1.14,-13568.0,-9088.0,2112.0
1.1425,-13632.0,-9088.0,2112.0
1.145,-13568.0,-9152.0,1984.0
1.1475,-13568.0,-9088.0,2048.0
1.15,-13568.0,-9088.0,2048.0
1.1525,-13568.0,-9088.0,1984.0
1.155,-13504.0,-9152.0,1984.0
1.1575,-13568.0,-9088.0,2048.0
1.16,-13568.0,-9088.0,2112.0
1.1625,-13568.0,-9152.0,2112.0
1.165,-13568.0,-9088.0,2176.0
1.1675,-13504.0,-9152.0,2176.0
1.17,-13504.0,-9152.0,2112.0
1.1725,-13504.0,-9152.0,2048.0
1.175,-13504.0,-9152.0,2048.0
1.1775,-13504.0,-9152.0,2112.0
1.18,-13504.0,-9152.0,2112.0
1.1825,-13504.0,-9152.0,2048.0
1.185,-13504.0,-9088.0,2112.0
1.1875,-13440.0,-9152.0,2048.0
1.19,-13504.0,-9152.0,1984.0
1.1925,-13504.0,-9088.0,1984.0
1.195,-13440.0,-9152.0,1920.0
1.1975,-13440.0,-9088.0,1920.0
1.2,-13504.0,-9152.0,1984.0
1.2025,-13440.0,-9152.0,2048.0
1.205,-13504.0,-9216.0,1984.0
1.2075,-13440.0,-9152.0,1984.0
1.21,-13440.0,-9152.0,1920.0
1.2125,-13440.0,-9152.0,1984.0
1.215,-13504.0,-9152.0,2048.0
1.2175,-13504.0,-9088.0,1984.0
1.22,-13440.0,-9152.0,2048.0
1.2225,-13376.0,-9088.0,2048.0
1.225,-13440.0,-9088.0,2112.0
1.2275,-13504.0,-9152.0,2112.0
1.23,-13504.0,-9152.0,2112.0
1.2325,-13504.0,-9152.0,2048.0
1.235,-13504.0,-9088.0,2048.0
1.2375,-13440.0,-9152.0,2112.0
1.24,-13440.0,-9152.0,2048.0
1.2425,-13440.0,-9088.0,2112.0
1.245,-13504.0,-9088.0,2112.0
1.2475,-13504.0,-9088.0,2112.0
1.25,-13504.0,-9088.0,2048.0
1.2525,-13504.0,-9024.0,2048.0
1.255,-13568.0,-9024.0,2048.0
1.2575,-13504.0,-9024.0,2048.0
1.26,-13504.0,-9024.0,1984.0
1.2625,-13568.0,-9088.0,2048.0
1.265,-13568.0,-9088.0,2048.0
1.2675,-13568.0,-9088.0,2048.0
1.27,-13504.0,-9088.0,2048.0
1.2725,-13504.0,-9088.0,2048.0
1.275,-13440.0,-9088.0,2112.0
1.2775,-13440.0,-9088.0,2112.0
1.28,-13440.0,-9152.0,2112.0
1.2825,-13440.0,-9088.0,2112.0
1.285,-13440.0,-9088.0,2112.0
1.2875,-13440.0,-9152.0,2176.0
1.29,-13376.0,-9152.0,2112.0
1.2925,-13376.0,-9088.0,2048.0
1.295,-13440.0,-9152.0,2048.0
1.2975,-13440.0,-9152.0,2112.0
1.3,-13440.0,-9152.0,2176.0
1.3025,-13440.0,-9152.0,2176.0
1.305,-13440.0,-9152.0,2112.0
1.3075,-13376.0,-9152.0,2112.0
1.31,-13440.0,-9152.0,2048.0
1.3125,-13376.0,-9152.0,2112.0
1.315,-13376.0,-9152.0,2048.0
1.3175,-13376.0,-9216.0,2112.0
1.32,-13376.0,-9152.0,2048.0
1.3225,-13376.0,-9152.0,1984.0
1.325,-13376.0,-9152.0,1984.0
1.3275,-13376.0,-9152.0,2048.0
1.33,-13312.0,-9152.0,2112.0
1.3325,-13312.0,-9152.0,2112.0
1.335,-13376.0,-9216.0,2176.0
1.3375,-13376.0,-9216.0,2112.0
1.34,-13376.0,-9152.0,2176.0
1.3425,-13376.0,-9152.0,2112.0
1.345,-13440.0,-9152.0,2112.0
1.3475,-13440.0,-9152.0,2112.0
1.35,-13440.0,-9152.0,2176.0
1.3525,-13376.0,-9216.0,2112.0
1.355,-13376.0,-9152.0,2112.0
1.3575,-13376.0,-9088.0,2048.0
1.36,-13376.0,-9152.0,2048.0
1.3625,-13376.0,-9152.0,2048.0
1.365,-13376.0,-9152.0,2048.0
1.3675,-13376.0,-9152.0,2048.0
1.37,-13376.0,-9152.0,1984.0
1.3725,-13440.0,-9152.0,2112.0
1.375,-13440.0,-9216.0,1984.0
1.3775,-13440.0,-9216.0,2048.0
1.38,-13440.0,-9152.0,1984.0
1.3825,-13440.0,-9088.0,1984.0
1.385,-13504.0,-9088.0,2112.0
1.3875,-13504.0,-9088.0,1984.0
1.39,-13504.0,-9152.0,1984.0
1.3925,-13568.0,-9088.0,2048.0
1.395,-13568.0,-9088.0,2048.0
1.3975,-13568.0,-9152.0,1984.0
1.4,-13568.0,-9088.0,1984.0
1.4025,-13568.0,-9088.0,2048.0
1.405,-13568.0,-9024.0,2112.0
1.4075,-13568.0,-9088.0,2176.0
1.41,-13568.0,-9088.0,2176.0
1.4125,-13568.0,-9088.0,2112.0
1.415,-13504.0,-9088.0,2176.0
1.4175,-13568.0,-9024.0,2176.0
1.42,-13568.0,-9024.0,2048.0
1.4225,-13504.0,-9024.0,2112.0
1.425,-13504.0,-9024.0,2112.0
1.4275,-13440.0,-9088.0,2112.0
1.43,-13440.0,-9152.0,2048.0
1.4325,-13504.0,-9088.0,1984.0
1.435,-13504.0,-9088.0,1984.0
1.4375,-13504.0,-9088.0,1984.0
1.44,-13504.0,-9152.0,2048.0
1.4425,-13504.0,-9152.0,2048.0
1.445,-13504.0,-9152.0,1984.0
1.4475,-13504.0,-9152.0,1984.0
1.45,-13504.0,-9152.0,2048.0
1.4525,-13504.0,-9152.0,2112.0
1.455,-13504.0,-9152.0,1984.0
1.4575,-13504.0,-9152.0,2048.0
1.46,-13504.0,-9152.0,2048.0
1.4625,-13504.0,-9152.0,2048.0
1.465,-13504.0,-9216.0,2112.0
1.4675,-13504.0,-9216.0,2112.0
1.47,-13440.0,-9216.0,2048.0
1.4725,-13376.0,-9216.0,2048.0
1.475,-13376.0,-9152.0,2048.0
1.4775,-13376.0,-9152.0,2048.0
1.48,-13376.0,-9152.0,2048.0
1.4825,-13376.0,-9152.0,2048.0
1.485,-13376.0,-9152.0,2048.0
1.4875,-13376.0,-9152.0,2048.0
1.49,-13376.0,-9088.0,2048.0
1.4925,-13376.0,-9088.0,2048.0
1.495,-13376.0,-9088.0,2048.0
1.4975,-13312.0,-9088.0,2048.0
1.5,-13312.0,-9088.0,1984.0
1.5025,-13376.0,-9152.0,1984.0
1.505,-13440.0,-9152.0,2048.0
1.5075,-13440.0,-9216.0,2048.0
1.51,-13440.0,-9216.0,2048.0
1.5125,-13504.0,-9216.0,2048.0
1.515,-13440.0,-9152.0,2048.0
1.5175,-13440.0,-9152.0,2048.0
1.52,-13440.0,-9216.0,1984.0
1.5225,-13440.0,-9152.0,2048.0
1.525,-13440.0,-9152.0,1984.0
1.5275,-13440.0,-9152.0,1984.0
1.53,-13440.0,-9152.0,2048.0
1.5325,-13440.0,-9152.0,2112.0
1.535,-13440.0,-9088.0,1984.0
1.5375,-13376.0,-9088.0,2112.0
1.54,-13312.0,-9088.0,2112.0
1.5425,-13376.0,-9088.0,2112.0
1.545,-13440.0,-9088.0,2112.0
1.5475,-13440.0,-9088.0,2176.0
1.55,-13440.0,-9088.0,2176.0
1.5525,-13440.0,-9088.0,2176.0
1.555,-13440.0,-9152.0,2048.0
1.5575,-13440.0,-9152.0,2112.0
1.56,-13440.0,-9088.0,2048.0
1.5625,-13440.0,-9152.0,2048.0
1.565,-13504.0,-9152.0,2048.0
1.5675,-13504.0,-9152.0,2112.0
1.57,-13504.0,-9088.0,2048.0
1.5725,-13568.0,-9088.0,1920.0
1.575,-13568.0,-9152.0,1920.0
1.5775,-13568.0,-9152.0,1920.0
1.58,-13568.0,-9088.0,1984.0
1.5825,-13568.0,-9152.0,1984.0
1.585,-13632.0,-9152.0,2048.0
1.5875,-13632.0,-9152.0,1984.0
1.59,-13568.0,-9088.0,2048.0
1.5925,-13568.0,-9088.0,1984.0
1.595,-13568.0,-9152.0,1984.0
1.5975,-13504.0,-9152.0,2048.0
1.6,-13568.0,-9152.0,2112.0
1.6025,-13440.0,-9088.0,2048.0
1.605,-13504.0,-9152.0,2112.0
1.6075,-13504.0,-9088.0,2048.0
1.61,-13504.0,-9088.0,2048.0
1.6125,-13504.0,-9088.0,2112.0
1.615,-13504.0,-9088.0,2048.0
1.6175,-13504.0,-9088.0,2048.0
1.62,-13440.0,-9088.0,2112.0
1.6225,-13440.0,-9024.0,2112.0
1.625,-13440.0,-9088.0,2048.0
1.6275,-13440.0,-9088.0,2048.0
1.63,-13376.0,-9152.0,2048.0
1.6325,-13376.0,-9088.0,1984.0
1.635,-13376.0,-9152.0,1984.0
1.6375,-13376.0,-9088.0,2048.0
1.64,-13440.0,-9088.0,2048.0
1.6425,-13440.0,-9088.0,2048.0
1.645,-13440.0,-9152.0,1984.0
1.6475,-13440.0,-9088.0,2048.0
1.65,-13440.0,-9024.0,2048.0
1.6525,-13504.0,-9088.0,2048.0
1.655,-13440.0,-9024.0,2048.0
1.6575,-13440.0,-9024.0,2048.0
1.66,-13440.0,-9024.0,2112.0
1.6625,-13504.0,-9088.0,2048.0
1.665,-13440.0,-9088.0,2048.0
1.6675,-13440.0,-9088.0,2112.0
1.67,-13440.0,-9024.0,2048.0
1.6725,-13440.0,-9024.0,2048.0
1.675,-13440.0,-9024.0,2048.0
1.6775,-13440.0,-9024.0,2112.0
1.68,-13504.0,-8960.0,2176.0
1.6825,-13440.0,-8960.0,2112.0
1.685,-13504.0,-9024.0,2112.0
1.6875,-13504.0,-9024.0,2176.0
1.69,-13504.0,-9088.0,2112.0
1.6925,-13504.0,-9088.0,2112.0
1.695,-13440.0,-9024.0,2112.0
1.6975,-13504.0,-9088.0,2048.0
1.7,-13440.0,-9024.0,2048.0
1.7025,-13440.0,-9024.0,2112.0
1.705,-13440.0,-9024.0,2048.0
1.7075,-13440.0,-9024.0,2048.0
1.71,-13440.0,-9088.0,2112.0
1.7125,-13504.0,-9024.0,2112.0
1.715,-13440.0,-9088.0,2112.0
1.7175,-13376.0,-9088.0,2112.0
1.72,-13440.0,-9088.0,2112.0
1.7225,-13440.0,-9152.0,2112.0
1.725,-13376.0,-9088.0,2176.0
1.7275,-13376.0,-9088.0,2112.0
1.73,-13376.0,-9024.0,2112.0
1.7325,-13440.0,-9024.0,2112.0
1.735,-13440.0,-9024.0,2112.0
1.7375,-13440.0,-9024.0,2112.0
1.74,-13440.0,-9024.0,2112.0
1.7425,-13440.0,-9088.0,2112.0
1.745,-13440.0,-9088.0,2112.0
1.7475,-13440.0,-9088.0,2112.0
1.75,-13440.0,-9152.0,2112.0
1.7525,-13440.0,-9088.0,2112.0
1.755,-13440.0,-9088.0,2112.0
1.7575,-13376.0,-9152.0,2048.0
1.76,-13440.0,-9088.0,2176.0
1.7625,-13440.0,-9088.0,2176.0
1.765,-13504.0,-9088.0,2176.0
1.7675,-13440.0,-9088.0,2176.0
1.77,-13440.0,-9152.0,2176.0
1.7725,-13440.0,-9152.0,2112.0
1.775,-13440.0,-9152.0,2112.0
1.7775,-13504.0,-9152.0,2112.0
1.78,-13504.0,-9152.0,2112.0
1.7825,-13504.0,-9088.0,2112.0
1.785,-13440.0,-9088.0,2048.0
1.7875,-13440.0,-9088.0,2112.0
1.79,-13504.0,-9088.0,2112.0
1.7925,-13504.0,-9088.0,2048.0
1.795,-13504.0,-9088.0,2048.0
1.7975,-13504.0,-9088.0,2112.0
1.8,-13504.0,-9088.0,2048.0
1.8025,-13504.0,-9088.0,2048.0
1.805,-13440.0,-9088.0,2048.0
1.8075,-13440.0,-9024.0,2112.0
1.81,-13376.0,-9088.0,2112.0
1.8125,-13376.0,-9088.0,2176.0
1.815,-13440.0,-9088.0,2112.0
1.8175,-13504.0,-9024.0,2112.0
1.82,-13376.0,-9088.0,2176.0
1.8225,-13376.0,-9024.0,2176.0
1.825,-13376.0,-9024.0,2240.0
1.8275,-13312.0,-8960.0,2240.0
1.83,-13312.0,-9024.0,2240.0
1.8325,-13312.0,-8896.0,2304.0
1.835,-13312.0,-8960.0,2240.0
1.8375,-13312.0,-8832.0,2304.0
1.84,-13248.0,-8896.0,2432.0
1.8425,-13248.0,-8960.0,2432.0
1.845,-13248.0,-8896.0,2368.0
1.8475,-13248.0,-8832.0,2432.0
1.85,-13312.0,-8832.0,2496.0
1.8525,-13248.0,-8832.0,2496.0
1.855,-13312.0,-8768.0,2560.0
1.8575,-13248.0,-8832.0,2560.0
1.86,-13248.0,-8768.0,2560.0
1.8625,-13248.0,-8896.0,2624.0
1.865,-13248.0,-8832.0,2624.0
1.8675,-13312.0,-8960.0,2624.0
1.87,-13312.0,-8896.0,2688.0
1.8725,-13312.0,-8960.0,2624.0
1.875,-13376.0,-8960.0,2688.0
1.8775,-13440.0,-8960.0,2752.0
1.88,-13504.0,-9024.0,2688.0
1.8825,-13504.0,-9024.0,2688.0
1.885,-13568.0,-9088.0,2624.0
1.8875,-13504.0,-9088.0,2624.0
1.89,-13504.0,-9152.0,2560.0
1.8925,-13504.0,-9152.0,2560.0
1.895,-13568.0,-9152.0,2624.0
1.8975,-13568.0,-9216.0,2560.0
1.9,-13632.0,-9216.0,2560.0
1.9025,-13632.0,-9280.0,2560.0
1.905,-13696.0,-9280.0,2496.0
1.9075,-13760.0,-9344.0,2496.0
1.91,-13696.0,-9280.0,2496.0
1.9125,-13696.0,-9280.0,2560.0
1.915,-13760.0,-9344.0,2560.0
1.9175,-13760.0,-9344.0,2560.0
1.92,-13824.0,-9344.0,2560.0
1.9225,-13824.0,-9280.0,2432.0
1.925,-13824.0,-9280.0,2432.0
1.9275,-13888.0,-9344.0,2432.0
1.93,-13888.0,-9344.0,2432.0
1.9325,-13824.0,-9344.0,2496.0
1.935,-13824.0,-9408.0,2496.0
1.9375,-13824.0,-9280.0,2368.0
1.94,-13824.0,-9280.0,2368.0
1.9425,-13824.0,-9280.0,2304.0
1.945,-13824.0,-9280.0,2368.0
1.9475,-13824.0,-9280.0,2368.0
1.95,-13760.0,-9280.0,2432.0
1.9525,-13696.0,-9216.0,2432.0
1.955,-13696.0,-9152.0,2368.0
1.9575,-13696.0,-9088.0,2496.0
1.96,-13696.0,-9024.0,2496.0
1.9625,-13632.0,-9024.0,2496.0
1.965,-13568.0,-9024.0,2560.0
1.9675,-13568.0,-9088.0,2560.0
1.97,-13568.0,-9088.0,2560.0
1.9725,-13568.0,-9024.0,2496.0
1.975,-13504.0,-8960.0,2432.0
1.9775,-13504.0,-8960.0,2432.0
1.98,-13440.0,-8896.0,2496.0
1.9825,-13376.0,-8896.0,2496.0
1.985,-13440.0,-8896.0,2560.0
1.9875,-13440.0,-8832.0,2496.0
1.99,-13504.0,-8768.0,2496.0
1.9925,-13440.0,-8768.0,2496.0
1.995,-13376.0,-8832.0,2432.0
1.9975,-13376.0,-8768.0,2432.0
2.0,-13440.0,-8832.0,2432.0
2.0025,-13440.0,-8832.0,2432.0
2.005,-13440.0,-8768.0,2368.0
2.0075,-13504.0,-8832.0,2368.0
2.01,-13504.0,-8896.0,2368.0
2.0125,-13504.0,-8896.0,2368.0
2.015,-13440.0,-8960.0,2304.0
2.0175,-13440.0,-8896.0,2304.0
2.02,-13504.0,-8896.0,2304.0
2.0225,-13504.0,-8896.0,2176.0
2.025,-13568.0,-8832.0,2240.0
2.0275,-13504.0,-8896.0,2240.0
2.03,-13504.0,-8960.0,2304.0
2.0325,-13504.0,-8896.0,2368.0
2.035,-13504.0,-8896.0,2304.0
2.0375,-13504.0,-8896.0,2240.0
2.04,-13504.0,-8896.0,2304.0
2.0425,-13504.0,-8896.0,2304.0
2.045,-13504.0,-8896.0,2304.0
2.0475,-13568.0,-8896.0,2368.0
2.05,-13568.0,-8896.0,2304.0
2.0525,-13568.0,-8896.0,2304.0
2.055,-13504.0,-8896.0,2240.0
2.0575,-13632.0,-8896.0,2240.0
2.06,-13568.0,-8896.0,2240.0
2.0625,-13568.0,-8896.0,2240.0
2.065,-13568.0,-8896.0,2304.0
2.0675,-13568.0,-8896.0,2240.0
2.07,-13568.0,-8832.0,2368.0
2.0725,-13568.0,-8896.0,2368.0
2.075,-13568.0,-8896.0,2304.0
2.0775,-13568.0,-8960.0,2304.0
2.08,-13568.0,-8960.0,2432.0
2.0825,-13504.0,-8960.0,2368.0
2.085,-13504.0,-8960.0,2368.0
2.0875,-13504.0,-9024.0,2368.0
2.09,-13504.0,-9024.0,2368.0
2.0925,-13504.0,-8960.0,2304.0
2.095,-13504.0,-8960.0,2304.0
2.0975,-13504.0,-8960.0,2240.0
2.1,-13440.0,-8960.0,2240.0
2.1025,-13440.0,-9024.0,2176.0
2.105,-13376.0,-8960.0,2176.0
2.1075,-13376.0,-9024.0,2240.0
2.11,-13440.0,-9024.0,2304.0
2.1125,-13440.0,-8960.0,2304.0
2.115,-13376.0,-8960.0,2368.0
2.1175,-13312.0,-8960.0,2432.0
2.12,-13312.0,-8960.0,2368.0
2.1225,-13376.0,-8896.0,2432.0
2.125,-13376.0,-8960.0,2368.0
2.1275,-13312.0,-8960.0,2432.0
2.13,-13376.0,-8960.0,2432.0
2.1325,-13376.0,-8960.0,2432.0
2.135,-13312.0,-8960.0,2432.0
2.1375,-13312.0,-8960.0,2368.0
2.14,-13376.0,-8960.0,2432.0
2.1425,-13312.0,-8960.0,2432.0
2.145,-13376.0,-8960.0,2432.0
2.1475,-13376.0,-9024.0,2432.0
2.15,-13312.0,-8960.0,2432.0
2.1525,-13376.0,-8960.0,2368.0
2.155,-13376.0,-8960.0,2432.0
2.1575,-13376.0,-8960.0,2496.0
2.16,-13376.0,-8960.0,2496.0
2.1625,-13440.0,-8896.0,2432.0
2.165,-13376.0,-8960.0,2368.0
2.1675,-13376.0,-9024.0,2368.0
2.17,-13376.0,-9024.0,2496.0
2.1725,-13376.0,-9024.0,2368.0
2.175,-13440.0,-9024.0,2304.0
2.1775,-13376.0,-9024.0,2304.0
2.18,-13376.0,-9024.0,2240.0
2.1825,-13376.0,-8960.0,2304.0
2.185,-13440.0,-9024.0,2304.0
2.1875,-13376.0,-9024.0,2432.0
2.19,-13376.0,-8960.0,2368.0
2.1925,-13376.0,-9024.0,2368.0
2.195,-13376.0,-8960.0,2368.0
2.1975,-13312.0,-8960.0,2368.0
2.2,-13376.0,-9024.0,2432.0
2.2025,-13440.0,-9024.0,2368.0
2.205,-13376.0,-9088.0,2432.0
2.2075,-13376.0,-9024.0,2368.0
2.21,-13440.0,-9024.0,2368.0
2.2125,-13440.0,-8960.0,2368.0
2.215,-13440.0,-9024.0,2304.0
2.2175,-13440.0,-9024.0,2304.0
2.22,-13504.0,-9024.0,2304.0
2.2225,-13440.0,-9024.0,2304.0
2.225,-13440.0,-9024.0,2304.0
2.2275,-13440.0,-9024.0,2304.0
2.23,-13376.0,-8960.0,2304.0
2.2325,-13440.0,-8960.0,2240.0
2.235,-13504.0,-9024.0,2304.0
2.2375,-13568.0,-8960.0,2304.0
2.24,-13440.0,-8960.0,2304.0
2.2425,-13504.0,-9024.0,2368.0
2.245,-13440.0,-9088.0,2240.0
2.2475,-13440.0,-9024.0,2240.0
2.25,-13504.0,-9024.0,2176.0
2.2525,-13568.0,-9024.0,2176.0
2.255,-13504.0,-9088.0,2176.0
2.2575,-13504.0,-9024.0,2112.0
2.26,-13504.0,-8960.0,2176.0
2.2625,-13504.0,-9024.0,2176.0
2.265,-13504.0,-8960.0,2176.0
2.2675,-13632.0,-8960.0,2176.0
2.27,-13632.0,-9024.0,2112.0
2.2725,-13568.0,-9024.0,2048.0
2.275,-13568.0,-9024.0,2048.0
2.2775,-13568.0,-9024.0,2112.0
2.28,-13504.0,-8960.0,2048.0
2.2825,-13568.0,-8960.0,1984.0
2.285,-13568.0,-8896.0,1984.0
2.2875,-13632.0,-8960.0,1984.0
2.29,-13632.0,-8896.0,1984.0
2.2925,-13632.0,-8896.0,1984.0
2.295,-13632.0,-8832.0,1984.0
2.2975,-13568.0,-8832.0,2048.0
2.3,-13568.0,-8768.0,1984.0
2.3025,-13632.0,-8832.0,1920.0
2.305,-13568.0,-8832.0,1856.0
2.3075,-13568.0,-8832.0,1856.0
2.31,-13568.0,-8768.0,1920.0
2.3125,-13568.0,-8832.0,1856.0
2.315,-13632.0,-8832.0,1856.0
2.3175,-13632.0,-8832.0,1984.0
2.32,-13632.0,-8832.0,1920.0
2.3225,-13568.0,-8832.0,1920.0
2.325,-13568.0,-8832.0,1792.0
2.3275,-13632.0,-8832.0,1856.0
2.33,-13696.0,-8832.0,1920.0
2.3325,-13632.0,-8768.0,1920.0
2.335,-13696.0,-8768.0,1856.0
2.3375,-13696.0,-8768.0,1920.0
2.34,-13632.0,-8832.0,1920.0
2.3425,-13696.0,-8832.0,1920.0
2.345,-13632.0,-8768.0,1856.0
2.3475,-13632.0,-8768.0,1856.0
2.35,-13632.0,-8832.0,1792.0
2.3525,-13632.0,-8768.0,1792.0
2.355,-13632.0,-8832.0,1792.0
2.3575,-13696.0,-8832.0,1792.0
2.36,-13696.0,-8832.0,1792.0
2.3625,-13632.0,-8768.0,1728.0
2.365,-13632.0,-8832.0,1792.0
2.3675,-13568.0,-8832.0,1728.0
2.37,-13632.0,-8832.0,1792.0
2.3725,-13632.0,-8832.0,1856.0
2.375,-13632.0,-8768.0,1856.0
2.3775,-13696.0,-8768.0,1920.0
2.38,-13632.0,-8768.0,1920.0
2.3825,-13696.0,-8832.0,1984.0
2.385,-13696.0,-8832.0,1984.0
2.3875,-13632.0,-8768.0,2048.0
2.39,-13632.0,-8768.0,2048.0
2.3925,-13632.0,-8704.0,2240.0
2.395,-13696.0,-8704.0,2176.0
2.3975,-13696.0,-8768.0,2240.0
2.4,-13696.0,-8768.0,2240.0
2.4025,-13632.0,-8768.0,2240.0
2.405,-13696.0,-8768.0,2176.0
2.4075,-13632.0,-8704.0,2176.0
2.41,-13632.0,-8704.0,2240.0
2.4125,-13632.0,-8704.0,2176.0
2.415,-13568.0,-8704.0,2176.0
2.4175,-13568.0,-8704.0,2240.0
2.42,-13632.0,-8704.0,2304.0
2.4225,-13632.0,-8704.0,2368.0
2.425,-13632.0,-8704.0,2368.0
2.4275,-13568.0,-8768.0,2368.0
2.43,-13568.0,-8704.0,2368.0
2.4325,-13568.0,-8704.0,2432.0
2.435,-13568.0,-8704.0,2432.0
2.4375,-13568.0,-8768.0,2496.0
2.44,-13632.0,-8704.0,2496.0
2.4425,-13632.0,-8768.0,2496.0
2.445,-13568.0,-8704.0,2496.0
2.4475,-13568.0,-8704.0,2496.0
2.45,-13568.0,-8768.0,2560.0
2.4525,-13568.0,-8704.0,2560.0
2.455,-13632.0,-8768.0,2624.0
2.4575,-13632.0,-8768.0,2624.0
2.46,-13696.0,-8768.0,2624.0
2.4625,-13760.0,-8768.0,2688.0
2.465,-13760.0,-8704.0,2624.0
2.4675,-13760.0,-8768.0,2560.0
2.47,-13760.0,-8832.0,2560.0
2.4725,-13824.0,-8768.0,2560.0
2.475,-13888.0,-8832.0,2560.0
2.4775,-13824.0,-8832.0,2560.0
2.48,-13824.0,-8896.0,2560.0
2.4825,-13824.0,-8960.0,2560.0
2.485,-13824.0,-8960.0,2496.0
2.4875,-13824.0,-8896.0,2560.0
2.49,-13888.0,-8896.0,2560.0
2.4925,-13888.0,-8896.0,2560.0
2.495,-13824.0,-8960.0,2496.0
2.4975,-13824.0,-9024.0,2496.0
2.5,-13888.0,-8960.0,2560.0
2.5025,-13952.0,-8960.0,2560.0
2.505,-13824.0,-8960.0,2560.0
2.5075,-13824.0,-8896.0,2496.0
2.51,-13824.0,-8832.0,2496.0
2.5125,-13824.0,-8832.0,2496.0
2.515,-13824.0,-8896.0,2496.0
2.5175,-13760.0,-8896.0,2560.0
2.52,-13760.0,-8896.0,2560.0
2.5225,-13696.0,-8896.0,2560.0
2.525,-13632.0,-8896.0,2560.0
2.5275,-13696.0,-8896.0,2560.0
2.53,-13696.0,-8832.0,2496.0
2.5325,-13632.0,-8832.0,2560.0
2.535,-13696.0,-8896.0,2496.0
2.5375,-13696.0,-8896.0,2432.0
2.54,-13568.0,-8896.0,2432.0
2.5425,-13568.0,-8832.0,2432.0
2.545,-13632.0,-8832.0,2368.0
2.5475,-13568.0,-8896.0,2432.0
2.55,-13568.0,-8832.0,2496.0
2.5525,-13632.0,-8896.0,2496.0
2.555,-13568.0,-8832.0,2496.0
2.5575,-13568.0,-8768.0,2432.0
2.56,-13568.0,-8832.0,2496.0
2.5625,-13568.0,-8832.0,2432.0
2.565,-13568.0,-8832.0,2368.0
2.5675,-13504.0,-8832.0,2304.0
2.57,-13504.0,-8832.0,2368.0
2.5725,-13568.0,-8896.0,2432.0
2.575,-13568.0,-8896.0,2432.0
2.5775,-13568.0,-8832.0,2304.0
2.58,-13504.0,-8768.0,2304.0
2.5825,-13568.0,-8832.0,2368.0
2.585,-13504.0,-8832.0,2368.0
2.5875,-13504.0,-8832.0,2432.0
2.59,-13440.0,-8768.0,2368.0
2.5925,-13440.0,-8768.0,2368.0
2.595,-13504.0,-8832.0,2368.0
2.5975,-13504.0,-8832.0,2432.0
2.6,-13504.0,-8832.0,2304.0
2.6025,-13440.0,-8896.0,2368.0
2.605,-13440.0,-8768.0,2304.0
2.6075,-13440.0,-8832.0,2368.0
2.61,-13440.0,-8832.0,2432.0
2.6125,-13440.0,-8896.0,2368.0
2.615,-13440.0,-8832.0,2304.0
2.6175,-13440.0,-8768.0,2368.0
2.62,-13440.0,-8704.0,2368.0
2.6225,-13440.0,-8704.0,2304.0
2.625,-13376.0,-8832.0,2368.0
2.6275,-13376.0,-8832.0,2368.0
2.63,-13376.0,-8768.0,2432.0
2.6325,-13376.0,-8768.0,2368.0
2.635,-13376.0,-8704.0,2432.0
2.6375,-13312.0,-8832.0,2432.0
2.64,-13312.0,-8896.0,2432.0
2.6425,-13312.0,-8832.0,2368.0
2.645,-13312.0,-8768.0,2432.0
2.6475,-13248.0,-8832.0,2496.0
2.65,-13376.0,-8896.0,2560.0
2.6525,-13376.0,-8832.0,2432.0
2.655,-13440.0,-8768.0,2368.0
2.6575,-13376.0,-8832.0,2432.0
2.66,-13440.0,-8896.0,2496.0
2.6625,-13440.0,-8896.0,2432.0
2.665,-13440.0,-8896.0,2432.0
2.6675,-13440.0,-8832.0,2368.0
2.67,-13504.0,-8832.0,2304.0
2.6725,-13504.0,-8896.0,2240.0
2.675,-13504.0,-8896.0,2368.0
2.6775,-13504.0,-8960.0,2304.0
2.68,-13504.0,-8960.0,2304.0
2.6825,-13568.0,-8960.0,2304.0
2.685,-13568.0,-8960.0,2304.0
2.6875,-13568.0,-8960.0,2368.0
2.69,-13504.0,-8960.0,2304.0
2.6925,-13504.0,-8960.0,2368.0
2.695,-13504.0,-9024.0,2368.0
2.6975,-13568.0,-9088.0,2432.0
2.7,-13632.0,-9024.0,2432.0
2.7025,-13696.0,-9088.0,2368.0
2.705,-13696.0,-9088.0,2368.0
2.7075,-13696.0,-9088.0,2368.0
2.71,-13760.0,-9152.0,2368.0
2.7125,-13760.0,-9088.0,2368.0
2.715,-13696.0,-9152.0,2304.0
2.7175,-13760.0,-9088.0,2304.0
2.72,-13888.0,-9152.0,2304.0
2.7225,-13888.0,-9152.0,2304.0
2.725,-13888.0,-9152.0,2304.0
2.7275,-13952.0,-9152.0,2304.0
2.73,-13952.0,-9152.0,2176.0
2.7325,-13952.0,-9216.0,2240.0
2.735,-13952.0,-9216.0,2240.0
2.7375,-13952.0,-9216.0,2240.0
2.74,-13952.0,-9280.0,2304.0
2.7425,-13952.0,-9216.0,2368.0
2.745,-13952.0,-9216.0,2304.0
2.7475,-13952.0,-9280.0,2304.0
2.75,-13952.0,-9216.0,2368.0
2.7525,-13888.0,-9216.0,2368.0
2.755,-13824.0,-9216.0,2432.0
2.7575,-13760.0,-9152.0,2432.0
2.76,-13760.0,-9152.0,2432.0
2.7625,-13760.0,-9280.0,2496.0
2.765,-13760.0,-9280.0,2496.0
2.7675,-13696.0,-9344.0,2624.0
2.77,-13760.0,-9344.0,2560.0
2.7725,-13696.0,-9280.0,2560.0
2.775,-13696.0,-9280.0,2496.0
2.7775,-13568.0,-9280.0,2496.0
2.78,-13632.0,-9216.0,2496.0
2.7825,-13632.0,-9280.0,2432.0
2.785,-13568.0,-9216.0,2432.0
2.7875,-13504.0,-9280.0,2368.0
2.79,-13440.0,-9216.0,2432.0
2.7925,-13504.0,-9152.0,2496.0
2.795,-13504.0,-9216.0,2432.0
2.7975,-13440.0,-9216.0,2432.0
2.8,-13376.0,-9152.0,2560.0
2.8025,-13376.0,-9280.0,2496.0
2.805,-13376.0,-9280.0,2496.0
2.8075,-13312.0,-9280.0,2496.0
2.81,-13376.0,-9280.0,2496.0
2.8125,-13312.0,-9280.0,2560.0
2.815,-13312.0,-9344.0,2496.0
2.8175,-13248.0,-9280.0,2432.0
2.82,-13248.0,-9280.0,2432.0
2.8225,-13248.0,-9216.0,2432.0
2.825,-13312.0,-9280.0,2496.0
2.8275,-13248.0,-9280.0,2496.0
2.83,-13312.0,-9216.0,2496.0
2.8325,-13248.0,-9216.0,2432.0
2.835,-13248.0,-9216.0,2496.0
2.8375,-13248.0,-9152.0,2496.0
2.84,-13184.0,-9216.0,2496.0
2.8425,-13184.0,-9152.0,2496.0
2.845,-13248.0,-9216.0,2432.0
2.8475,-13248.0,-9216.0,2432.0
2.85,-13248.0,-9216.0,2432.0
2.8525,-13248.0,-9216.0,2432.0
2.855,-13248.0,-9152.0,2432.0
2.8575,-13248.0,-9152.0,2432.0
2.86,-13248.0,-9088.0,2432.0
2.8625,-13248.0,-9088.0,2432.0
2.865,-13184.0,-9088.0,2496.0
2.8675,-13248.0,-9088.0,2496.0
2.87,-13184.0,-9088.0,2496.0
2.8725,-13184.0,-9152.0,2496.0
2.875,-13184.0,-9152.0,2496.0
2.8775,-13120.0,-9088.0,2496.0
2.88,-13248.0,-9024.0,2560.0
2.8825,-13120.0,-9216.0,2560.0
2.885,-13184.0,-9216.0,2496.0
2.8875,-13184.0,-9088.0,2496.0
2.89,-13184.0,-9024.0,2432.0
2.8925,-13184.0,-9024.0,2432.0
2.895,-13184.0,-9024.0,2432.0
2.8975,-13056.0,-9024.0,2432.0
2.9,-13056.0,-9088.0,2368.0
2.9025,-13120.0,-9024.0,2368.0
2.905,-13184.0,-9024.0,2496.0
2.9075,-13248.0,-9024.0,2496.0
2.91,-13184.0,-9088.0,2432.0
2.9125,-13248.0,-9024.0,2432.0
2.915,-13184.0,-9024.0,2368.0
2.9175,-13248.0,-9024.0,2432.0
2.92,-13312.0,-9024.0,2368.0
2.9225,-13376.0,-9024.0,2368.0
2.925,-13312.0,-9024.0,2496.0
2.9275,-13312.0,-9024.0,2560.0
2.93,-13376.0,-9024.0,2432.0
2.9325,-13440.0,-9024.0,2432.0
2.935,-13440.0,-8960.0,2432.0
2.9375,-13440.0,-8960.0,2496.0
2.94,-13504.0,-8960.0,2560.0
2.9425,-13504.0,-9024.0,2624.0
2.945,-13504.0,-9088.0,2560.0
2.9475,-13504.0,-9152.0,2496.0
2.95,-13504.0,-9152.0,2496.0
2.9525,-13504.0,-9088.0,2432.0
2.955,-13568.0,-9088.0,2432.0
2.9575,-13568.0,-9152.0,2432.0
2.96,-13504.0,-9152.0,2496.0
2.9625,-13504.0,-9152.0,2496.0
2.965,-13504.0,-9152.0,2432.0
2.9675,-13504.0,-9152.0,2432.0
2.97,-13568.0,-9152.0,2368.0
2.9725,-13504.0,-9152.0,2432.0
2.975,-13504.0,-9152.0,2496.0
2.9775,-13504.0,-9216.0,2368.0
2.98,-13440.0,-9216.0,2432.0
2.9825,-13440.0,-9216.0,2560.0
2.985,-13440.0,-9152.0,2560.0
2.9875,-13376.0,-9152.0,2560.0
2.99,-13312.0,-9088.0,2560.0
2.9925,-13248.0,-9152.0,2560.0
2.995,-13248.0,-9216.0,2624.0
2.9975,-13248.0,-9152.0,2560.0
3.0,-13312.0,-9152.0,2560.0
3.0025,-13184.0,-9152.0,2560.0
3.005,-13248.0,-9152.0,2496.0
3.0075,-13248.0,-9280.0,2432.0
3.01,-13184.0,-9216.0,2496.0
3.0125,-13184.0,-9152.0,2432.0
3.015,-13120.0,-9152.0,2432.0
3.0175,-13120.0,-9152.0,2560.0
3.02,-13056.0,-9152.0,2624.0
3.0225,-13056.0,-9216.0,2624.0
3.025,-13056.0,-9216.0,2624.0
3.0275,-12992.0,-9216.0,2560.0
3.03,-12992.0,-9152.0,2624.0
3.0325,-12928.0,-9152.0,2688.0
3.035,-12864.0,-9216.0,2688.0
3.0375,-12800.0,-9216.0,2560.0
3.04,-12736.0,-9216.0,2688.0
3.0425,-12736.0,-9152.0,2560.0
3.045,-12672.0,-9152.0,2560.0
3.0475,-12672.0,-9216.0,2624.0
3.05,-12608.0,-9216.0,2560.0
3.0525,-12608.0,-9216.0,2624.0
3.055,-12608.0,-9152.0,2560.0
3.0575,-12608.0,-9216.0,2560.0
3.06,-12608.0,-9216.0,2560.0
3.0625,-12608.0,-9216.0,2560.0
3.065,-12672.0,-9280.0,2560.0
3.0675,-12736.0,-9280.0,2560.0
3.07,-12736.0,-9280.0,2560.0
3.0725,-12736.0,-9280.0,2496.0
3.075,-12736.0,-9280.0,2432.0
3.0775,-12736.0,-9344.0,2368.0
3.08,-12800.0,-9216.0,2496.0
3.0825,-12800.0,-9280.0,2496.0
3.085,-12864.0,-9280.0,2496.0
3.0875,-12864.0,-9280.0,2496.0
3.09,-12992.0,-9280.0,2560.0
3.0925,-13056.0,-9280.0,2560.0
3.095,-13056.0,-9408.0,2560.0
3.0975,-13120.0,-9408.0,2560.0
3.1,-13184.0,-9472.0,2560.0
3.1025,-13184.0,-9472.0,2560.0
3.105,-13248.0,-9472.0,2496.0
3.1075,-13312.0,-9472.0,2496.0
3.11,-13248.0,-9536.0,2496.0
3.1125,-13312.0,-9536.0,2496.0
3.115,-13376.0,-9536.0,2496.0
3.1175,-13376.0,-9536.0,2560.0
3.12,-13504.0,-9472.0,2496.0
3.1225,-13504.0,-9536.0,2560.0
3.125,-13504.0,-9536.0,2496.0
3.1275,-13632.0,-9600.0,2496.0
3.13,-13568.0,-9536.0,2496.0
3.1325,-13632.0,-9536.0,2496.0
3.135,-13632.0,-9536.0,2560.0
3.1375,-13632.0,-9600.0,2560.0
3.14,-13696.0,-9600.0,2560.0
3.1425,-13696.0,-9664.0,2688.0
3.145,-13696.0,-9664.0,2624.0
3.1475,-13696.0,-9664.0,2752.0
3.15,-13696.0,-9664.0,2752.0
3.1525,-13696.0,-9728.0,2752.0
3.155,-13760.0,-9792.0,2816.0
3.1575,-13696.0,-9856.0,2816.0
3.16,-13696.0,-9792.0,2816.0
3.1625,-13696.0,-9792.0,2816.0
3.165,-13696.0,-9856.0,2816.0
3.1675,-13568.0,-9792.0,2880.0
3.17,-13568.0,-9856.0,2880.0
3.1725,-13504.0,-9856.0,2816.0
3.175,-13440.0,-9792.0,2880.0
3.1775,-13440.0,-9792.0,2880.0
3.18,-13376.0,-9728.0,2816.0
3.1825,-13376.0,-9792.0,2880.0
3.185,-13376.0,-9856.0,2880.0
3.1875,-13312.0,-9792.0,3008.0
3.19,-13184.0,-9664.0,3008.0
3.1925,-13056.0,-9664.0,3072.0
3.195,-12992.0,-9600.0,3072.0
3.1975,-12928.0,-9536.0,3136.0
3.2,-12864.0,-9664.0,3072.0
3.2025,-12928.0,-9792.0,3072.0
3.205,-12864.0,-9792.0,3136.0
3.2075,-12800.0,-9728.0,3136.0
3.21,-12736.0,-9792.0,3136.0
3.2125,-12672.0,-9664.0,3200.0
3.215,-12608.0,-9600.0,3200.0
3.2175,-12544.0,-9600.0,3200.0
3.22,-12480.0,-9664.0,3264.0
3.2225,-12480.0,-9792.0,3328.0
3.225,-12544.0,-9792.0,3328.0
3.2275,-12544.0,-9792.0,3328.0
3.23,-12608.0,-9664.0,3456.0
3.2325,-12544.0,-9600.0,3456.0
3.235,-12544.0,-9536.0,3456.0
3.2375,-12480.0,-9536.0,3456.0
3.24,-12544.0,-9664.0,3456.0
3.2425,-12608.0,-9728.0,3456.0
3.245,-12608.0,-9728.0,3328.0
3.2475,-12608.0,-9664.0,3392.0
3.25,-12608.0,-9600.0,3392.0
3.2525,-12608.0,-9536.0,3392.0
3.255,-12544.0,-9536.0,3328.0
3.2575,-12544.0,-9600.0,3328.0
3.26,-12544.0,-9600.0,3392.0
3.2625,-12544.0,-9536.0,3328.0
3.265,-12480.0,-9536.0,3392.0
3.2675,-12480.0,-9536.0,3392.0
3.27,-12416.0,-9600.0,3392.0
3.2725,-12416.0,-9536.0,3392.0
3.275,-12352.0,-9600.0,3392.0
3.2775,-12352.0,-9664.0,3328.0
3.28,-12288.0,-9664.0,3392.0
3.2825,-12224.0,-9728.0,3392.0
3.285,-12160.0,-9792.0,3328.0
3.2875,-12160.0,-9856.0,3264.0
3.29,-12224.0,-9792.0,3264.0
3.2925,-12224.0,-9728.0,3264.0
3.295,-12096.0,-9728.0,3392.0
3.2975,-12032.0,-9792.0,3392.0
3.3,-12160.0,-9792.0,3328.0
3.3025,-12160.0,-9792.0,3264.0
3.305,-12160.0,-9792.0,3264.0
3.3075,-12160.0,-9792.0,3264.0
3.31,-12160.0,-9792.0,3200.0
3.3125,-12096.0,-9920.0,3200.0
3.315,-12160.0,-9984.0,3200.0
3.3175,-12224.0,-9984.0,3200.0
3.32,-12288.0,-10048.0,3200.0
3.3225,-12288.0,-9984.0,3200.0
3.325,-12416.0,-9984.0,3200.0
3.3275,-12416.0,-9984.0,3200.0
3.33,-12480.0,-9984.0,3136.0
3.3325,-12544.0,-10048.0,3200.0
3.335,-12608.0,-9984.0,3072.0
3.3375,-12736.0,-9920.0,3072.0
3.34,-12800.0,-9920.0,3072.0
3.3425,-12928.0,-9920.0,3008.0
3.345,-13056.0,-9920.0,2944.0
3.3475,-13184.0,-9856.0,2944.0
3.35,-13248.0,-9856.0,2880.0
3.3525,-13440.0,-9856.0,2944.0
3.355,-13440.0,-9920.0,2880.0
3.3575,-13504.0,-9856.0,2944.0
3.36,-13696.0,-9920.0,2880.0
3.3625,-13824.0,-9856.0,2880.0
3.365,-13824.0,-9856.0,2880.0
3.3675,-13888.0,-9856.0,2944.0
3.37,-13888.0,-9920.0,2880.0
3.3725,-13952.0,-9920.0,2944.0
3.375,-13888.0,-9920.0,2880.0
3.3775,-13824.0,-9856.0,2880.0
3.38,-13888.0,-9920.0,2880.0
3.3825,-13824.0,-9856.0,2816.0
3.385,-13760.0,-9920.0,2880.0
3.3875,-13696.0,-9920.0,2880.0
3.39,-13632.0,-9984.0,2944.0
3.3925,-13632.0,-9984.0,2880.0
3.395,-13568.0,-9920.0,2944.0
3.3975,-13504.0,-9920.0,2944.0
3.4,-13440.0,-9920.0,3008.0
3.4025,-13312.0,-9920.0,3008.0
3.405,-13248.0,-9856.0,3008.0
3.4075,-13120.0,-9856.0,2944.0
3.41,-13056.0,-9792.0,3072.0
3.4125,-12992.0,-9728.0,3072.0
3.415,-12928.0,-9664.0,3072.0
3.4175,-12928.0,-9728.0,3072.0
3.42,-12992.0,-9728.0,3072.0
3.4225,-12928.0,-9664.0,3008.0
3.425,-12928.0,-9728.0,3008.0
3.4275,-12928.0,-9728.0,2944.0
3.43,-12992.0,-9728.0,2880.0
3.4325,-13056.0,-9792.0,2816.0
3.435,-13120.0,-9792.0,2816.0
3.4375,-13120.0,-9792.0,2816.0
3.44,-13248.0,-9856.0,2816.0
3.4425,-13312.0,-9856.0,2688.0
3.445,-13440.0,-9856.0,2688.0
3.4475,-13568.0,-9856.0,2624.0
3.45,-13568.0,-9856.0,2624.0
3.4525,-13632.0,-9792.0,2688.0
3.455,-13760.0,-9856.0,2624.0
3.4575,-13824.0,-9728.0,2560.0
3.46,-13952.0,-9792.0,2560.0
3.4625,-14016.0,-9792.0,2624.0
3.465,-13952.0,-9792.0,2688.0
3.4675,-14016.0,-9792.0,2688.0
3.47,-14016.0,-9792.0,2688.0
3.4725,-14016.0,-9728.0,2816.0
3.475,-13952.0,-9728.0,2752.0
3.4775,-13888.0,-9728.0,2752.0
3.48,-13824.0,-9728.0,2816.0
3.4825,-13760.0,-9664.0,2752.0
3.485,-13696.0,-9600.0,2752.0
3.4875,-13696.0,-9536.0,2816.0
3.49,-13632.0,-9536.0,2816.0
3.4925,-13504.0,-9472.0,2816.0
3.495,-13440.0,-9408.0,2816.0
3.4975,-13440.0,-9408.0,2752.0
3.5,-13376.0,-9344.0,2816.0
3.5025,-13312.0,-9344.0,2688.0
3.505,-13248.0,-9344.0,2752.0
3.5075,-13184.0,-9280.0,2752.0
3.51,-13120.0,-9216.0,2816.0
3.5125,-13056.0,-9280.0,2752.0
3.515,-13056.0,-9280.0,2688.0
3.5175,-13120.0,-9216.0,2688.0
3.52,-13056.0,-9152.0,2752.0
3.5225,-13056.0,-9088.0,2688.0
3.525,-12992.0,-9024.0,2624.0
3.5275,-13056.0,-9024.0,2624.0
3.53,-13056.0,-9024.0,2624.0
3.5325,-13120.0,-9024.0,2624.0
3.535,-13056.0,-8960.0,2560.0
3.5375,-13184.0,-8960.0,2560.0
3.54,-13248.0,-9024.0,2496.0
3.5425,-13312.0,-8960.0,2560.0
3.545,-13376.0,-8960.0,2496.0
3.5475,-13504.0,-8896.0,2432.0
3.55,-13568.0,-8896.0,2496.0
3.5525,-13696.0,-8832.0,2432.0
3.555,-13824.0,-8832.0,2368.0
3.5575,-13888.0,-8768.0,2368.0
3.56,-14016.0,-8832.0,2368.0
3.5625,-14144.0,-8832.0,2240.0
3.565,-14208.0,-8896.0,2176.0
3.5675,-14400.0,-8896.0,2176.0
3.57,-14464.0,-8896.0,2112.0
3.5725,-14464.0,-8960.0,1920.0
3.575,-14592.0,-9024.0,1920.0
3.5775,-14656.0,-9024.0,1856.0
3.58,-14720.0,-8960.0,1792.0
3.5825,-14784.0,-9024.0,1728.0
3.585,-14848.0,-9024.0,1600.0
3.5875,-14912.0,-9088.0,1600.0
3.59,-14976.0,-9088.0,1536.0
3.5925,-14976.0,-9088.0,1600.0
3.595,-14976.0,-9152.0,1536.0
3.5975,-15040.0,-9152.0,1472.0
3.6,-14976.0,-9088.0,1472.0
3.6025,-14976.0,-9152.0,1472.0
3.605,-14976.0,-9152.0,1536.0
3.6075,-15040.0,-9152.0,1536.0
3.61,-15040.0,-9152.0,1472.0
3.6125,-14976.0,-9152.0,1600.0
3.615,-14912.0,-9152.0,1472.0
3.6175,-14976.0,-9216.0,1472.0
3.62,-14912.0,-9216.0,1472.0
3.6225,-14912.0,-9088.0,1472.0
3.625,-14912.0,-9088.0,1472.0
3.6275,-14784.0,-9088.0,1472.0
3.63,-14784.0,-8960.0,1408.0
3.6325,-14720.0,-8960.0,1408.0
3.635,-14720.0,-8960.0,1472.0
3.6375,-14656.0,-8896.0,1536.0
3.64,-14656.0,-8896.0,1600.0
3.6425,-14464.0,-8832.0,1600.0
3.645,-14400.0,-8896.0,1536.0
3.6475,-14400.0,-8896.0,1472.0
3.65,-14336.0,-8832.0,1536.0
3.6525,-14208.0,-8832.0,1536.0
3.655,-14144.0,-8768.0,1600.0
3.6575,-14080.0,-8832.0,1600.0
3.66,-14080.0,-8832.0,1664.0
3.6625,-14080.0,-8768.0,1664.0
3.665,-14016.0,-8832.0,1792.0
3.6675,-14016.0,-8768.0,1728.0
3.67,-13952.0,-8768.0,1792.0
3.6725,-13888.0,-8704.0,1856.0
3.675,-13888.0,-8768.0,1920.0
3.6775,-13824.0,-8704.0,1920.0
3.68,-13760.0,-8704.0,1920.0
3.6825,-13760.0,-8704.0,1984.0
3.685,-13824.0,-8768.0,1920.0
3.6875,-13760.0,-8768.0,1984.0
3.69,-13824.0,-8768.0,1984.0
3.6925,-13696.0,-8832.0,1920.0
3.695,-13696.0,-8832.0,1856.0
3.6975,-13632.0,-8832.0,1792.0
3.7,-13632.0,-8832.0,1792.0
3.7025,-13568.0,-8832.0,1856.0
3.705,-13504.0,-8832.0,1920.0
3.7075,-13568.0,-8832.0,1984.0
3.71,-13568.0,-8832.0,1920.0
3.7125,-13504.0,-8896.0,1984.0
3.715,-13504.0,-8832.0,1984.0
3.7175,-13504.0,-8832.0,2048.0
3.72,-13440.0,-8832.0,2048.0
3.7225,-13440.0,-8832.0,2048.0
3.725,-13504.0,-8832.0,2176.0
3.7275,-13440.0,-8832.0,2112.0
3.73,-13440.0,-8832.0,2240.0
3.7325,-13440.0,-8832.0,2240.0
3.735,-13376.0,-8832.0,2176.0
3.7375,-13376.0,-8768.0,2176.0
3.74,-13376.0,-8768.0,2240.0
3.7425,-13376.0,-8768.0,2304.0
3.745,-13440.0,-8768.0,2304.0
3.7475,-13440.0,-8768.0,2304.0
3.75,-13376.0,-8832.0,2368.0
3.7525,-13376.0,-8896.0,2432.0
3.755,-13440.0,-8896.0,2368.0
3.7575,-13376.0,-8960.0,2368.0
3.76,-13312.0,-8960.0,2368.0
3.7625,-13376.0,-8960.0,2304.0
3.765,-13312.0,-9024.0,2368.0
3.7675,-13248.0,-9024.0,2368.0
3.77,-13312.0,-9088.0,2304.0
3.7725,-13376.0,-9088.0,2368.0
3.775,-13440.0,-9088.0,2368.0
3.7775,-13312.0,-9152.0,2368.0
3.78,-13312.0,-9152.0,2304.0
3.7825,-13248.0,-9088.0,2368.0
3.785,-13184.0,-9088.0,2432.0
3.7875,-13120.0,-9088.0,2496.0
3.79,-13184.0,-9088.0,2432.0
3.7925,-13120.0,-9088.0,2432.0
3.795,-13056.0,-9088.0,2560.0
3.7975,-13056.0,-9152.0,2560.0
3.8,-13056.0,-9152.0,2560.0
3.8025,-13056.0,-9152.0,2560.0
3.805,-13120.0,-9152.0,2560.0
3.8075,-13120.0,-9152.0,2624.0
3.81,-13184.0,-9088.0,2688.0
3.8125,-13120.0,-9088.0,2688.0
3.815,-13056.0,-9088.0,2688.0
3.8175,-13120.0,-9152.0,2688.0
3.82,-12992.0,-9152.0,2752.0
3.8225,-13056.0,-9216.0,2752.0
3.825,-12992.0,-9216.0,2688.0
3.8275,-13056.0,-9216.0,2752.0
3.83,-13056.0,-9216.0,2752.0
3.8325,-12992.0,-9216.0,2688.0
3.835,-12992.0,-9280.0,2688.0
3.8375,-12928.0,-9280.0,2688.0
3.84,-12864.0,-9344.0,2688.0
3.8425,-12800.0,-9344.0,2752.0
3.845,-12736.0,-9472.0,2688.0
3.8475,-12736.0,-9472.0,2752.0
3.85,-12672.0,-9472.0,2624.0
3.8525,-12608.0,-9408.0,2688.0
3.855,-12544.0,-9344.0,2688.0
3.8575,-12480.0,-9408.0,2688.0
3.86,-12480.0,-9408.0,2688.0
3.8625,-12416.0,-9472.0,2752.0
3.865,-12416.0,-9472.0,2752.0
3.8675,-12480.0,-9536.0,2816.0
3.87,-12416.0,-9536.0,2688.0
3.8725,-12416.0,-9536.0,2752.0
3.875,-12416.0,-9536.0,2816.0
3.8775,-12416.0,-9472.0,2816.0
3.88,-12416.0,-9472.0,2752.0
3.8825,-12416.0,-9472.0,2688.0
3.885,-12480.0,-9536.0,2688.0
3.8875,-12480.0,-9536.0,2688.0
3.89,-12544.0,-9536.0,2688.0
3.8925,-12544.0,-9600.0,2688.0
3.895,-12608.0,-9600.0,2688.0
3.8975,-12672.0,-9600.0,2688.0
3.9,-12672.0,-9600.0,2688.0
3.9025,-12736.0,-9600.0,2688.0
3.905,-12736.0,-9664.0,2752.0
3.9075,-12736.0,-9600.0,2816.0
3.91,-12736.0,-9536.0,2688.0
3.9125,-12736.0,-9600.0,2752.0
3.915,-12736.0,-9600.0,2752.0
3.9175,-12800.0,-9536.0,2688.0
3.92,-12736.0,-9600.0,2688.0
3.9225,-12736.0,-9600.0,2688.0
3.925,-12672.0,-9536.0,2624.0
3.9275,-12672.0,-9600.0,2688.0
3.93,-12672.0,-9664.0,2624.0
3.9325,-12672.0,-9664.0,2624.0
3.935,-12672.0,-9728.0,2624.0
3.9375,-12608.0,-9664.0,2560.0
3.94,-12544.0,-9664.0,2560.0
3.9425,-12608.0,-9664.0,2624.0
3.945,-12608.0,-9664.0,2560.0
3.9475,-12608.0,-9728.0,2560.0
3.95,-12608.0,-9728.0,2624.0
3.9525,-12608.0,-9728.0,2624.0
3.955,-12672.0,-9792.0,2624.0
3.9575,-12672.0,-9856.0,2624.0
3.96,-12736.0,-9920.0,2624.0
3.9625,-12736.0,-9920.0,2560.0
3.965,-12800.0,-9984.0,2624.0
3.9675,-12864.0,-9984.0,2624.0
3.97,-12928.0,-10048.0,2560.0
3.9725,-12992.0,-10048.0,2624.0
3.975,-12992.0,-10048.0,2624.0
3.9775,-13056.0,-10048.0,2624.0
3.98,-13120.0,-10048.0,2624.0
3.9825,-13184.0,-10112.0,2624.0
3.985,-13184.0,-10240.0,2560.0
3.9875,-13248.0,-10176.0,2560.0
3.99,-13248.0,-10240.0,2560.0
3.9925,-13248.0,-10240.0,2496.0
3.995,-13312.0,-10176.0,2432.0
3.9975,-13312.0,-10240.0,2432.0
4.0,-13504.0,-10304.0,2624.0
4.0025,-13504.0,-10368.0,2496.0
4.005,-13440.0,-10432.0,2432.0
4.0075,-13504.0,-10432.0,2496.0
4.01,-13568.0,-10560.0,2560.0
4.0125,-13632.0,-10560.0,2560.0
4.015,-13632.0,-10560.0,2560.0
4.0175,-13696.0,-10560.0,2496.0
4.02,-13696.0,-10560.0,2496.0
4.0225,-13760.0,-10624.0,2560.0
4.025,-13824.0,-10560.0,2560.0
4.0275,-13824.0,-10560.0,2624.0
4.03,-13952.0,-10624.0,2624.0
4.0325,-14016.0,-10624.0,2496.0
4.035,-14016.0,-10624.0,2560.0
4.0375,-14144.0,-10624.0,2496.0
4.04,-14144.0,-10688.0,2496.0
4.0425,-14144.0,-10688.0,2432.0
4.045,-14208.0,-10688.0,2496.0
4.0475,-14208.0,-10688.0,2432.0
4.05,-14272.0,-10816.0,2432.0
4.0525,-14272.0,-10752.0,2432.0
4.055,-14336.0,-10752.0,2368.0
4.0575,-14272.0,-10816.0,2432.0
4.06,-14272.0,-10752.0,2432.0
4.0625,-14336.0,-10752.0,2496.0
4.065,-14336.0,-10752.0,2432.0
4.0675,-14272.0,-10752.0,2432.0
4.07,-14272.0,-10624.0,2432.0
4.0725,-14208.0,-10624.0,2368.0
4.075,-14208.0,-10624.0,2496.0
4.0775,-14208.0,-10688.0,2496.0
4.08,-14208.0,-10560.0,2560.0
4.0825,-14144.0,-10560.0,2496.0
4.085,-14208.0,-10624.0,2496.0
4.0875,-14144.0,-10560.0,2560.0
4.09,-14080.0,-10560.0,2560.0
4.0925,-14016.0,-10496.0,2560.0
4.095,-14016.0,-10560.0,2560.0
4.0975,-13952.0,-10560.0,2496.0
4.1,-13824.0,-10496.0,2624.0
4.1025,-13824.0,-10496.0,2624.0
4.105,-13760.0,-10496.0,2688.0
4.1075,-13696.0,-10368.0,2688.0
4.11,-13632.0,-10368.0,2752.0
4.1125,-13504.0,-10368.0,2688.0
4.115,-13440.0,-10304.0,2688.0
4.1175,-13376.0,-10240.0,2688.0
4.12,-13376.0,-10240.0,2624.0
4.1225,-13248.0,-10240.0,2624.0
4.125,-13184.0,-10240.0,2560.0
4.1275,-13056.0,-10176.0,2624.0
4.13,-12992.0,-10176.0,2560.0
4.1325,-12928.0,-10176.0,2560.0
4.135,-12800.0,-10112.0,2560.0
4.1375,-12736.0,-10112.0,2560.0
4.14,-12608.0,-10048.0,2496.0
4.1425,-12544.0,-10048.0,2496.0
4.145,-12480.0,-10048.0,2560.0
4.1475,-12352.0,-9984.0,2624.0
4.15,-12224.0,-9920.0,2624.0
4.1525,-12160.0,-9920.0,2624.0
4.155,-12160.0,-9920.0,2624.0
4.1575,-12096.0,-9984.0,2624.0
4.16,-11904.0,-9984.0,2688.0
4.1625,-11840.0,-9920.0,2688.0
4.165,-11712.0,-9856.0,2688.0
4.1675,-11584.0,-9984.0,2752.0
4.17,-11520.0,-9856.0,2752.0
4.1725,-11392.0,-9920.0,2752.0
4.175,-11328.0,-9920.0,2688.0
4.1775,-11200.0,-9856.0,2688.0
4.18,-11200.0,-9856.0,2752.0
4.1825,-11072.0,-9792.0,2752.0
4.185,-11008.0,-9792.0,2688.0
4.1875,-10944.0,-9728.0,2624.0
4.19,-10880.0,-9600.0,2624.0
4.1925,-10880.0,-9664.0,2624.0
4.195,-10880.0,-9600.0,2688.0
4.1975,-10816.0,-9664.0,2688.0
4.2,-10752.0,-9664.0,2752.0
4.2025,-10752.0,-9792.0,2752.0
4.205,-10752.0,-9728.0,2752.0
4.2075,-10752.0,-9600.0,2752.0
4.21,-10752.0,-9664.0,2752.0
4.2125,-10816.0,-9600.0,2816.0
4.215,-10816.0,-9536.0,2752.0
4.2175,-10816.0,-9600.0,2816.0
4.22,-10816.0,-9600.0,2816.0
4.2225,-10880.0,-9600.0,2752.0
4.225,-10880.0,-9664.0,2688.0
4.2275,-10880.0,-9664.0,2624.0
4.23,-10880.0,-9664.0,2688.0
4.2325,-10880.0,-9664.0,2688.0
4.235,-10880.0,-9664.0,2624.0
4.2375,-10944.0,-9664.0,2624.0
4.24,-11072.0,-9728.0,2560.0
4.2425,-11072.0,-9728.0,2496.0
4.245,-11072.0,-9728.0,2560.0
4.2475,-11072.0,-9728.0,2496.0
4.25,-11072.0,-9728.0,2560.0
4.2525,-11072.0,-9856.0,2496.0
4.255,-11136.0,-9792.0,2432.0
4.2575,-11200.0,-9728.0,2432.0
4.26,-11136.0,-9728.0,2432.0
4.2625,-11200.0,-9792.0,2368.0
4.265,-11200.0,-9792.0,2368.0
4.2675,-11264.0,-9728.0,2432.0
4.27,-11264.0,-9792.0,2368.0
4.2725,-11328.0,-9728.0,2304.0
4.275,-11392.0,-9728.0,2368.0
4.2775,-11392.0,-9728.0,2432.0
4.28,-11456.0,-9728.0,2432.0
4.2825,-11520.0,-9664.0,2368.0
4.285,-11584.0,-9728.0,2368.0
4.2875,-11712.0,-9728.0,2496.0
4.29,-11776.0,-9728.0,2368.0
4.2925,-11840.0,-9728.0,2432.0
4.295,-11904.0,-9728.0,2432.0
4.2975,-12032.0,-9728.0,2368.0
4.3,-12032.0,-9792.0,2368.0
4.3025,-12096.0,-9792.0,2368.0
4.305,-12160.0,-9792.0,2304.0
4.3075,-12224.0,-9856.0,2304.0
4.31,-12288.0,-9856.0,2304.0
4.3125,-12352.0,-9920.0,2304.0
4.315,-12416.0,-9984.0,2240.0
4.3175,-12480.0,-9984.0,2240.0
4.32,-12608.0,-10048.0,2304.0
4.3225,-12672.0,-10112.0,2304.0
4.325,-12736.0,-10112.0,2240.0
4.3275,-12800.0,-10112.0,2304.0
4.33,-12864.0,-10176.0,2240.0
4.3325,-12928.0,-10176.0,2176.0
4.335,-12928.0,-10176.0,2176.0
4.3375,-12928.0,-10176.0,2240.0
4.34,-12864.0,-10176.0,2176.0
4.3425,-12992.0,-10240.0,2176.0
4.345,-12992.0,-10240.0,2240.0
4.3475,-13056.0,-10304.0,2304.0
4.35,-13056.0,-10304.0,2304.0
4.3525,-12992.0,-10368.0,2240.0
4.355,-12992.0,-10368.0,2304.0
4.3575,-12928.0,-10368.0,2240.0
4.36,-12928.0,-10304.0,2240.0
4.3625,-12864.0,-10304.0,2240.0
4.365,-12864.0,-10368.0,2304.0
4.3675,-12864.0,-10368.0,2368.0
4.37,-12864.0,-10368.0,2368.0
4.3725,-12800.0,-10304.0,2304.0
4.375,-12736.0,-10368.0,2240.0
4.3775,-12736.0,-10368.0,2240.0
4.38,-12672.0,-10240.0,2304.0
4.3825,-12608.0,-10240.0,2304.0
4.385,-12544.0,-10240.0,2240.0
4.3875,-12544.0,-10112.0,2368.0
4.39,-12608.0,-10112.0,2368.0
4.3925,-12544.0,-10112.0,2368.0
4.395,-12544.0,-10048.0,2368.0
4.3975,-12480.0,-10048.0,2368.0
4.4,-12480.0,-10048.0,2368.0
4.4025,-12416.0,-9984.0,2496.0
4.405,-12480.0,-9984.0,2432.0
4.4075,-12416.0,-9920.0,2432.0
4.41,-12416.0,-9920.0,2496.0
4.4125,-12416.0,-9920.0,2432.0
4.415,-12416.0,-9856.0,2496.0
4.4175,-12352.0,-9792.0,2560.0
4.42,-12352.0,-9792.0,2560.0
4.4225,-12352.0,-9792.0,2624.0
4.425,-12416.0,-9792.0,2624.0
4.4275,-12480.0,-9792.0,2624.0
4.43,-12416.0,-9792.0,2560.0
4.4325,-12352.0,-9728.0,2688.0
4.435,-12352.0,-9728.0,2688.0
4.4375,-12352.0,-9728.0,2624.0
4.44,-12352.0,-9728.0,2624.0
4.4425,-12352.0,-9664.0,2560.0
4.445,-12288.0,-9664.0,2624.0
4.4475,-12288.0,-9600.0,2624.0
4.45,-12288.0,-9600.0,2688.0
4.4525,-12288.0,-9600.0,2688.0
4.455,-12352.0,-9600.0,2688.0
4.4575,-12288.0,-9536.0,2688.0
4.46,-12288.0,-9600.0,2688.0
4.4625,-12288.0,-9600.0,2688.0
4.465,-12352.0,-9536.0,2688.0
4.4675,-12352.0,-9536.0,2624.0
4.47,-12416.0,-9536.0,2752.0
4.4725,-12352.0,-9472.0,2816.0
4.475,-12352.0,-9472.0,2816.0
4.4775,-12352.0,-9408.0,2880.0
4.48,-12416.0,-9472.0,2944.0
4.4825,-12416.0,-9408.0,2880.0
4.485,-12480.0,-9344.0,2880.0
4.4875,-12544.0,-9344.0,2880.0
4.49,-12544.0,-9408.0,2944.0
4.4925,-12544.0,-9344.0,2880.0
4.495,-12544.0,-9408.0,2944.0
4.4975,-12608.0,-9408.0,2944.0
4.5,-12608.0,-9344.0,2944.0
4.5025,-12672.0,-9344.0,2944.0
4.505,-12672.0,-9344.0,3008.0
4.5075,-12672.0,-9408.0,3008.0
4.51,-12736.0,-9344.0,3008.0
4.5125,-12736.0,-9344.0,3008.0
4.515,-12672.0,-9280.0,3008.0
4.5175,-12736.0,-9280.0,2944.0
4.52,-12800.0,-9216.0,2880.0
4.5225,-12800.0,-9216.0,2944.0
4.525,-12800.0,-9216.0,3008.0
4.5275,-12800.0,-9216.0,2944.0
4.53,-12800.0,-9280.0,2944.0
4.5325,-12864.0,-9280.0,2944.0
4.535,-12928.0,-9280.0,2944.0
4.5375,-12928.0,-9344.0,2944.0
4.54,-12928.0,-9280.0,2944.0
4.5425,-12928.0,-9344.0,3008.0
4.545,-12992.0,-9344.0,3008.0
4.5475,-12928.0,-9344.0,3008.0
4.55,-12992.0,-9344.0,2880.0
4.5525,-12992.0,-9344.0,2944.0
4.555,-13120.0,-9344.0,3008.0
4.5575,-13120.0,-9344.0,3008.0
4.56,-13120.0,-9408.0,3008.0
4.5625,-13248.0,-9408.0,3072.0
4.565,-13376.0,-9536.0,2944.0
4.5675,-13504.0,-9600.0,3008.0
4.57,-13632.0,-9600.0,2944.0
4.5725,-13760.0,-9600.0,2944.0
4.575,-13824.0,-9664.0,2880.0
4.5775,-13952.0,-9728.0,3008.0
4.58,-14080.0,-9728.0,2944.0
4.5825,-14208.0,-9792.0,2944.0
4.585,-14336.0,-9920.0,2880.0
4.5875,-14464.0,-9984.0,3072.0
4.59,-14720.0,-9984.0,3072.0
4.5925,-14848.0,-9984.0,3072.0
4.595,-14848.0,-9984.0,3072.0
4.5975,-14976.0,-10048.0,3008.0
4.6,-15104.0,-10112.0,2944.0
4.6025,-15232.0,-10240.0,3008.0
4.605,-15424.0,-10240.0,3008.0
4.6075,-15424.0,-10240.0,3008.0
4.61,-15552.0,-10304.0,2944.0
4.6125,-15680.0,-10368.0,3008.0
4.615,-15744.0,-10368.0,2944.0
4.6175,-15808.0,-10432.0,3008.0
4.62,-16000.0,-10496.0,2880.0
4.6225,-16192.0,-10496.0,3008.0
4.625,-16256.0,-10432.0,3008.0
4.6275,-16320.0,-10496.0,3072.0
4.63,-16448.0,-10496.0,3072.0
4.6325,-16576.0,-10432.0,3072.0
4.635,-16768.0,-10432.0,3072.0
4.6375,-16896.0,-10496.0,3072.0
4.64,-17216.0,-10560.0,3072.0
4.6425,-17408.0,-10560.0,3008.0
4.645,-17600.0,-10560.0,3008.0
4.6475,-17792.0,-10624.0,3072.0
4.65,-17920.0,-10496.0,3136.0
4.6525,-18112.0,-10496.0,3200.0
4.655,-18368.0,-10432.0,3200.0
4.6575,-18496.0,-10496.0,3264.0
4.66,-18688.0,-10496.0,3200.0
4.6625,-18880.0,-10432.0,3264.0
4.665,-19072.0,-10432.0,3328.0
4.6675,-19200.0,-10432.0,3328.0
4.67,-19328.0,-10304.0,3328.0
4.6725,-19456.0,-10304.0,3328.0
4.675,-19584.0,-10304.0,3328.0
4.6775,-19648.0,-10304.0,3328.0
4.68,-19712.0,-10240.0,3392.0
4.6825,-19712.0,-10304.0,3328.0
4.685,-19712.0,-10240.0,3392.0
4.6875,-19712.0,-10240.0,3392.0
4.69,-19712.0,-10176.0,3392.0
4.6925,-19584.0,-10112.0,3392.0
4.695,-19456.0,-10112.0,3456.0
4.6975,-19392.0,-9984.0,3520.0
4.7,-19200.0,-9920.0,3712.0
4.7025,-19008.0,-9856.0,3712.0
4.705,-18880.0,-9728.0,3712.0
4.7075,-18688.0,-9728.0,3712.0
4.71,-18496.0,-9664.0,3712.0
4.7125,-18176.0,-9536.0,3712.0
4.715,-18112.0,-9472.0,3648.0
4.7175,-17856.0,-9280.0,3712.0
4.72,-17408.0,-9152.0,3648.0
4.7225,-17280.0,-9024.0,3712.0
4.725,-17024.0,-8896.0,3584.0
4.7275,-16832.0,-8896.0,3712.0
4.73,-16704.0,-8832.0,3648.0
4.7325,-16512.0,-8704.0,3776.0
4.735,-16384.0,-8576.0,3776.0
4.7375,-16192.0,-8512.0,3840.0
4.74,-16000.0,-8512.0,3840.0
4.7425,-15872.0,-8448.0,3840.0
4.745,-15744.0,-8384.0,3904.0
4.7475,-15616.0,-8320.0,3904.0
4.75,-15616.0,-8320.0,3904.0
4.7525,-15488.0,-8256.0,3904.0
4.755,-15360.0,-8192.0,3904.0
4.7575,-15168.0,-8128.0,3904.0
4.76,-15104.0,-7936.0,3968.0
4.7625,-14976.0,-7808.0,3968.0
4.765,-14848.0,-7808.0,3968.0
4.7675,-14848.0,-7680.0,3968.0
4.77,-14720.0,-7616.0,3968.0
4.7725,-14656.0,-7552.0,3968.0
4.775,-14592.0,-7488.0,3968.0
4.7775,-14592.0,-7360.0,3968.0
4.78,-14464.0,-7232.0,3904.0
4.7825,-14400.0,-7168.0,3904.0
4.785,-14336.0,-7104.0,3840.0
4.7875,-14208.0,-7040.0,3904.0
4.79,-14144.0,-6912.0,3968.0
4.7925,-14080.0,-6720.0,3904.0
4.795,-14016.0,-6528.0,3968.0
4.7975,-13952.0,-6336.0,4032.0
4.8,-13760.0,-6016.0,4160.0
4.8025,-13632.0,-5952.0,4160.0
4.805,-13568.0,-6016.0,4096.0
4.8075,-13504.0,-6208.0,4096.0
4.81,-13568.0,-6272.0,4096.0
4.8125,-13632.0,-6400.0,4096.0
4.815,-13632.0,-6400.0,4032.0
4.8175,-13568.0,-6336.0,4032.0
4.82,-13568.0,-6336.0,3968.0
4.8225,-13568.0,-6272.0,4032.0
4.825,-13568.0,-6208.0,3968.0
4.8275,-13568.0,-6272.0,4032.0
4.83,-13632.0,-6208.0,3904.0
4.8325,-13696.0,-6208.0,3840.0
4.835,-13760.0,-6272.0,3840.0
4.8375,-13824.0,-6400.0,3840.0
4.84,-13888.0,-6400.0,3776.0
4.8425,-14016.0,-6464.0,3712.0
4.845,-14016.0,-6528.0,3776.0
4.8475,-14144.0,-6528.0,3776.0
4.85,-14208.0,-6592.0,3776.0
4.8525,-14272.0,-6528.0,3776.0
4.855,-14336.0,-6592.0,3776.0
4.8575,-14400.0,-6528.0,3776.0
4.86,-14400.0,-6464.0,3904.0
4.8625,-14400.0,-6464.0,3904.0
4.865,-14400.0,-6400.0,3968.0
4.8675,-14464.0,-6400.0,4032.0
4.87,-14528.0,-6336.0,3968.0
4.8725,-14464.0,-6336.0,3968.0
4.875,-14464.0,-6336.0,3968.0
4.8775,-14464.0,-6336.0,3968.0
4.88,-14464.0,-6272.0,3968.0
4.8825,-14464.0,-6208.0,3968.0
4.885,-14400.0,-6272.0,3968.0
4.8875,-14400.0,-6208.0,3904.0
4.89,-14400.0,-6208.0,3904.0
4.8925,-14336.0,-6208.0,3904.0
4.895,-14336.0,-6144.0,3904.0
4.8975,-14336.0,-6144.0,3968.0
4.9,-14272.0,-6208.0,3968.0
4.9025,-14272.0,-6144.0,3904.0
4.905,-14208.0,-6208.0,3904.0
4.9075,-14208.0,-6208.0,3968.0
4.91,-14272.0,-6208.0,3968.0
4.9125,-14208.0,-6208.0,4032.0
4.915,-14144.0,-6208.0,4032.0
4.9175,-14080.0,-6272.0,4032.0
4.92,-14080.0,-6272.0,4096.0
4.9225,-14080.0,-6272.0,4096.0
4.925,-14080.0,-6208.0,4032.0
4.9275,-14080.0,-6208.0,4032.0
4.93,-13952.0,-6272.0,4160.0
4.9325,-13952.0,-6208.0,4160.0
4.935,-13952.0,-6208.0,4160.0
4.9375,-13888.0,-6144.0,4224.0
4.94,-13888.0,-6080.0,4288.0
4.9425,-13824.0,-6016.0,4288.0
4.945,-13760.0,-6144.0,4352.0
4.9475,-13696.0,-6080.0,4352.0
4.95,-13696.0,-6144.0,4352.0
4.9525,-13696.0,-6080.0,4288.0
4.955,-13696.0,-6016.0,4352.0
4.9575,-13696.0,-5952.0,4352.0
4.96,-13568.0,-5952.0,4352.0
4.9625,-13632.0,-5952.0,4416.0
4.965,-13568.0,-5952.0,4288.0
4.9675,-13568.0,-6016.0,4288.0
4.97,-13568.0,-6016.0,4416.0
4.9725,-13504.0,-6016.0,4416.0
4.975,-13440.0,-6080.0,4416.0
4.9775,-13440.0,-6080.0,4416.0
4.98,-13440.0,-6144.0,4352.0
4.9825,-13440.0,-6144.0,4416.0
4.985,-13504.0,-6208.0,4288.0
4.9875,-13568.0,-6208.0,4352.0
4.99,-13504.0,-6208.0,4288.0
4.9925,-13568.0,-6272.0,4352.0
4.995,-13504.0,-6208.0,4288.0
4.9975,-13504.0,-6272.0,4352.0
5.0,-13568.0,-6272.0,4288.0
5.0025,-13632.0,-6272.0,4288.0
5.005,-13632.0,-6272.0,4288.0
5.0075,-13632.0,-6336.0,4288.0
5.01,-13696.0,-6336.0,4288.0
5.0125,-13760.0,-6336.0,4288.0
5.015,-13760.0,-6272.0,4224.0
5.0175,-13824.0,-6272.0,4224.0
5.02,-13760.0,-6208.0,4224.0
5.0225,-13824.0,-6272.0,4160.0
5.025,-13824.0,-6208.0,4224.0
5.0275,-13824.0,-6208.0,4160.0
5.03,-13888.0,-6208.0,4160.0
5.0325,-13952.0,-6208.0,4160.0
5.035,-14016.0,-6272.0,4160.0
5.0375,-14016.0,-6208.0,4224.0
5.04,-14080.0,-6208.0,4096.0
5.0425,-14080.0,-6208.0,4032.0
5.045,-14144.0,-6272.0,4032.0
5.0475,-14144.0,-6272.0,4096.0
5.05,-14208.0,-6336.0,4096.0
5.0525,-14272.0,-6336.0,4160.0
5.055,-14272.0,-6272.0,4096.0
5.0575,-14272.0,-6272.0,4096.0
5.06,-14272.0,-6336.0,4032.0
5.0625,-14400.0,-6272.0,4032.0
5.065,-14400.0,-6272.0,4032.0
5.0675,-14400.0,-6336.0,3968.0
5.07,-14464.0,-6336.0,3904.0
5.0725,-14464.0,-6336.0,3904.0
5.075,-14528.0,-6272.0,3904.0
5.0775,-14528.0,-6400.0,3904.0
5.08,-14592.0,-6336.0,3968.0
5.0825,-14592.0,-6400.0,3904.0
5.085,-14656.0,-6336.0,3904.0
5.0875,-14656.0,-6336.0,3904.0
5.09,-14656.0,-6272.0,3904.0
5.0925,-14656.0,-6336.0,3904.0
5.095,-14592.0,-6272.0,3968.0
5.0975,-14592.0,-6272.0,3968.0
5.1,-14592.0,-6272.0,3968.0
5.1025,-14592.0,-6208.0,4032.0
5.105,-14592.0,-6144.0,3968.0
5.1075,-14592.0,-6144.0,3968.0
5.11,-14528.0,-6080.0,3968.0
5.1125,-14400.0,-6016.0,4032.0
5.115,-14336.0,-6080.0,4032.0
5.1175,-14336.0,-6016.0,4032.0
5.12,-14208.0,-6080.0,3968.0
5.1225,-14144.0,-6016.0,4032.0
5.125,-14144.0,-6016.0,3904.0
5.1275,-14080.0,-6016.0,3904.0
5.13,-14016.0,-6016.0,3968.0
5.1325,-14016.0,-5952.0,3968.0
5.135,-13952.0,-5888.0,4032.0
5.1375,-13888.0,-5952.0,4032.0
5.14,-13760.0,-5888.0,4032.0
5.1425,-13760.0,-6016.0,4032.0
5.145,-13760.0,-6016.0,4032.0
5.1475,-13632.0,-6080.0,4032.0
5.15,-13696.0,-6016.0,4032.0
5.1525,-13568.0,-6080.0,4096.0
5.155,-13632.0,-6080.0,4096.0
5.1575,-13568.0,-6016.0,4032.0
5.16,-13504.0,-6080.0,4032.0
5.1625,-13568.0,-6080.0,4032.0
5.165,-13504.0,-6080.0,4096.0
5.1675,-13504.0,-6080.0,4032.0
5.17,-13504.0,-6080.0,4032.0
5.1725,-13504.0,-6080.0,4032.0
5.175,-13504.0,-6016.0,4032.0
5.1775,-13440.0,-6016.0,4032.0
5.18,-13440.0,-6080.0,4096.0
5.1825,-13440.0,-6016.0,4032.0
5.185,-13376.0,-6080.0,4096.0
5.1875,-13376.0,-6144.0,4096.0
5.19,-13376.0,-6144.0,4096.0
5.1925,-13440.0,-6144.0,4032.0
5.195,-13504.0,-6144.0,4032.0
5.1975,-13504.0,-6144.0,4032.0
5.2,-13504.0,-6080.0,4096.0
5.2025,-13504.0,-6144.0,4096.0
5.205,-13504.0,-6144.0,4096.0
5.2075,-13568.0,-6144.0,4096.0
5.21,-13568.0,-6144.0,4096.0
5.2125,-13568.0,-6144.0,4096.0
5.215,-13568.0,-6144.0,3968.0
5.2175,-13632.0,-6144.0,4032.0
5.22,-13568.0,-6144.0,4032.0
5.2225,-13632.0,-6144.0,4032.0
5.225,-13632.0,-6144.0,3968.0
5.2275,-13632.0,-6208.0,3904.0
5.23,-13632.0,-6272.0,3968.0
5.2325,-13696.0,-6208.0,4032.0
5.235,-13696.0,-6208.0,3904.0
5.2375,-13696.0,-6272.0,3904.0
5.24,-13760.0,-6208.0,3904.0
5.2425,-13824.0,-6272.0,3904.0
5.245,-13824.0,-6208.0,3840.0
5.2475,-13760.0,-6208.0,3840.0
5.25,-13888.0,-6208.0,3776.0
5.2525,-13824.0,-6208.0,3840.0
5.255,-13824.0,-6272.0,3840.0
5.2575,-13888.0,-6208.0,3840.0
5.26,-14016.0,-6272.0,3840.0
5.2625,-14016.0,-6336.0,3776.0
5.265,-14080.0,-6272.0,3776.0
5.2675,-14080.0,-6336.0,3776.0
5.27,-14016.0,-6336.0,3840.0
5.2725,-14016.0,-6272.0,3840.0
5.275,-14080.0,-6208.0,3840.0
5.2775,-14144.0,-6272.0,3840.0
5.28,-14080.0,-6336.0,3904.0
5.2825,-14144.0,-6272.0,3968.0
5.285,-14144.0,-6336.0,3968.0
5.2875,-14144.0,-6336.0,3968.0
5.29,-14144.0,-6272.0,3968.0
5.2925,-14144.0,-6272.0,3904.0
5.295,-14144.0,-6272.0,3776.0
5.2975,-14144.0,-6272.0,3776.0
5.3,-14144.0,-6336.0,3776.0
5.3025,-14208.0,-6336.0,3776.0
5.305,-14080.0,-6336.0,3840.0
5.3075,-14016.0,-6400.0,3840.0
5.31,-14080.0,-6464.0,3840.0
5.3125,-14080.0,-6528.0,3840.0
5.315,-14016.0,-6464.0,3776.0
5.3175,-14080.0,-6464.0,3840.0
5.32,-14016.0,-6464.0,3776.0
5.3225,-13952.0,-6400.0,3840.0
5.325,-13952.0,-6400.0,3840.0
5.3275,-13888.0,-6400.0,3840.0
5.33,-13824.0,-6400.0,3840.0
5.3325,-13824.0,-6400.0,3840.0
5.335,-13760.0,-6336.0,3840.0
5.3375,-13696.0,-6272.0,3840.0
5.34,-13696.0,-6336.0,3904.0
5.3425,-13696.0,-6400.0,3904.0
5.345,-13696.0,-6336.0,3968.0
5.3475,-13632.0,-6336.0,3904.0
5.35,-13632.0,-6336.0,3968.0
5.3525,-13632.0,-6272.0,3968.0
5.355,-13632.0,-6272.0,3968.0
5.3575,-13568.0,-6208.0,3968.0
5.36,-13504.0,-6144.0,4032.0
5.3625,-13504.0,-6144.0,3968.0
5.365,-13568.0,-6080.0,3968.0
5.3675,-13568.0,-6080.0,3968.0
5.37,-13568.0,-6016.0,4032.0
5.3725,-13504.0,-6016.0,4032.0
5.375,-13504.0,-6016.0,4032.0
5.3775,-13568.0,-6016.0,4032.0
5.38,-13440.0,-5952.0,3968.0
5.3825,-13440.0,-5952.0,4032.0
5.385,-13504.0,-5888.0,4032.0
5.3875,-13504.0,-5888.0,4032.0
5.39,-13504.0,-5824.0,3968.0
5.3925,-13504.0,-5888.0,4032.0
5.395,-13568.0,-5888.0,3968.0
5.3975,-13504.0,-5888.0,3968.0
5.4,-13568.0,-5952.0,4032.0
5.4025,-13568.0,-5952.0,3968.0
5.405,-13568.0,-5888.0,3904.0
5.4075,-13568.0,-5888.0,3968.0
5.41,-13504.0,-5824.0,3968.0
5.4125,-13504.0,-5888.0,3904.0
5.415,-13504.0,-5888.0,3904.0
5.4175,-13440.0,-5824.0,3840.0
5.42,-13440.0,-5824.0,3840.0
5.4225,-13440.0,-5824.0,3840.0
5.425,-13440.0,-5824.0,3840.0
5.4275,-13440.0,-5824.0,3840.0
5.43,-13440.0,-5824.0,3840.0
5.4325,-13440.0,-5824.0,3840.0
5.435,-13440.0,-5824.0,3776.0
5.4375,-13440.0,-5824.0,3712.0
5.44,-13504.0,-5888.0,3712.0
5.4425,-13568.0,-5888.0,3712.0
5.445,-13632.0,-5888.0,3712.0
5.4475,-13696.0,-5952.0,3712.0
5.45,-13760.0,-5888.0,3712.0
5.4525,-13760.0,-5952.0,3648.0
5.455,-13824.0,-5888.0,3712.0
5.4575,-13824.0,-5888.0,3712.0
5.46,-13952.0,-5888.0,3776.0
5.4625,-14016.0,-5888.0,3712.0
5.465,-14016.0,-5824.0,3712.0
5.4675,-14080.0,-5888.0,3776.0
5.47,-14144.0,-5888.0,3776.0
5.4725,-14144.0,-5888.0,3776.0
5.475,-14272.0,-5952.0,3712.0
5.4775,-14272.0,-5888.0,3712.0
5.48,-14400.0,-5952.0,3776.0
5.4825,-14400.0,-6016.0,3776.0
5.485,-14464.0,-5952.0,3712.0
5.4875,-14528.0,-5952.0,3712.0
5.49,-14528.0,-6016.0,3776.0
5.4925,-14528.0,-5952.0,3776.0
5.495,-14592.0,-6016.0,3776.0
5.4975,-14592.0,-6016.0,3776.0
5.5,-14592.0,-6080.0,3712.0
5.5025,-14592.0,-6080.0,3712.0
5.505,-14656.0,-6080.0,3776.0
5.5075,-14592.0,-6080.0,3776.0
5.51,-14592.0,-6080.0,3776.0
5.5125,-14592.0,-6080.0,3776.0
5.515,-14656.0,-6080.0,3776.0
5.5175,-14720.0,-6080.0,3776.0
5.52,-14784.0,-6016.0,3840.0
5.5225,-14848.0,-6080.0,3840.0
5.525,-14848.0,-6016.0,3840.0
5.5275,-14848.0,-6016.0,3904.0
5.53,-14848.0,-6144.0,3968.0
5.5325,-14912.0,-6144.0,3968.0
5.535,-14912.0,-6080.0,3968.0
5.5375,-14912.0,-6080.0,3968.0
5.54,-14848.0,-6080.0,4032.0
5.5425,-14912.0,-6080.0,4032.0
5.545,-14848.0,-6016.0,4096.0
5.5475,-14784.0,-6080.0,4096.0
5.55,-14784.0,-6080.0,4096.0
5.5525,-14784.0,-6080.0,4032.0
5.555,-14720.0,-6080.0,4032.0
5.5575,-14720.0,-6080.0,4032.0
5.56,-14720.0,-6080.0,4032.0
5.5625,-14720.0,-6144.0,3968.0
5.565,-14720.0,-6080.0,3968.0
5.5675,-14656.0,-6144.0,4032.0
5.57,-14656.0,-6208.0,3968.0
5.5725,-14656.0,-6208.0,3968.0
5.575,-14656.0,-6208.0,3904.0
5.5775,-14656.0,-6208.0,3904.0
5.58,-14592.0,-6208.0,3968.0
5.5825,-14592.0,-6208.0,3904.0
5.585,-14656.0,-6272.0,3904.0
5.5875,-14592.0,-6272.0,3904.0
5.59,-14592.0,-6272.0,4032.0
5.5925,-14592.0,-6272.0,4032.0
5.595,-14592.0,-6208.0,4032.0
5.5975,-14592.0,-6208.0,4096.0
5.6,-14528.0,-6144.0,4032.0
5.6025,-14464.0,-6080.0,4032.0
5.605,-14464.0,-6080.0,4096.0
5.6075,-14400.0,-5952.0,4032.0
5.61,-14400.0,-5952.0,3968.0
5.6125,-14336.0,-5952.0,4032.0
5.615,-14336.0,-5888.0,3904.0
5.6175,-14272.0,-5952.0,3904.0
5.62,-14208.0,-5888.0,3840.0
5.6225,-14208.0,-5888.0,3776.0
5.625,-14144.0,-5888.0,3776.0
5.6275,-14208.0,-5824.0,3840.0
5.63,-14208.0,-5888.0,3776.0
5.6325,-14208.0,-5824.0,3776.0
5.635,-14208.0,-5824.0,3584.0
5.6375,-14144.0,-5824.0,3648.0
5.64,-14144.0,-5824.0,3648.0
5.6425,-14144.0,-5760.0,3648.0
5.645,-14144.0,-5760.0,3584.0
5.6475,-14144.0,-5760.0,3584.0
5.65,-14144.0,-5760.0,3584.0
5.6525,-14080.0,-5760.0,3520.0
5.655,-14144.0,-5760.0,3520.0
5.6575,-14144.0,-5760.0,3584.0
5.66,-14080.0,-5760.0,3648.0
5.6625,-14016.0,-5760.0,3584.0
5.665,-14016.0,-5760.0,3584.0
5.6675,-13952.0,-5760.0,3584.0
5.67,-13952.0,-5760.0,3584.0
5.6725,-13888.0,-5696.0,3584.0
5.675,-13888.0,-5632.0,3584.0
5.6775,-13888.0,-5632.0,3584.0
5.68,-13824.0,-5632.0,3456.0
5.6825,-13888.0,-5632.0,3392.0
5.685,-13952.0,-5632.0,3392.0
5.6875,-13888.0,-5696.0,3392.0
5.69,-13952.0,-5696.0,3392.0
5.6925,-13888.0,-5696.0,3328.0
5.695,-13952.0,-5824.0,3264.0
5.6975,-14016.0,-5824.0,3264.0
5.7,-14080.0,-5888.0,3264.0
5.7025,-14208.0,-5952.0,3264.0
5.705,-14272.0,-6080.0,3200.0
5.7075,-14272.0,-6144.0,3136.0
5.71,-14336.0,-6208.0,3200.0
5.7125,-14400.0,-6208.0,3264.0
5.715,-14464.0,-6272.0,3200.0
5.7175,-14592.0,-6272.0,3264.0
5.72,-14656.0,-6272.0,3328.0
5.7225,-14720.0,-6272.0,3328.0
5.725,-14784.0,-6272.0,3264.0
5.7275,-14848.0,-6272.0,3264.0
5.73,-14912.0,-6272.0,3328.0
5.7325,-14976.0,-6336.0,3264.0
5.735,-15104.0,-6336.0,3264.0
5.7375,-15168.0,-6400.0,3200.0
5.74,-15232.0,-6400.0,3200.0
5.7425,-15232.0,-6400.0,3200.0
5.745,-15360.0,-6464.0,3200.0
5.7475,-15360.0,-6528.0,3200.0
5.75,-15424.0,-6464.0,3136.0
5.7525,-15488.0,-6528.0,3200.0
5.755,-15552.0,-6464.0,3264.0
5.7575,-15680.0,-6464.0,3200.0
5.76,-15616.0,-6528.0,3264.0
5.7625,-15552.0,-6464.0,3328.0
5.765,-15616.0,-6528.0,3328.0
5.7675,-15616.0,-6528.0,3392.0
5.77,-15616.0,-6464.0,3264.0
5.7725,-15616.0,-6464.0,3392.0
5.775,-15680.0,-6464.0,3328.0
5.7775,-15680.0,-6528.0,3328.0
5.78,-15680.0,-6528.0,3328.0
5.7825,-15680.0,-6528.0,3328.0
5.785,-15680.0,-6464.0,3328.0
5.7875,-15680.0,-6400.0,3136.0
5.79,-15680.0,-6400.0,3264.0
5.7925,-15616.0,-6336.0,3264.0
5.795,-15552.0,-6272.0,3392.0
5.7975,-15488.0,-6208.0,3456.0
5.8,-15488.0,-6144.0,3392.0
5.8025,-15424.0,-6144.0,3456.0
5.805,-15360.0,-6144.0,3392.0
5.8075,-15360.0,-6144.0,3456.0
5.81,-15296.0,-6080.0,3392.0
5.8125,-15296.0,-6080.0,3392.0
5.815,-15296.0,-6080.0,3520.0
5.8175,-15360.0,-6080.0,3520.0
5.82,-15296.0,-6080.0,3456.0
5.8225,-15360.0,-6016.0,3456.0
5.825,-15360.0,-6016.0,3456.0
5.8275,-15360.0,-6016.0,3520.0
5.83,-15296.0,-6016.0,3520.0
5.8325,-15360.0,-6016.0,3520.0
5.835,-15360.0,-6016.0,3520.0
5.8375,-15296.0,-5952.0,3456.0
5.84,-15168.0,-5888.0,3520.0
5.8425,-15168.0,-5824.0,3520.0
5.845,-15104.0,-5824.0,3456.0
5.8475,-15040.0,-5760.0,3520.0
5.85,-14912.0,-5760.0,3456.0
5.8525,-14848.0,-5760.0,3456.0
5.855,-14784.0,-5760.0,3392.0
5.8575,-14656.0,-5760.0,3456.0
5.86,-14528.0,-5760.0,3520.0
5.8625,-14464.0,-5696.0,3456.0
5.865,-14336.0,-5696.0,3520.0
5.8675,-14208.0,-5696.0,3456.0
5.87,-14080.0,-5696.0,3392.0
5.8725,-13952.0,-5696.0,3456.0
5.875,-13888.0,-5632.0,3520.0
5.8775,-13760.0,-5760.0,3520.0
5.88,-13696.0,-5696.0,3456.0
5.8825,-13632.0,-5696.0,3520.0
5.885,-13632.0,-5696.0,3520.0
5.8875,-13568.0,-5760.0,3520.0
5.89,-13440.0,-5760.0,3520.0
5.8925,-13376.0,-5760.0,3584.0
5.895,-13376.0,-5824.0,3584.0
5.8975,-13440.0,-5888.0,3584.0
5.9,-13440.0,-5888.0,3584.0
5.9025,-13440.0,-5888.0,3648.0
5.905,-13440.0,-5824.0,3648.0
5.9075,-13440.0,-5888.0,3584.0
5.91,-13440.0,-5888.0,3584.0
5.9125,-13440.0,-5952.0,3648.0
5.915,-13504.0,-5888.0,3648.0
5.9175,-13504.0,-5888.0,3712.0
5.92,-13504.0,-5888.0,3712.0
5.9225,-13504.0,-5952.0,3584.0
5.925,-13504.0,-5952.0,3520.0
5.9275,-13568.0,-6016.0,3584.0
5.93,-13696.0,-5952.0,3584.0
5.9325,-13696.0,-6080.0,3648.0
5.935,-13696.0,-6080.0,3584.0
5.9375,-13824.0,-6208.0,3584.0
5.94,-13824.0,-6144.0,3584.0
5.9425,-13888.0,-6208.0,3584.0
5.945,-13952.0,-6272.0,3712.0
5.9475,-14016.0,-6272.0,3648.0
5.95,-14080.0,-6336.0,3648.0
5.9525,-14080.0,-6400.0,3584.0
5.955,-14144.0,-6400.0,3584.0
5.9575,-14208.0,-6400.0,3584.0
5.96,-14272.0,-6464.0,3648.0
5.9625,-14272.0,-6528.0,3584.0
5.965,-14336.0,-6592.0,3584.0
5.9675,-14336.0,-6592.0,3648.0
5.97,-14400.0,-6656.0,3648.0
5.9725,-14336.0,-6720.0,3648.0
5.975,-14400.0,-6784.0,3648.0
5.9775,-14400.0,-6784.0,3584.0
5.98,-14400.0,-6848.0,3648.0
5.9825,-14464.0,-6784.0,3520.0
5.985,-14400.0,-6784.0,3584.0
5.9875,-14336.0,-6784.0,3520.0
5.99,-14272.0,-6720.0,3584.0
5.9925,-14208.0,-6720.0,3520.0
5.995,-14144.0,-6656.0,3584.0
5.9975,-14080.0,-6656.0,3584.0
6.0,-14144.0,-6720.0,3584.0
6.0025,-14080.0,-6720.0,3584.0
6.005,-14016.0,-6720.0,3584.0
6.0075,-14080.0,-6720.0,3648.0
6.01,-14208.0,-6720.0,3584.0
6.0125,-14144.0,-6656.0,3584.0
6.015,-14144.0,-6720.0,3520.0
6.0175,-14208.0,-6720.0,3584.0
6.02,-14208.0,-6656.0,3648.0
6.0225,-14208.0,-6656.0,3584.0
6.025,-14272.0,-6656.0,3584.0
6.0275,-14272.0,-6656.0,3648.0
6.03,-14336.0,-6656.0,3584.0
6.0325,-14336.0,-6592.0,3648.0
6.035,-14336.0,-6592.0,3712.0
6.0375,-14272.0,-6528.0,3648.0
6.04,-14272.0,-6528.0,3648.0
6.0425,-14272.0,-6528.0,3648.0
6.045,-14272.0,-6464.0,3648.0
6.0475,-14272.0,-6464.0,3648.0
6.05,-14336.0,-6400.0,3648.0
6.0525,-14336.0,-6400.0,3648.0
6.055,-14272.0,-6400.0,3648.0
6.0575,-14336.0,-6336.0,3648.0
6.06,-14336.0,-6336.0,3648.0
6.0625,-14336.0,-6400.0,3584.0
6.065,-14336.0,-6336.0,3648.0
6.0675,-14272.0,-6336.0,3520.0
6.07,-14336.0,-6336.0,3456.0
6.0725,-14272.0,-6336.0,3456.0
6.075,-14336.0,-6336.0,3392.0
6.0775,-14272.0,-6336.0,3328.0
6.08,-14208.0,-6336.0,3264.0
6.0825,-14144.0,-6336.0,3328.0
6.085,-14080.0,-6272.0,3328.0
6.0875,-13952.0,-6208.0,3392.0
6.09,-13888.0,-6208.0,3328.0
6.0925,-13760.0,-6208.0,3328.0
6.095,-13696.0,-6144.0,3392.0
6.0975,-13568.0,-6144.0,3456.0
6.1,-13440.0,-6144.0,3456.0
6.1025,-13312.0,-6016.0,3392.0
6.105,-13184.0,-6080.0,3392.0
6.1075,-13056.0,-6080.0,3392.0
6.11,-12992.0,-6080.0,3456.0
6.1125,-12864.0,-6080.0,3456.0
6.115,-12928.0,-6080.0,3456.0
6.1175,-12864.0,-6080.0,3456.0
6.12,-12800.0,-6016.0,3520.0
6.1225,-12800.0,-6080.0,3520.0
6.125,-12800.0,-6016.0,3456.0
6.1275,-12928.0,-6016.0,3456.0
6.13,-12928.0,-6016.0,3392.0
6.1325,-12928.0,-6016.0,3456.0
6.135,-12928.0,-6016.0,3456.0
6.1375,-12928.0,-6080.0,3456.0
6.14,-12992.0,-6080.0,3392.0
6.1425,-12992.0,-5952.0,3392.0
6.145,-13056.0,-5952.0,3392.0
6.1475,-13056.0,-5888.0,3392.0
6.15,-12992.0,-5888.0,3328.0
6.1525,-12992.0,-5888.0,3200.0
6.155,-12992.0,-5824.0,3264.0
6.1575,-12928.0,-5824.0,3264.0
6.16,-12992.0,-5824.0,3136.0
6.1625,-12992.0,-5824.0,3136.0
6.165,-12928.0,-5824.0,3136.0
6.1675,-12992.0,-5824.0,3136.0
6.17,-13056.0,-5824.0,3136.0
6.1725,-13120.0,-5888.0,3072.0
6.175,-13248.0,-5952.0,3072.0
6.1775,-13312.0,-6016.0,3072.0
6.18,-13376.0,-6144.0,3136.0
6.1825,-13376.0,-6080.0,3136.0
6.185,-13504.0,-6080.0,3136.0
6.1875,-13632.0,-6080.0,3072.0
6.19,-13632.0,-6080.0,3136.0
6.1925,-13760.0,-6080.0,3200.0
6.195,-13760.0,-6080.0,3200.0
6.1975,-13824.0,-6144.0,3200.0
6.2,-13824.0,-6144.0,3200.0
6.2025,-13888.0,-6080.0,3264.0
6.205,-13952.0,-6080.0,3264.0
6.2075,-13952.0,-6144.0,3264.0
6.21,-13952.0,-6080.0,3264.0
6.2125,-13952.0,-6144.0,3200.0
6.215,-13952.0,-6144.0,3200.0
6.2175,-13952.0,-6144.0,3136.0
6.22,-13952.0,-6208.0,3136.0
6.2225,-13952.0,-6208.0,3200.0
6.225,-13952.0,-6208.0,3200.0
6.2275,-14016.0,-6144.0,3200.0
6.23,-14016.0,-6208.0,3200.0
6.2325,-14016.0,-6208.0,3200.0
6.235,-14016.0,-6272.0,3136.0
6.2375,-14016.0,-6272.0,3136.0
6.24,-14144.0,-6336.0,3136.0
6.2425,-14080.0,-6400.0,3136.0
6.245,-14144.0,-6464.0,3200.0
6.2475,-14144.0,-6400.0,3200.0
6.25,-14208.0,-6464.0,3200.0
6.2525,-14208.0,-6528.0,3200.0
6.255,-14208.0,-6528.0,3200.0
6.2575,-14208.0,-6592.0,3200.0
6.26,-14208.0,-6528.0,3136.0
6.2625,-14336.0,-6592.0,3200.0
6.265,-14400.0,-6528.0,3200.0
6.2675,-14400.0,-6528.0,3264.0
6.27,-14400.0,-6592.0,3264.0
6.2725,-14464.0,-6656.0,3200.0
6.275,-14592.0,-6592.0,3264.0
6.2775,-14528.0,-6656.0,3264.0
6.28,-14592.0,-6720.0,3328.0
6.2825,-14656.0,-6720.0,3328.0
6.285,-14656.0,-6784.0,3328.0
6.2875,-14720.0,-6784.0,3328.0
6.29,-14784.0,-6784.0,3328.0
6.2925,-14784.0,-6848.0,3328.0
6.295,-14848.0,-6784.0,3328.0
6.2975,-14848.0,-6784.0,3392.0
6.3,-14912.0,-6784.0,3392.0
6.3025,-14976.0,-6848.0,3328.0
6.305,-14976.0,-6848.0,3328.0
6.3075,-14976.0,-6848.0,3264.0
6.31,-15040.0,-6848.0,3328.0
6.3125,-15040.0,-6848.0,3264.0
6.315,-15040.0,-6848.0,3264.0
6.3175,-14976.0,-6784.0,3328.0
6.32,-14976.0,-6784.0,3328.0
6.3225,-15040.0,-6784.0,3392.0
6.325,-15040.0,-6848.0,3392.0
6.3275,-15040.0,-6784.0,3520.0
6.33,-15104.0,-6784.0,3392.0
6.3325,-15168.0,-6784.0,3392.0
6.335,-15104.0,-6720.0,3392.0
6.3375,-15168.0,-6720.0,3392.0
6.34,-15168.0,-6784.0,3456.0
6.3425,-15232.0,-6848.0,3456.0
6.345,-15232.0,-6848.0,3456.0
6.3475,-15360.0,-6912.0,3456.0
6.35,-15360.0,-6848.0,3456.0
6.3525,-15360.0,-6912.0,3456.0
6.355,-15424.0,-6912.0,3456.0
6.3575,-15424.0,-6912.0,3520.0
6.36,-15488.0,-6912.0,3520.0
6.3625,-15552.0,-6848.0,3456.0
6.365,-15488.0,-6848.0,3520.0
6.3675,-15552.0,-6848.0,3520.0
6.37,-15552.0,-6848.0,3520.0
6.3725,-15616.0,-6848.0,3520.0
6.375,-15680.0,-6784.0,3520.0
6.3775,-15680.0,-6848.0,3392.0
6.38,-15680.0,-6912.0,3456.0
6.3825,-15680.0,-6976.0,3392.0
6.385,-15808.0,-6912.0,3456.0
6.3875,-15808.0,-6912.0,3392.0
6.39,-15808.0,-6912.0,3456.0
6.3925,-15872.0,-7040.0,3520.0
6.395,-15936.0,-7040.0,3520.0
6.3975,-15936.0,-7040.0,3520.0
6.4,-15936.0,-7040.0,3584.0
6.4025,-16000.0,-7104.0,3648.0
6.405,-16064.0,-7168.0,3520.0
6.4075,-16128.0,-7104.0,3520.0
6.41,-16128.0,-7104.0,3520.0
6.4125,-16192.0,-7104.0,3456.0
6.415,-16256.0,-7104.0,3520.0
6.4175,-16256.0,-7104.0,3584.0
6.42,-16320.0,-7040.0,3584.0
6.4225,-16384.0,-7040.0,3648.0
6.425,-16384.0,-7040.0,3584.0
6.4275,-16448.0,-7104.0,3648.0
6.43,-16448.0,-7104.0,3712.0
6.4325,-16512.0,-7104.0,3648.0
6.435,-16448.0,-7040.0,3648.0
6.4375,-16448.0,-6976.0,3648.0
6.44,-16512.0,-6976.0,3712.0
6.4425,-16512.0,-6912.0,3712.0
6.445,-16512.0,-6912.0,3712.0
6.4475,-16512.0,-6848.0,3712.0
6.45,-16512.0,-6912.0,3712.0
6.4525,-16512.0,-6912.0,3712.0
6.455,-16448.0,-6848.0,3712.0
6.4575,-16512.0,-6848.0,3648.0
6.46,-16448.0,-6848.0,3712.0
6.4625,-16448.0,-6784.0,3712.0
6.465,-16448.0,-6784.0,3712.0
6.4675,-16384.0,-6784.0,3648.0
6.47,-16384.0,-6784.0,3648.0
6.4725,-16384.0,-6784.0,3712.0
6.475,-16384.0,-6784.0,3712.0
6.4775,-16320.0,-6784.0,3776.0
6.48,-16256.0,-6720.0,3840.0
6.4825,-16192.0,-6720.0,3840.0
6.485,-16128.0,-6656.0,3776.0
6.4875,-16128.0,-6656.0,3776.0
6.49,-16128.0,-6656.0,3776.0
6.4925,-16064.0,-6656.0,3904.0
6.495,-15936.0,-6656.0,3904.0
6.4975,-15936.0,-6656.0,3840.0
6.5,-15872.0,-6656.0,3776.0
6.5025,-15808.0,-6592.0,3712.0
6.505,-15744.0,-6592.0,3776.0
6.5075,-15744.0,-6592.0,3776.0
6.51,-15680.0,-6592.0,3776.0
6.5125,-15552.0,-6528.0,3712.0
6.515,-15552.0,-6528.0,3712.0
6.5175,-15488.0,-6528.0,3776.0
6.52,-15424.0,-6464.0,3776.0
6.5225,-15360.0,-6464.0,3776.0
6.525,-15360.0,-6464.0,3840.0
6.5275,-15296.0,-6400.0,3776.0
6.53,-15232.0,-6400.0,3840.0
6.5325,-15232.0,-6400.0,3776.0
6.535,-15232.0,-6464.0,3840.0
6.5375,-15168.0,-6528.0,3840.0
6.54,-15232.0,-6464.0,3840.0
6.5425,-15168.0,-6464.0,3840.0
6.545,-15232.0,-6400.0,3840.0
6.5475,-15232.0,-6400.0,3904.0
6.55,-15232.0,-6464.0,3840.0
6.5525,-15232.0,-6464.0,3904.0
6.555,-15296.0,-6464.0,3904.0
6.5575,-15296.0,-6464.0,3904.0
6.56,-15232.0,-6336.0,3904.0
6.5625,-15296.0,-6272.0,3904.0
6.565,-15296.0,-6336.0,3968.0
6.5675,-15232.0,-6272.0,3968.0
6.57,-15296.0,-6336.0,3968.0
6.5725,-15232.0,-6336.0,3968.0
6.575,-15232.0,-6272.0,3968.0
6.5775,-15232.0,-6272.0,3968.0
6.58,-15168.0,-6208.0,3968.0
6.5825,-15232.0,-6336.0,3968.0
6.585,-15168.0,-6336.0,3968.0
6.5875,-15232.0,-6272.0,3968.0
6.59,-15232.0,-6272.0,3968.0
6.5925,-15168.0,-6336.0,3968.0
6.595,-15168.0,-6336.0,3968.0
6.5975,-15232.0,-6400.0,3968.0
6.6,-15296.0,-6400.0,3968.0
6.6025,-15296.0,-6464.0,3968.0
6.605,-15296.0,-6528.0,3968.0
6.6075,-15296.0,-6464.0,3968.0
6.61,-15424.0,-6528.0,3968.0
6.6125,-15424.0,-6528.0,3968.0
6.615,-15488.0,-6528.0,4032.0
6.6175,-15488.0,-6592.0,3904.0
6.62,-15552.0,-6592.0,3904.0
6.6225,-15680.0,-6592.0,3904.0
6.625,-15680.0,-6656.0,3904.0
6.6275,-15744.0,-6656.0,3904.0
6.63,-15744.0,-6656.0,3904.0
6.6325,-15808.0,-6656.0,3840.0
6.635,-15808.0,-6656.0,3840.0
6.6375,-15872.0,-6656.0,3840.0
6.64,-15872.0,-6656.0,3712.0
6.6425,-15936.0,-6720.0,3712.0
6.645,-16000.0,-6720.0,3776.0
6.6475,-15936.0,-6720.0,3776.0
6.65,-16000.0,-6720.0,3840.0
6.6525,-16000.0,-6720.0,3840.0
6.655,-15936.0,-6720.0,3840.0
6.6575,-16064.0,-6784.0,3776.0
6.66,-16064.0,-6784.0,3840.0
6.6625,-16064.0,-6848.0,3840.0
6.665,-16064.0,-6784.0,3904.0
6.6675,-16064.0,-6848.0,3840.0
6.67,-16000.0,-6848.0,3776.0
6.6725,-15936.0,-6848.0,3840.0
6.675,-15872.0,-6848.0,3840.0
6.6775,-15872.0,-6848.0,3840.0
6.68,-15808.0,-6848.0,3840.0
6.6825,-15744.0,-6848.0,3904.0
6.685,-15680.0,-6912.0,3968.0
6.6875,-15680.0,-6848.0,3968.0
6.69,-15616.0,-6848.0,3968.0
6.6925,-15552.0,-6848.0,4032.0
6.695,-15552.0,-6848.0,4096.0
6.6975,-15552.0,-6912.0,4032.0
6.7,-15488.0,-6976.0,4032.0
6.7025,-15424.0,-6976.0,4096.0
6.705,-15360.0,-7040.0,4032.0
6.7075,-15360.0,-7040.0,3968.0
6.71,-15296.0,-6976.0,4032.0
6.7125,-15296.0,-6976.0,4096.0
6.715,-15296.0,-7040.0,4160.0
6.7175,-15168.0,-7104.0,4224.0
6.72,-15168.0,-7040.0,4224.0
6.7225,-15104.0,-7104.0,4224.0
6.725,-15104.0,-7104.0,4224.0
6.7275,-15104.0,-7168.0,4224.0
6.73,-15104.0,-7168.0,4224.0
6.7325,-15040.0,-7232.0,4224.0
6.735,-15040.0,-7232.0,4224.0
6.7375,-15040.0,-7232.0,4288.0
6.74,-15040.0,-7296.0,4288.0
6.7425,-15040.0,-7360.0,4224.0
6.745,-15040.0,-7360.0,4224.0
6.7475,-14976.0,-7424.0,4224.0
6.75,-14912.0,-7488.0,4352.0
6.7525,-14912.0,-7488.0,4352.0
6.755,-14848.0,-7616.0,4352.0
6.7575,-14784.0,-7616.0,4288.0
6.76,-14784.0,-7616.0,4352.0
6.7625,-14784.0,-7680.0,4416.0
6.765,-14656.0,-7744.0,4416.0
6.7675,-14592.0,-7808.0,4480.0
6.77,-14528.0,-7808.0,4480.0
6.7725,-14464.0,-7808.0,4416.0
6.775,-14400.0,-7872.0,4480.0
6.7775,-14336.0,-7872.0,4480.0
6.78,-14208.0,-7936.0,4416.0
6.7825,-14208.0,-7936.0,4544.0
6.785,-14144.0,-7936.0,4544.0
6.7875,-13952.0,-8000.0,4480.0
6.79,-13952.0,-8000.0,4544.0
6.7925,-13824.0,-8000.0,4608.0
6.795,-13760.0,-8000.0,4672.0
6.7975,-13696.0,-8064.0,4608.0
6.8,-13696.0,-8128.0,4736.0
6.8025,-13632.0,-8192.0,4672.0
6.805,-13632.0,-8192.0,4736.0
6.8075,-13632.0,-8320.0,4800.0
6.81,-13632.0,-8320.0,4672.0
6.8125,-13632.0,-8320.0,4736.0
6.815,-13632.0,-8384.0,4736.0
6.8175,-13632.0,-8320.0,4736.0
6.82,-13504.0,-8320.0,4736.0
6.8225,-13568.0,-8384.0,4736.0
6.825,-13568.0,-8384.0,4800.0
6.8275,-13568.0,-8384.0,4800.0
6.83,-13504.0,-8448.0,4864.0
6.8325,-13504.0,-8448.0,4800.0
6.835,-13568.0,-8448.0,4800.0
6.8375,-13568.0,-8512.0,4736.0
6.84,-13632.0,-8704.0,4800.0
6.8425,-13696.0,-8768.0,4800.0
6.845,-13696.0,-8832.0,4736.0
6.8475,-13760.0,-8832.0,4608.0
6.85,-13824.0,-8768.0,4672.0
6.8525,-13824.0,-8832.0,4608.0
6.855,-13824.0,-8896.0,4608.0
6.8575,-13888.0,-8896.0,4608.0
6.86,-13824.0,-8896.0,4608.0
6.8625,-13888.0,-8832.0,4672.0
6.865,-13888.0,-8896.0,4608.0
6.8675,-13888.0,-8960.0,4608.0
6.87,-13952.0,-8896.0,4608.0
6.8725,-14016.0,-8896.0,4544.0
6.875,-14016.0,-9024.0,4480.0
6.8775,-13952.0,-9024.0,4480.0
6.88,-13952.0,-9024.0,4416.0
6.8825,-13952.0,-9088.0,4416.0
6.885,-13888.0,-9088.0,4480.0
6.8875,-13888.0,-9024.0,4416.0
6.89,-13824.0,-9024.0,4352.0
6.8925,-13760.0,-8960.0,4352.0
6.895,-13760.0,-9088.0,4416.0
6.8975,-13696.0,-9088.0,4416.0
6.9,-13696.0,-9088.0,4416.0
6.9025,-13696.0,-9088.0,4416.0
6.905,-13696.0,-9088.0,4352.0
6.9075,-13696.0,-9088.0,4352.0
6.91,-13696.0,-9088.0,4352.0
6.9125,-13632.0,-9088.0,4416.0
6.915,-13632.0,-9280.0,4416.0
6.9175,-13696.0,-9344.0,4352.0
6.92,-13696.0,-9280.0,4416.0
6.9225,-13696.0,-9216.0,4480.0
6.925,-13632.0,-9152.0,4416.0
6.9275,-13568.0,-9088.0,4480.0
6.93,-13632.0,-9152.0,4608.0
6.9325,-13632.0,-9088.0,4608.0
6.935,-13696.0,-9216.0,4544.0
6.9375,-13824.0,-9344.0,4544.0
6.94,-13824.0,-9344.0,4544.0
6.9425,-13888.0,-9344.0,4544.0
6.945,-13888.0,-9280.0,4480.0
6.9475,-13888.0,-9280.0,4480.0
6.95,-13824.0,-9280.0,4608.0
6.9525,-13888.0,-9280.0,4608.0
6.955,-13888.0,-9280.0,4544.0
6.9575,-13952.0,-9344.0,4608.0
6.96,-13952.0,-9472.0,4736.0
6.9625,-13888.0,-9408.0,4672.0
6.965,-13952.0,-9472.0,4672.0
6.9675,-13888.0,-9472.0,4736.0
6.97,-13888.0,-9472.0,4736.0
6.9725,-13888.0,-9536.0,4800.0
6.975,-13888.0,-9536.0,4864.0
6.9775,-13824.0,-9728.0,4928.0
6.98,-13760.0,-9728.0,4992.0
6.9825,-13696.0,-9856.0,4992.0
6.985,-13696.0,-9920.0,4992.0
6.9875,-13696.0,-9920.0,5056.0
6.99,-13696.0,-9984.0,5120.0
6.9925,-13632.0,-10048.0,5120.0
6.995,-13632.0,-10176.0,5248.0
6.9975,-13568.0,-10240.0,5248.0
7.0,-13568.0,-10240.0,5184.0
7.0025,-13568.0,-10240.0,5184.0
7.005,-13504.0,-10304.0,5248.0
7.0075,-13504.0,-10304.0,5184.0
7.01,-13440.0,-10368.0,5120.0
7.0125,-13440.0,-10368.0,5184.0
7.015,-13376.0,-10432.0,5120.0
7.0175,-13376.0,-10432.0,5120.0
7.02,-13376.0,-10496.0,5056.0
7.0225,-13440.0,-10560.0,5120.0
7.025,-13376.0,-10560.0,5120.0
7.0275,-13312.0,-10624.0,5248.0
7.03,-13312.0,-10624.0,5248.0
7.0325,-13312.0,-10624.0,5312.0
7.035,-13376.0,-10688.0,5248.0
7.0375,-13312.0,-10688.0,5312.0
7.04,-13312.0,-10688.0,5376.0
7.0425,-13312.0,-10624.0,5376.0
7.045,-13312.0,-10688.0,5248.0
7.0475,-13376.0,-10624.0,5248.0
7.05,-13312.0,-10560.0,5312.0
7.0525,-13312.0,-10688.0,5248.0
7.055,-13376.0,-10816.0,5248.0
7.0575,-13440.0,-10880.0,5184.0
7.06,-13440.0,-10944.0,5184.0
7.0625,-13440.0,-10880.0,5248.0
7.065,-13440.0,-10816.0,5184.0
7.0675,-13312.0,-10752.0,5312.0
7.07,-13248.0,-10688.0,5312.0
7.0725,-13248.0,-10624.0,5312.0
7.075,-13184.0,-10624.0,5312.0
7.0775,-13120.0,-10688.0,5312.0
7.08,-13056.0,-10752.0,5248.0
7.0825,-12992.0,-10816.0,5248.0
7.085,-12992.0,-10752.0,5248.0
7.0875,-12928.0,-10624.0,5248.0
7.09,-12800.0,-10624.0,5184.0
7.0925,-12736.0,-10560.0,5120.0
7.095,-12672.0,-10624.0,5056.0
7.0975,-12544.0,-10560.0,5056.0
7.1,-12480.0,-10496.0,5056.0
7.1025,-12544.0,-10624.0,5120.0
7.105,-12480.0,-10624.0,5056.0
7.1075,-12416.0,-10624.0,5056.0
7.11,-12416.0,-10688.0,5120.0
7.1125,-12288.0,-10752.0,5120.0
7.115,-12224.0,-10688.0,5184.0
7.1175,-12224.0,-10688.0,5248.0
7.12,-12224.0,-10752.0,5120.0
7.1225,-12096.0,-10752.0,5184.0
7.125,-11904.0,-10880.0,5248.0
7.1275,-11776.0,-11008.0,5312.0
7.13,-11648.0,-11136.0,5376.0
7.1325,-11584.0,-11136.0,5504.0
7.135,-11520.0,-11136.0,5504.0
7.1375,-11392.0,-10944.0,5696.0
7.14,-11200.0,-10816.0,5696.0
7.1425,-11008.0,-10880.0,5696.0
7.145,-10880.0,-11008.0,5696.0
7.1475,-10752.0,-11136.0,5632.0
7.15,-10752.0,-11200.0,5632.0
7.1525,-10624.0,-11328.0,5760.0
7.155,-10624.0,-11520.0,5824.0
7.1575,-10496.0,-11776.0,5760.0
7.16,-10432.0,-11968.0,5696.0
7.1625,-10240.0,-12032.0,5632.0
7.165,-10112.0,-12032.0,5632.0
7.1675,-9920.0,-12032.0,5568.0
7.17,-9856.0,-11968.0,5504.0
7.1725,-9728.0,-11840.0,5568.0
7.175,-9600.0,-11712.0,5568.0
7.1775,-9472.0,-11712.0,5632.0
7.18,-9408.0,-11648.0,5568.0
7.1825,-9344.0,-11584.0,5632.0
7.185,-9216.0,-11456.0,5632.0
7.1875,-9152.0,-11392.0,5696.0
7.19,-9024.0,-11392.0,5760.0
7.1925,-8960.0,-11392.0,5760.0
7.195,-8832.0,-11392.0,5760.0
7.1975,-8768.0,-11392.0,5824.0
7.2,-8768.0,-11392.0,5760.0
7.2025,-8640.0,-11392.0,5760.0
7.205,-8640.0,-11392.0,5760.0
7.2075,-8576.0,-11328.0,5696.0
7.21,-8512.0,-11328.0,5632.0
7.2125,-8448.0,-11264.0,5824.0
7.215,-8448.0,-11136.0,5952.0
7.2175,-8512.0,-11136.0,6016.0
7.22,-8512.0,-11136.0,5952.0
7.2225,-8512.0,-11008.0,6080.0
7.225,-8576.0,-10880.0,6016.0
7.2275,-8576.0,-10880.0,5952.0
7.23,-8640.0,-10944.0,6016.0
7.2325,-8704.0,-11008.0,5952.0
7.235,-8768.0,-11008.0,6016.0
7.2375,-8768.0,-11008.0,6016.0
7.24,-8896.0,-11008.0,5952.0
7.2425,-9024.0,-10944.0,5952.0
7.245,-9024.0,-10944.0,5888.0
7.2475,-9088.0,-11072.0,5760.0
7.25,-9280.0,-11072.0,5760.0
7.2525,-9472.0,-11072.0,5696.0
7.255,-9600.0,-11136.0,5696.0
7.2575,-9728.0,-11136.0,5632.0
7.26,-9792.0,-11200.0,5568.0
7.2625,-9920.0,-11264.0,5568.0
7.265,-9984.0,-11264.0,5632.0
7.2675,-10176.0,-11264.0,5568.0
7.27,-10240.0,-11264.0,5504.0
7.2725,-10368.0,-11328.0,5568.0
7.275,-10432.0,-11392.0,5632.0
7.2775,-10496.0,-11392.0,5504.0
7.28,-10496.0,-11456.0,5504.0
7.2825,-10496.0,-11328.0,5568.0
7.285,-10560.0,-11392.0,5504.0
7.2875,-10560.0,-11456.0,5440.0
7.29,-10496.0,-11520.0,5504.0
7.2925,-10496.0,-11584.0,5504.0
7.295,-10432.0,-11584.0,5504.0
7.2975,-10496.0,-11648.0,5504.0
7.3,-10432.0,-11648.0,5376.0
7.3025,-10432.0,-11648.0,5376.0
7.305,-10432.0,-11584.0,5376.0
7.3075,-10432.0,-11584.0,5376.0
7.31,-10368.0,-11584.0,5312.0
7.3125,-10368.0,-11520.0,5312.0
7.315,-10368.0,-11584.0,5312.0
7.3175,-10240.0,-11520.0,5248.0
7.32,-10240.0,-11520.0,5312.0
7.3225,-10240.0,-11520.0,5312.0
7.325,-10240.0,-11520.0,5312.0
7.3275,-10240.0,-11520.0,5376.0
7.33,-10176.0,-11520.0,5376.0
7.3325,-10112.0,-11520.0,5312.0
7.335,-10048.0,-11520.0,5376.0
7.3375,-10048.0,-11584.0,5376.0
7.34,-9984.0,-11520.0,5312.0
7.3425,-10048.0,-11584.0,5376.0
7.345,-10048.0,-11520.0,5312.0
7.3475,-9920.0,-11392.0,5376.0
7.35,-9792.0,-11392.0,5376.0
7.3525,-9792.0,-11328.0,5376.0
7.355,-9792.0,-11328.0,5440.0
7.3575,-9792.0,-11392.0,5376.0
7.36,-9856.0,-11392.0,5440.0
7.3625,-9856.0,-11392.0,5376.0
7.365,-9856.0,-11392.0,5312.0
7.3675,-9856.0,-11456.0,5248.0
7.37,-9856.0,-11456.0,5248.0
7.3725,-9856.0,-11392.0,5184.0
7.375,-9920.0,-11328.0,5184.0
7.3775,-9856.0,-11328.0,5184.0
7.38,-9856.0,-11392.0,5120.0
7.3825,-9856.0,-11392.0,4992.0
7.385,-9792.0,-11392.0,4992.0
7.3875,-9792.0,-11456.0,5056.0
7.39,-9664.0,-11328.0,4992.0
7.3925,-9664.0,-11328.0,4992.0
7.395,-9536.0,-11392.0,4928.0
7.3975,-9536.0,-11328.0,4928.0
7.4,-9536.0,-11328.0,4992.0
7.4025,-9536.0,-11328.0,4992.0
7.405,-9472.0,-11264.0,4992.0
7.4075,-9408.0,-11200.0,4928.0
7.41,-9408.0,-11136.0,4928.0
7.4125,-9408.0,-11136.0,4928.0
7.415,-9472.0,-11136.0,4864.0
7.4175,-9408.0,-11072.0,4928.0
7.42,-9472.0,-11072.0,4864.0
7.4225,-9472.0,-11008.0,4864.0
7.425,-9536.0,-10944.0,4928.0
7.4275,-9536.0,-10944.0,4928.0
7.43,-9600.0,-10944.0,4928.0
7.4325,-9664.0,-10880.0,4928.0
7.435,-9664.0,-10880.0,4928.0
7.4375,-9792.0,-10880.0,4928.0
7.44,-9920.0,-10816.0,4928.0
7.4425,-10048.0,-10816.0,4928.0
7.445,-10048.0,-10816.0,4928.0
7.4475,-10112.0,-10752.0,4928.0
7.45,-10240.0,-10752.0,4928.0
7.4525,-10304.0,-10752.0,4928.0
7.455,-10368.0,-10688.0,4864.0
7.4575,-10432.0,-10752.0,4928.0
7.46,-10496.0,-10752.0,4864.0
7.4625,-10496.0,-10688.0,4800.0
7.465,-10496.0,-10688.0,4800.0
7.4675,-10560.0,-10624.0,4800.0
7.47,-10496.0,-10688.0,4736.0
7.4725,-10496.0,-10688.0,4736.0
7.475,-10432.0,-10688.0,4800.0
7.4775,-10432.0,-10688.0,4800.0
7.48,-10432.0,-10688.0,4800.0
7.4825,-10496.0,-10752.0,4800.0
7.485,-10432.0,-10688.0,4864.0
7.4875,-10432.0,-10688.0,4928.0
7.49,-10368.0,-10688.0,4864.0
7.4925,-10304.0,-10752.0,4928.0
7.495,-10304.0,-10816.0,4928.0
7.4975,-10304.0,-10816.0,4928.0
7.5,-10304.0,-10816.0,4928.0
7.5025,-10176.0,-10880.0,4864.0
7.505,-10176.0,-10816.0,4992.0
7.5075,-10112.0,-10816.0,5056.0
7.51,-10112.0,-10816.0,5184.0
7.5125,-10048.0,-10816.0,5184.0
7.515,-10048.0,-10880.0,5184.0
7.5175,-10048.0,-10880.0,5184.0
7.52,-10048.0,-11008.0,5248.0
7.5225,-9984.0,-11008.0,5120.0
7.525,-9984.0,-11072.0,5184.0
7.5275,-9920.0,-11072.0,5248.0
7.53,-9856.0,-11136.0,5248.0
7.5325,-9856.0,-11072.0,5248.0
7.535,-9856.0,-11072.0,5184.0
7.5375,-9856.0,-11200.0,5184.0
7.54,-9856.0,-11200.0,5120.0
7.5425,-9920.0,-11136.0,5248.0
7.545,-9920.0,-11072.0,5248.0
7.5475,-9920.0,-11136.0,5312.0
7.55,-9920.0,-11200.0,5248.0
7.5525,-9920.0,-11328.0,5312.0
7.555,-10048.0,-11328.0,5312.0
7.5575,-10048.0,-11392.0,5312.0
7.56,-10048.0,-11392.0,5248.0
7.5625,-10112.0,-11520.0,5312.0
7.565,-10176.0,-11456.0,5248.0
7.5675,-10240.0,-11456.0,5248.0
7.57,-10176.0,-11392.0,5184.0
7.5725,-10240.0,-11520.0,5184.0
7.575,-10304.0,-11584.0,5248.0
7.5775,-10304.0,-11584.0,5184.0
7.58,-10496.0,-11584.0,5184.0
7.5825,-10560.0,-11584.0,5184.0
7.585,-10624.0,-11648.0,5248.0
7.5875,-10688.0,-11712.0,5312.0
7.59,-10688.0,-11712.0,5312.0
7.5925,-10688.0,-11776.0,5248.0
7.595,-10816.0,-11712.0,5312.0
7.5975,-10816.0,-11648.0,5248.0
7.6,-10944.0,-11712.0,5248.0
7.6025,-10944.0,-11776.0,5248.0
7.605,-10880.0,-11712.0,5184.0
7.6075,-10880.0,-11648.0,5184.0
7.61,-10880.0,-11584.0,5248.0
7.6125,-10880.0,-11520.0,5312.0
7.615,-10880.0,-11520.0,5248.0
7.6175,-10880.0,-11456.0,5248.0
7.62,-10880.0,-11392.0,5312.0
7.6225,-10816.0,-11392.0,5248.0
7.625,-10816.0,-11392.0,5184.0
7.6275,-10688.0,-11392.0,5184.0
7.63,-10624.0,-11392.0,5312.0
7.6325,-10624.0,-11328.0,5312.0
7.635,-10688.0,-11328.0,5312.0
7.6375,-10624.0,-11264.0,5312.0
7.64,-10624.0,-11328.0,5312.0
7.6425,-10624.0,-11264.0,5376.0
7.645,-10560.0,-11264.0,5312.0
7.6475,-10624.0,-11264.0,5376.0
7.65,-10752.0,-11200.0,5376.0
7.6525,-10752.0,-11200.0,5376.0
7.655,-10752.0,-11264.0,5504.0
7.6575,-10816.0,-11264.0,5440.0
7.66,-10880.0,-11264.0,5376.0
7.6625,-11008.0,-11200.0,5312.0
7.665,-11008.0,-11264.0,5312.0
7.6675,-11072.0,-11328.0,5312.0
7.67,-11136.0,-11264.0,5312.0
7.6725,-11136.0,-11264.0,5248.0
7.675,-11136.0,-11264.0,5248.0
7.6775,-11264.0,-11264.0,5248.0
7.68,-11328.0,-11264.0,5248.0
7.6825,-11328.0,-11264.0,5248.0
7.685,-11328.0,-11264.0,5248.0
7.6875,-11392.0,-11200.0,5184.0
7.69,-11392.0,-11200.0,5120.0
7.6925,-11456.0,-11200.0,5120.0
7.695,-11456.0,-11264.0,5184.0
7.6975,-11456.0,-11200.0,5120.0
7.7,-11456.0,-11264.0,5248.0
7.7025,-11456.0,-11264.0,5184.0
7.705,-11392.0,-11264.0,5184.0
7.7075,-11392.0,-11264.0,5248.0
7.71,-11328.0,-11200.0,5248.0
7.7125,-11328.0,-11264.0,5376.0
7.715,-11328.0,-11264.0,5376.0
7.7175,-11328.0,-11200.0,5440.0
7.72,-11264.0,-11200.0,5376.0
7.7225,-11264.0,-11200.0,5376.0
7.725,-11200.0,-11200.0,5504.0
7.7275,-11136.0,-11136.0,5440.0
7.73,-11136.0,-11136.0,5504.0
7.7325,-11072.0,-11136.0,5504.0
7.735,-11008.0,-11136.0,5504.0
7.7375,-11008.0,-11072.0,5504.0
7.74,-11072.0,-11008.0,5568.0
7.7425,-11008.0,-11008.0,5504.0
7.745,-11008.0,-11008.0,5504.0
7.7475,-10944.0,-11008.0,5504.0
7.75,-10944.0,-11008.0,5568.0
7.7525,-10880.0,-10944.0,5632.0
7.755,-10944.0,-10944.0,5696.0
7.7575,-10944.0,-11008.0,5696.0
7.76,-10880.0,-10944.0,5760.0
7.7625,-10880.0,-10944.0,5696.0
7.765,-10880.0,-10944.0,5760.0
7.7675,-10816.0,-10944.0,5760.0
7.77,-10816.0,-11008.0,5824.0
7.7725,-10816.0,-11008.0,5760.0
7.775,-10816.0,-11008.0,5760.0
7.7775,-10880.0,-11072.0,5760.0
7.78,-10816.0,-11072.0,5760.0
7.7825,-10816.0,-11072.0,5760.0
7.785,-10816.0,-11136.0,5760.0
7.7875,-10752.0,-11136.0,5824.0
7.79,-10752.0,-11136.0,5824.0
7.7925,-10752.0,-11136.0,5760.0
7.795,-10752.0,-11136.0,5696.0
7.7975,-10752.0,-11072.0,5696.0
7.8,-10816.0,-11200.0,5760.0
7.8025,-10816.0,-11072.0,5824.0
7.805,-10816.0,-11008.0,5760.0
7.8075,-10752.0,-11008.0,5760.0
7.81,-10752.0,-11072.0,5760.0
7.8125,-10816.0,-11136.0,5760.0
7.815,-10816.0,-11136.0,5696.0
7.8175,-10880.0,-11200.0,5760.0
7.82,-10880.0,-11136.0,5824.0
7.8225,-10880.0,-11136.0,5760.0
7.825,-10880.0,-11200.0,5760.0
7.8275,-10880.0,-11200.0,5760.0
7.83,-10816.0,-11200.0,5760.0
7.8325,-10816.0,-11136.0,5824.0
7.835,-10816.0,-11200.0,5760.0
7.8375,-10752.0,-11200.0,5824.0
7.84,-10880.0,-11136.0,5760.0
7.8425,-10816.0,-11136.0,5824.0
7.845,-10752.0,-11072.0,5760.0
7.8475,-10688.0,-11008.0,5760.0
7.85,-10752.0,-11072.0,5824.0
7.8525,-10752.0,-11136.0,5760.0
7.855,-10752.0,-11072.0,5760.0
7.8575,-10752.0,-11072.0,5824.0
7.86,-10752.0,-11136.0,5760.0
7.8625,-10816.0,-11136.0,5632.0
7.865,-10816.0,-11136.0,5568.0
7.8675,-10816.0,-11072.0,5568.0
7.87,-10816.0,-11072.0,5568.0
7.8725,-10880.0,-11072.0,5568.0
7.875,-10880.0,-11072.0,5504.0
7.8775,-10944.0,-11072.0,5568.0
7.88,-11008.0,-11072.0,5568.0
7.8825,-11072.0,-11072.0,5568.0
7.885,-11136.0,-11136.0,5504.0
7.8875,-11200.0,-11136.0,5568.0
7.89,-11200.0,-11136.0,5568.0
7.8925,-11200.0,-11200.0,5568.0
7.895,-11264.0,-11200.0,5568.0
7.8975,-11264.0,-11200.0,5568.0
7.9,-11328.0,-11328.0,5632.0
7.9025,-11328.0,-11264.0,5568.0
7.905,-11328.0,-11264.0,5568.0
7.9075,-11264.0,-11264.0,5632.0
7.91,-11264.0,-11200.0,5568.0
7.9125,-11264.0,-11200.0,5568.0
7.915,-11328.0,-11200.0,5568.0
7.9175,-11328.0,-11264.0,5568.0
7.92,-11328.0,-11264.0,5568.0
7.9225,-11456.0,-11264.0,5504.0
7.925,-11456.0,-11264.0,5376.0
7.9275,-11456.0,-11264.0,5376.0
7.93,-11392.0,-11264.0,5376.0
7.9325,-11456.0,-11328.0,5376.0
7.935,-11520.0,-11328.0,5248.0
7.9375,-11520.0,-11328.0,5312.0
7.94,-11520.0,-11328.0,5184.0
7.9425,-11520.0,-11392.0,5248.0
7.945,-11648.0,-11392.0,5312.0
7.9475,-11648.0,-11392.0,5312.0
7.95,-11584.0,-11392.0,5312.0
7.9525,-11584.0,-11456.0,5312.0
7.955,-11584.0,-11520.0,5312.0
7.9575,-11584.0,-11520.0,5376.0
7.96,-11648.0,-11456.0,5248.0
7.9625,-11712.0,-11456.0,5184.0
7.965,-11648.0,-11520.0,5184.0
7.9675,-11584.0,-11520.0,5248.0
7.97,-11520.0,-11520.0,5248.0
7.9725,-11520.0,-11456.0,5184.0
7.975,-11584.0,-11392.0,5248.0
7.9775,-11520.0,-11328.0,5248.0
7.98,-11456.0,-11328.0,5248.0
7.9825,-11392.0,-11392.0,5312.0
7.985,-11328.0,-11456.0,5248.0
7.9875,-11328.0,-11392.0,5248.0
7.99,-11328.0,-11392.0,5248.0
7.9925,-11264.0,-11328.0,5248.0
7.995,-11264.0,-11328.0,5184.0
7.9975,-11200.0,-11328.0,5184.0
8.0,-11200.0,-11328.0,4992.0
8.0025,-11136.0,-11328.0,4928.0
8.005,-11136.0,-11264.0,4992.0
8.0075,-11136.0,-11264.0,5056.0
8.01,-11136.0,-11328.0,5120.0
8.0125,-11072.0,-11264.0,5120.0
8.015,-11072.0,-11264.0,4992.0
8.0175,-11072.0,-11200.0,5056.0
8.02,-11072.0,-11264.0,5056.0
8.0225,-11072.0,-11200.0,4992.0
8.025,-11072.0,-11136.0,4928.0
8.0275,-11072.0,-11136.0,4992.0
8.03,-11008.0,-11072.0,4928.0
8.0325,-11008.0,-11072.0,4864.0
8.035,-11008.0,-11008.0,4864.0
8.0375,-11008.0,-11008.0,4864.0
8.04,-11072.0,-11008.0,4928.0
8.0425,-11008.0,-10944.0,4928.0
8.045,-11008.0,-10880.0,4928.0
8.0475,-11008.0,-10816.0,4992.0
8.05,-11008.0,-10752.0,4928.0
8.0525,-11008.0,-10752.0,4928.0
8.055,-11072.0,-10752.0,4864.0
8.0575,-11072.0,-10752.0,4928.0
8.06,-11072.0,-10752.0,4928.0
8.0625,-11008.0,-10688.0,4864.0
8.065,-11136.0,-10752.0,4864.0
8.0675,-11200.0,-10752.0,4864.0
8.07,-11136.0,-10752.0,4800.0
8.0725,-11136.0,-10752.0,4864.0
8.075,-11136.0,-10752.0,4864.0
8.0775,-11136.0,-10624.0,4928.0
8.08,-11200.0,-10624.0,4928.0
8.0825,-11200.0,-10560.0,4992.0
8.085,-11136.0,-10624.0,5056.0
8.0875,-11200.0,-10688.0,5056.0
8.09,-11200.0,-10752.0,4992.0
8.0925,-11264.0,-10688.0,4928.0
8.095,-11264.0,-10752.0,4928.0
8.0975,-11328.0,-10752.0,4992.0
8.1,-11328.0,-10816.0,4928.0
8.1025,-11264.0,-10752.0,4864.0
8.105,-11264.0,-10688.0,4992.0
8.1075,-11264.0,-10752.0,4992.0
8.11,-11264.0,-10752.0,4992.0
8.1125,-11264.0,-10688.0,4992.0
8.115,-11200.0,-10688.0,4992.0
8.1175,-11136.0,-10752.0,5056.0
8.12,-11200.0,-10816.0,5056.0
8.1225,-11136.0,-10816.0,5120.0
8.125,-11136.0,-10880.0,5184.0
8.1275,-11136.0,-10816.0,5056.0
8.13,-11200.0,-10880.0,5056.0
8.1325,-11200.0,-11008.0,5056.0
8.135,-11264.0,-11008.0,5056.0
8.1375,-11264.0,-11072.0,5056.0
8.14,-11328.0,-11136.0,5120.0
8.1425,-11328.0,-11200.0,5056.0
8.145,-11264.0,-11136.0,5056.0
8.1475,-11392.0,-11136.0,5056.0
8.15,-11328.0,-11200.0,4992.0
8.1525,-11264.0,-11136.0,4992.0
8.155,-11200.0,-11136.0,4928.0
8.1575,-11200.0,-11136.0,4928.0
8.16,-11136.0,-11200.0,4992.0
8.1625,-11072.0,-11200.0,4992.0
8.165,-11072.0,-11264.0,4928.0
8.1675,-11072.0,-11264.0,4928.0
8.17,-11072.0,-11264.0,4928.0
8.1725,-11008.0,-11328.0,4928.0
8.175,-11008.0,-11264.0,4928.0
8.1775,-10944.0,-11264.0,4864.0
8.18,-10944.0,-11136.0,4864.0
8.1825,-10880.0,-11136.0,4736.0
8.185,-10816.0,-11136.0,4800.0
8.1875,-10816.0,-11136.0,4736.0
8.19,-10880.0,-11136.0,4736.0
8.1925,-10944.0,-11072.0,4800.0
8.195,-10944.0,-11072.0,4800.0
8.1975,-10880.0,-11072.0,4800.0
8.2,-10944.0,-11136.0,4800.0
8.2025,-11008.0,-11072.0,4672.0
8.205,-10944.0,-11008.0,4672.0
8.2075,-11008.0,-11008.0,4736.0
8.21,-11136.0,-10944.0,4672.0
8.2125,-11136.0,-10944.0,4608.0
8.215,-11136.0,-10944.0,4608.0
8.2175,-11200.0,-10944.0,4672.0
8.22,-11264.0,-10880.0,4672.0
8.2225,-11264.0,-10944.0,4608.0
8.225,-11392.0,-10944.0,4608.0
8.2275,-11520.0,-10944.0,4544.0
8.23,-11520.0,-10944.0,4480.0
8.2325,-11584.0,-10880.0,4480.0
8.235,-11584.0,-10880.0,4480.0
8.2375,-11648.0,-10944.0,4480.0
8.24,-11776.0,-10944.0,4352.0
8.2425,-11904.0,-11008.0,4288.0
8.245,-11968.0,-11008.0,4160.0
8.2475,-11968.0,-10944.0,4096.0
8.25,-12096.0,-10944.0,4096.0
8.2525,-12096.0,-11008.0,4096.0
8.255,-12096.0,-11008.0,4096.0
8.2575,-12160.0,-11008.0,4096.0
8.26,-12160.0,-11008.0,4160.0
8.2625,-12224.0,-10880.0,4096.0
8.265,-12224.0,-10880.0,4096.0
8.2675,-12224.0,-11008.0,4032.0
8.27,-12288.0,-11008.0,4096.0
8.2725,-12352.0,-11072.0,4096.0
8.275,-12352.0,-11072.0,4096.0
8.2775,-12352.0,-11072.0,4032.0
8.28,-12352.0,-11072.0,4032.0
8.2825,-12352.0,-11072.0,4160.0
8.285,-12416.0,-11072.0,4160.0
8.2875,-12352.0,-11072.0,4160.0
8.29,-12288.0,-11072.0,4224.0
8.2925,-12352.0,-11072.0,4224.0
8.295,-12352.0,-11072.0,4224.0
8.2975,-12288.0,-11072.0,4224.0
8.3,-12288.0,-11072.0,4160.0
8.3025,-12288.0,-11136.0,4224.0
8.305,-12224.0,-11200.0,4288.0
8.3075,-12160.0,-11200.0,4288.0
8.31,-12096.0,-11200.0,4224.0
8.3125,-12096.0,-11264.0,4224.0
8.315,-11968.0,-11136.0,4224.0
8.3175,-11904.0,-11200.0,4224.0
8.32,-11712.0,-11200.0,4224.0
8.3225,-11648.0,-11264.0,4224.0
8.325,-11584.0,-11136.0,4224.0
8.3275,-11584.0,-11136.0,4224.0
8.33,-11520.0,-11136.0,4288.0
8.3325,-11456.0,-11136.0,4288.0
8.335,-11456.0,-11136.0,4352.0
8.3375,-11328.0,-11136.0,4416.0
8.34,-11264.0,-11136.0,4352.0
8.3425,-11264.0,-11136.0,4416.0
8.345,-11264.0,-11136.0,4416.0
8.3475,-11136.0,-11072.0,4480.0
8.35,-11200.0,-11008.0,4544.0
8.3525,-11200.0,-11008.0,4608.0
8.355,-11200.0,-11008.0,4672.0
8.3575,-11200.0,-10944.0,4736.0
8.36,-11136.0,-11008.0,4736.0
8.3625,-11136.0,-10944.0,4800.0
8.365,-11136.0,-10944.0,4800.0
8.3675,-11072.0,-10880.0,4800.0
8.37,-11008.0,-10880.0,4800.0
8.3725,-11072.0,-10944.0,4800.0
8.375,-11072.0,-10944.0,4800.0
8.3775,-11008.0,-10944.0,4800.0
8.38,-11008.0,-11008.0,4800.0
8.3825,-11008.0,-11008.0,4736.0
8.385,-11008.0,-10944.0,4800.0
8.3875,-11008.0,-10944.0,4736.0
8.39,-10944.0,-10944.0,4800.0
8.3925,-10944.0,-10944.0,4736.0
8.395,-10944.0,-11008.0,4736.0
8.3975,-10944.0,-10944.0,4736.0
8.4,-10880.0,-10944.0,4736.0
8.4025,-10880.0,-10880.0,4672.0
8.405,-10816.0,-10816.0,4736.0
8.4075,-10880.0,-10880.0,4736.0
8.41,-10880.0,-10816.0,4736.0
8.4125,-10816.0,-10944.0,4864.0
8.415,-10816.0,-10880.0,4800.0
8.4175,-10752.0,-10880.0,4800.0
8.42,-10752.0,-10816.0,4800.0
8.4225,-10816.0,-10880.0,4736.0
8.425,-10816.0,-10880.0,4800.0
8.4275,-10752.0,-10880.0,4800.0
8.43,-10752.0,-10880.0,4800.0
8.4325,-10752.0,-10880.0,4864.0
8.435,-10752.0,-10816.0,4864.0
8.4375,-10752.0,-10816.0,4864.0
8.44,-10880.0,-10752.0,4864.0
8.4425,-10880.0,-10816.0,4928.0
8.445,-10880.0,-10816.0,4928.0
8.4475,-10880.0,-10880.0,4928.0
8.45,-10944.0,-10816.0,4928.0
8.4525,-11008.0,-10816.0,4992.0
8.455,-11072.0,-10880.0,4992.0
8.4575,-11072.0,-10880.0,4928.0
8.46,-11072.0,-10880.0,4992.0
8.4625,-11136.0,-10880.0,4992.0
8.465,-11136.0,-10816.0,4992.0
8.4675,-11136.0,-10880.0,4928.0
8.47,-11200.0,-10880.0,4864.0
8.4725,-11200.0,-10880.0,4928.0
8.475,-11264.0,-10880.0,4864.0
8.4775,-11328.0,-10880.0,4864.0
8.48,-11456.0,-10880.0,4928.0
8.4825,-11456.0,-10880.0,4864.0
8.485,-11520.0,-10880.0,4864.0
8.4875,-11584.0,-10880.0,4864.0
8.49,-11648.0,-10944.0,4864.0
8.4925,-11648.0,-10880.0,4800.0
8.495,-11648.0,-10944.0,4800.0
8.4975,-11648.0,-11008.0,4800.0
8.5,-11648.0,-10944.0,4800.0
8.5025,-11712.0,-10944.0,4800.0
8.505,-11648.0,-10944.0,4864.0
8.5075,-11584.0,-10880.0,4928.0
8.51,-11584.0,-10816.0,4928.0
8.5125,-11584.0,-10816.0,4928.0
8.515,-11520.0,-10752.0,4992.0
8.5175,-11520.0,-10752.0,5056.0
8.52,-11456.0,-10816.0,4992.0
8.5225,-11328.0,-10688.0,4928.0
8.525,-11264.0,-10688.0,4992.0
8.5275,-11200.0,-10688.0,4992.0
8.53,-11136.0,-10688.0,4992.0
8.5325,-11072.0,-10688.0,5056.0
8.535,-11008.0,-10624.0,5056.0
8.5375,-10944.0,-10624.0,5120.0
8.54,-10816.0,-10624.0,5184.0
8.5425,-10688.0,-10624.0,5248.0
8.545,-10688.0,-10624.0,5184.0
8.5475,-10560.0,-10560.0,5184.0
8.55,-10560.0,-10624.0,5248.0
8.5525,-10624.0,-10624.0,5248.0
8.555,-10560.0,-10624.0,5312.0
8.5575,-10496.0,-10624.0,5248.0
8.56,-10432.0,-10624.0,5312.0
8.5625,-10368.0,-10624.0,5248.0
8.565,-10368.0,-10688.0,5248.0
8.5675,-10368.0,-10560.0,5248.0
8.57,-10368.0,-10560.0,5248.0
8.5725,-10368.0,-10560.0,5248.0
8.575,-10432.0,-10624.0,5184.0
8.5775,-10496.0,-10624.0,5248.0
8.58,-10496.0,-10624.0,5248.0
8.5825,-10496.0,-10688.0,5184.0
8.585,-10560.0,-10688.0,5248.0
8.5875,-10560.0,-10688.0,5248.0
8.59,-10560.0,-10688.0,5184.0
8.5925,-10624.0,-10688.0,5248.0
8.595,-10624.0,-10688.0,5184.0
8.5975,-10624.0,-10752.0,5120.0
8.6,-10688.0,-10816.0,5056.0
8.6025,-10624.0,-10816.0,5056.0
8.605,-10688.0,-10816.0,5056.0
8.6075,-10752.0,-10880.0,5056.0
8.61,-10752.0,-10816.0,4928.0
8.6125,-10752.0,-10880.0,4928.0
8.615,-10752.0,-10944.0,4992.0
8.6175,-10752.0,-10944.0,4992.0
8.62,-10688.0,-10880.0,4992.0
8.6225,-10688.0,-10944.0,4928.0
8.625,-10624.0,-11008.0,4992.0
8.6275,-10688.0,-11008.0,4992.0
8.63,-10624.0,-11008.0,4992.0
8.6325,-10560.0,-11072.0,4928.0
8.635,-10560.0,-11008.0,4928.0
8.6375,-10496.0,-11008.0,4928.0
8.64,-10432.0,-11072.0,5056.0
8.6425,-10432.0,-11008.0,5120.0
8.645,-10432.0,-11008.0,5120.0
8.6475,-10432.0,-11008.0,5120.0
8.65,-10496.0,-11008.0,5120.0
8.6525,-10496.0,-11008.0,5184.0
8.655,-10432.0,-11008.0,5184.0
8.6575,-10432.0,-10944.0,5120.0
8.66,-10496.0,-10944.0,5120.0
8.6625,-10560.0,-10944.0,5184.0
8.665,-10560.0,-11008.0,5248.0
8.6675,-10560.0,-11008.0,5184.0
8.67,-10688.0,-11072.0,5184.0
8.6725,-10688.0,-11072.0,5120.0
8.675,-10752.0,-11136.0,5056.0
8.6775,-10880.0,-11072.0,5056.0
8.68,-10816.0,-11136.0,4992.0
8.6825,-10944.0,-11136.0,4928.0
8.685,-10944.0,-11136.0,4864.0
8.6875,-10944.0,-11200.0,4800.0
8.69,-11008.0,-11200.0,4800.0
8.6925,-11072.0,-11264.0,4736.0
8.695,-11136.0,-11328.0,4736.0
8.6975,-11136.0,-11200.0,4736.0
8.7,-11200.0,-11264.0,4672.0
8.7025,-11200.0,-11328.0,4736.0
8.705,-11200.0,-11328.0,4800.0
8.7075,-11200.0,-11392.0,4800.0
8.71,-11200.0,-11328.0,4800.0
8.7125,-11264.0,-11328.0,4800.0
8.715,-11328.0,-11328.0,4672.0
8.7175,-11264.0,-11264.0,4736.0
8.72,-11264.0,-11200.0,4672.0
8.7225,-11264.0,-11200.0,4736.0
8.725,-11328.0,-11136.0,4864.0
8.7275,-11328.0,-11136.0,4928.0
8.73,-11392.0,-11072.0,4928.0
8.7325,-11456.0,-11072.0,5056.0
8.735,-11392.0,-11008.0,5056.0
8.7375,-11456.0,-10944.0,5056.0
8.74,-11456.0,-10880.0,5056.0
8.7425,-11456.0,-10816.0,5056.0
8.745,-11520.0,-10880.0,5120.0
8.7475,-11584.0,-10816.0,5184.0
8.75,-11520.0,-10816.0,5120.0
8.7525,-11584.0,-10880.0,5120.0
8.755,-11584.0,-10880.0,5120.0
8.7575,-11584.0,-10944.0,5056.0
8.76,-11520.0,-10944.0,5120.0
8.7625,-11520.0,-10944.0,5184.0
8.765,-11456.0,-10880.0,5120.0
8.7675,-11392.0,-10944.0,5056.0
8.77,-11328.0,-10880.0,5056.0
8.7725,-11328.0,-10816.0,5120.0
8.775,-11264.0,-10816.0,4992.0
8.7775,-11200.0,-10816.0,5056.0
8.78,-11072.0,-10752.0,5120.0
8.7825,-11008.0,-10688.0,5120.0
8.785,-10944.0,-10752.0,4992.0
8.7875,-10944.0,-10816.0,4992.0
8.79,-10944.0,-10816.0,4992.0
8.7925,-10944.0,-10816.0,5056.0
8.795,-10944.0,-10816.0,4992.0
8.7975,-10944.0,-10752.0,4992.0
8.8,-10816.0,-10816.0,4928.0
8.8025,-10752.0,-10752.0,4864.0
8.805,-10752.0,-10624.0,4736.0
8.8075,-10752.0,-10688.0,4800.0
8.81,-10752.0,-10624.0,4800.0
8.8125,-10880.0,-10624.0,4800.0
8.815,-10880.0,-10560.0,4736.0
8.8175,-10944.0,-10560.0,4672.0
8.82,-10880.0,-10624.0,4736.0
8.8225,-10944.0,-10688.0,4800.0
8.825,-10944.0,-10688.0,4800.0
8.8275,-10880.0,-10688.0,4800.0
8.83,-10880.0,-10624.0,4736.0
8.8325,-10880.0,-10560.0,4672.0
8.835,-10880.0,-10624.0,4608.0
8.8375,-10816.0,-10624.0,4544.0
8.84,-10880.0,-10624.0,4608.0
8.8425,-10752.0,-10496.0,4544.0
8.845,-10688.0,-10432.0,4672.0
8.8475,-10624.0,-10432.0,4864.0
8.85,-10560.0,-10496.0,4800.0
8.8525,-10560.0,-10432.0,4736.0
8.855,-10560.0,-10432.0,4672.0
8.8575,-10560.0,-10432.0,4608.0
8.86,-10496.0,-10432.0,4608.0
8.8625,-10432.0,-10368.0,4672.0
8.865,-10368.0,-10432.0,4608.0
8.8675,-10432.0,-10432.0,4544.0
8.87,-10496.0,-10368.0,4608.0
8.8725,-10560.0,-10368.0,4608.0
8.875,-10560.0,-10368.0,4608.0
8.8775,-10624.0,-10368.0,4608.0
8.88,-10752.0,-10432.0,4736.0
8.8825,-10880.0,-10432.0,4736.0
8.885,-10944.0,-10496.0,4736.0
8.8875,-10944.0,-10432.0,4800.0
8.89,-11072.0,-10496.0,4736.0
8.8925,-11072.0,-10560.0,4736.0
8.895,-11200.0,-10560.0,4800.0
8.8975,-11264.0,-10560.0,4736.0
8.9,-11328.0,-10560.0,4672.0
8.9025,-11456.0,-10560.0,4736.0
8.905,-11520.0,-10624.0,4736.0
8.9075,-11520.0,-10688.0,4608.0
8.91,-11584.0,-10688.0,4608.0
8.9125,-11712.0,-10688.0,4544.0
8.915,-11712.0,-10816.0,4544.0
8.9175,-11776.0,-10816.0,4480.0
8.92,-11840.0,-10816.0,4416.0
8.9225,-11904.0,-10816.0,4416.0
8.925,-11840.0,-10880.0,4352.0
8.9275,-11904.0,-10944.0,4416.0
8.93,-11968.0,-11008.0,4416.0
8.9325,-11968.0,-11008.0,4480.0
8.935,-12032.0,-11072.0,4544.0
8.9375,-11968.0,-11136.0,4608.0
8.94,-12032.0,-11136.0,4608.0
8.9425,-12032.0,-11136.0,4608.0
8.945,-12032.0,-11200.0,4608.0
8.9475,-12032.0,-11136.0,4608.0
8.95,-11968.0,-11136.0,4672.0
8.9525,-12032.0,-11200.0,4672.0
8.955,-12032.0,-11200.0,4672.0
8.9575,-12032.0,-11200.0,4672.0
8.96,-11968.0,-11136.0,4672.0
8.9625,-11968.0,-11136.0,4736.0
8.965,-11968.0,-11136.0,4672.0
8.9675,-11968.0,-11136.0,4672.0
8.97,-11968.0,-11136.0,4736.0
8.9725,-11904.0,-11136.0,4800.0
8.975,-11968.0,-11136.0,4800.0
8.9775,-11904.0,-11136.0,4800.0
8.98,-11840.0,-11072.0,4800.0
8.9825,-11776.0,-11072.0,4736.0
8.985,-11776.0,-11072.0,4800.0
8.9875,-11776.0,-11008.0,4864.0
8.99,-11776.0,-11072.0,4864.0
8.9925,-11712.0,-11008.0,4800.0
8.995,-11712.0,-11008.0,4800.0
8.9975,-11712.0,-11008.0,4800.0
9.0,-11712.0,-10944.0,4864.0
9.0025,-11584.0,-10944.0,4928.0
9.005,-11584.0,-11072.0,4928.0
9.0075,-11648.0,-11008.0,4928.0
9.01,-11648.0,-11136.0,4992.0
9.0125,-11648.0,-11072.0,4928.0
9.015,-11712.0,-11136.0,4992.0
9.0175,-11776.0,-11136.0,4992.0
9.02,-11712.0,-11136.0,4992.0
9.0225,-11776.0,-11136.0,5120.0
9.025,-11776.0,-11136.0,5056.0
9.0275,-11840.0,-11136.0,4928.0
9.03,-11840.0,-11072.0,4928.0
9.0325,-11904.0,-11072.0,4928.0
9.035,-11904.0,-11200.0,4928.0
9.0375,-11968.0,-11200.0,4928.0
9.04,-12032.0,-11200.0,4928.0
9.0425,-12096.0,-11136.0,4800.0
9.045,-12032.0,-11200.0,4864.0
9.0475,-12096.0,-11200.0,4864.0
9.05,-12096.0,-11264.0,4864.0
9.0525,-12160.0,-11264.0,4864.0
9.055,-12224.0,-11264.0,4864.0
9.0575,-12224.0,-11200.0,4800.0
9.06,-12160.0,-11200.0,4800.0
9.0625,-12160.0,-11200.0,4864.0
9.065,-12160.0,-11136.0,4864.0
9.0675,-12160.0,-11136.0,4736.0
9.07,-12160.0,-11136.0,4736.0
9.0725,-12160.0,-11136.0,4672.0
9.075,-12224.0,-11072.0,4672.0
9.0775,-12160.0,-11072.0,4672.0
9.08,-12160.0,-11072.0,4736.0
9.0825,-12160.0,-11072.0,4736.0
9.085,-12224.0,-11072.0,4736.0
9.0875,-12288.0,-11072.0,4736.0
9.09,-12224.0,-11072.0,4672.0
9.0925,-12288.0,-11008.0,4672.0
9.095,-12352.0,-11008.0,4608.0
9.0975,-12352.0,-11008.0,4672.0
9.1,-12352.0,-10944.0,4672.0
9.1025,-12416.0,-10880.0,4672.0
9.105,-12352.0,-10880.0,4672.0
9.1075,-12416.0,-10880.0,4672.0
9.11,-12416.0,-10880.0,4608.0
9.1125,-12480.0,-10880.0,4608.0
9.115,-12480.0,-10880.0,4672.0
9.1175,-12544.0,-10816.0,4608.0
9.12,-12544.0,-10880.0,4608.0
9.1225,-12544.0,-10816.0,4608.0
9.125,-12544.0,-10880.0,4544.0
9.1275,-12480.0,-10880.0,4480.0
9.13,-12480.0,-10816.0,4480.0
9.1325,-12544.0,-10752.0,4480.0
9.135,-12416.0,-10816.0,4480.0
9.1375,-12480.0,-10752.0,4480.0
9.14,-12480.0,-10816.0,4480.0
9.1425,-12480.0,-10816.0,4480.0
9.145,-12480.0,-10816.0,4416.0
9.1475,-12480.0,-10880.0,4352.0
9.15,-12480.0,-10816.0,4416.0
9.1525,-12480.0,-10816.0,4352.0
9.155,-12480.0,-10816.0,4352.0
9.1575,-12480.0,-10752.0,4352.0
9.16,-12480.0,-10752.0,4416.0
9.1625,-12480.0,-10752.0,4416.0
9.165,-12416.0,-10816.0,4352.0
9.1675,-12480.0,-10816.0,4352.0
9.17,-12480.0,-10688.0,4288.0
9.1725,-12480.0,-10752.0,4352.0
9.175,-12480.0,-10752.0,4288.0
9.1775,-12416.0,-10624.0,4288.0
9.18,-12416.0,-10688.0,4352.0
9.1825,-12352.0,-10688.0,4352.0
9.185,-12416.0,-10752.0,4352.0
9.1875,-12480.0,-10688.0,4352.0
9.19,-12416.0,-10688.0,4288.0
9.1925,-12416.0,-10688.0,4288.0
9.195,-12416.0,-10688.0,4288.0
9.1975,-12416.0,-10560.0,4288.0
9.2,-12352.0,-10624.0,4288.0
9.2025,-12416.0,-10560.0,4288.0
9.205,-12416.0,-10496.0,4352.0
9.2075,-12480.0,-10496.0,4352.0
9.21,-12480.0,-10560.0,4352.0
9.2125,-12544.0,-10560.0,4288.0
9.215,-12608.0,-10496.0,4352.0
9.2175,-12672.0,-10560.0,4352.0
9.22,-12736.0,-10624.0,4416.0
9.2225,-12864.0,-10624.0,4416.0
9.225,-12864.0,-10624.0,4352.0
9.2275,-12928.0,-10688.0,4352.0
9.23,-13056.0,-10688.0,4352.0
9.2325,-13120.0,-10688.0,4352.0
9.235,-13248.0,-10624.0,4288.0
9.2375,-13376.0,-10624.0,4352.0
9.24,-13504.0,-10560.0,4288.0
9.2425,-13568.0,-10560.0,4352.0
9.245,-13632.0,-10496.0,4352.0
9.2475,-13760.0,-10560.0,4416.0
9.25,-13888.0,-10560.0,4352.0
9.2525,-13952.0,-10560.0,4288.0
9.255,-14016.0,-10560.0,4352.0
9.2575,-14144.0,-10560.0,4352.0
9.26,-14272.0,-10560.0,4416.0
9.2625,-14336.0,-10496.0,4352.0
9.265,-14464.0,-10560.0,4352.0
9.2675,-14528.0,-10560.0,4352.0
9.27,-14656.0,-10496.0,4352.0
9.2725,-14848.0,-10496.0,4288.0
9.275,-14848.0,-10496.0,4288.0
9.2775,-14976.0,-10560.0,4288.0
9.28,-15232.0,-10496.0,4224.0
9.2825,-15232.0,-10496.0,4224.0
9.285,-15424.0,-10496.0,4096.0
9.2875,-15552.0,-10432.0,4160.0
9.29,-15616.0,-10368.0,4096.0
9.2925,-15744.0,-10432.0,4160.0
9.295,-15808.0,-10368.0,4096.0
9.2975,-15936.0,-10304.0,4096.0
9.3,-16064.0,-10304.0,4032.0
9.3025,-16128.0,-10304.0,4032.0
9.305,-16256.0,-10304.0,4032.0
9.3075,-16320.0,-10304.0,4032.0
9.31,-16384.0,-10304.0,4096.0
9.3125,-16512.0,-10304.0,4160.0
9.315,-16576.0,-10304.0,4160.0
9.3175,-16640.0,-10304.0,4224.0
9.32,-16768.0,-10240.0,4224.0
9.3225,-16896.0,-10176.0,4288.0
9.325,-16896.0,-10176.0,4224.0
9.3275,-17024.0,-10176.0,4160.0
9.33,-17088.0,-10112.0,4160.0
9.3325,-17088.0,-9984.0,4096.0
9.335,-17152.0,-9984.0,4096.0
9.3375,-17152.0,-9920.0,4032.0
9.34,-17216.0,-9920.0,3968.0
9.3425,-17152.0,-9920.0,4032.0
9.345,-17152.0,-9984.0,4032.0
9.3475,-17088.0,-9856.0,3968.0
9.35,-17024.0,-9792.0,3968.0
9.3525,-16896.0,-9792.0,3968.0
9.355,-16832.0,-9728.0,3904.0
9.3575,-16640.0,-9664.0,3904.0
9.36,-16320.0,-9472.0,4032.0
9.3625,-16128.0,-9344.0,4096.0
9.365,-16000.0,-9280.0,4032.0
9.3675,-15744.0,-9216.0,4160.0
9.37,-15552.0,-9088.0,4352.0
9.3725,-15360.0,-9024.0,4480.0
9.375,-15168.0,-8960.0,4480.0
9.3775,-14976.0,-8768.0,4544.0
9.38,-14720.0,-8704.0,4544.0
9.3825,-14464.0,-8640.0,4608.0
9.385,-14208.0,-8512.0,4672.0
9.3875,-14080.0,-8448.0,4672.0
9.39,-13824.0,-8384.0,4736.0
9.3925,-13696.0,-8320.0,4736.0
9.395,-13568.0,-8320.0,4608.0
9.3975,-13440.0,-8256.0,4608.0
9.4,-13312.0,-8192.0,4672.0
9.4025,-13184.0,-8192.0,4608.0
9.405,-13120.0,-8128.0,4672.0
9.4075,-13056.0,-7936.0,4672.0
9.41,-12928.0,-7744.0,4800.0
9.4125,-12864.0,-7680.0,4736.0
9.415,-12672.0,-7680.0,4800.0
9.4175,-12672.0,-7680.0,4672.0
9.42,-12672.0,-7552.0,4736.0
9.4225,-12608.0,-7488.0,4672.0
9.425,-12544.0,-7360.0,4736.0
9.4275,-12608.0,-7232.0,4672.0
9.43,-12544.0,-7232.0,4608.0
9.4325,-12480.0,-7168.0,4544.0
9.435,-12480.0,-7168.0,4544.0
9.4375,-12416.0,-7104.0,4416.0
9.44,-12352.0,-7104.0,4480.0
9.4425,-12288.0,-7040.0,4416.0
9.445,-12224.0,-6976.0,4352.0
9.4475,-12288.0,-6976.0,4416.0
9.45,-12288.0,-6912.0,4416.0
9.4525,-12224.0,-6848.0,4480.0
9.455,-12224.0,-6720.0,4480.0
9.4575,-12160.0,-6720.0,4480.0
9.46,-12096.0,-6656.0,4416.0
9.4625,-12032.0,-6592.0,4416.0
9.465,-11968.0,-6656.0,4480.0
9.4675,-11904.0,-6656.0,4544.0
9.47,-11968.0,-6592.0,4544.0
9.4725,-11968.0,-6528.0,4544.0
9.475,-11904.0,-6464.0,4544.0
9.4775,-11904.0,-6464.0,4480.0
9.48,-11904.0,-6464.0,4480.0
9.4825,-11904.0,-6464.0,4544.0
9.485,-11968.0,-6400.0,4480.0
9.4875,-12032.0,-6336.0,4480.0
9.49,-12096.0,-6336.0,4416.0
9.4925,-12096.0,-6272.0,4416.0
9.495,-12096.0,-6208.0,4352.0
9.4975,-12224.0,-6144.0,4352.0
9.5,-12224.0,-6080.0,4352.0
9.5025,-12288.0,-6016.0,4352.0
9.505,-12352.0,-6080.0,4352.0
9.5075,-12416.0,-6080.0,4416.0
9.51,-12480.0,-6144.0,4352.0
9.5125,-12608.0,-6016.0,4352.0
9.515,-12672.0,-5952.0,4288.0
9.5175,-12672.0,-6016.0,4288.0
9.52,-12928.0,-6080.0,4224.0
9.5225,-12992.0,-5952.0,4288.0
9.525,-13184.0,-6016.0,4224.0
9.5275,-13312.0,-6080.0,4352.0
9.53,-13504.0,-6144.0,4288.0
9.5325,-13568.0,-6208.0,4352.0
9.535,-13696.0,-6208.0,4288.0
9.5375,-13824.0,-6208.0,4352.0
9.54,-13952.0,-6272.0,4352.0
9.5425,-14080.0,-6336.0,4352.0
9.545,-14272.0,-6400.0,4352.0
9.5475,-14400.0,-6400.0,4352.0
9.55,-14528.0,-6464.0,4416.0
9.5525,-14656.0,-6464.0,4416.0
9.555,-14784.0,-6528.0,4416.0
9.5575,-14912.0,-6592.0,4416.0
9.56,-15040.0,-6528.0,4352.0
9.5625,-15168.0,-6592.0,4416.0
9.565,-15296.0,-6528.0,4480.0
9.5675,-15360.0,-6592.0,4416.0
9.57,-15424.0,-6592.0,4480.0
9.5725,-15552.0,-6592.0,4480.0
9.575,-15552.0,-6528.0,4416.0
9.5775,-15552.0,-6464.0,4416.0
9.58,-15616.0,-6528.0,4352.0
9.5825,-15680.0,-6528.0,4416.0
9.585,-15744.0,-6528.0,4416.0
9.5875,-15808.0,-6528.0,4352.0
9.59,-15808.0,-6592.0,4416.0
9.5925,-15808.0,-6528.0,4352.0
9.595,-15808.0,-6592.0,4352.0
9.5975,-15872.0,-6592.0,4416.0
9.6,-15936.0,-6592.0,4480.0
9.6025,-15872.0,-6592.0,4480.0
9.605,-15936.0,-6656.0,4416.0
9.6075,-15936.0,-6592.0,4480.0
9.61,-16000.0,-6656.0,4544.0
9.6125,-16000.0,-6656.0,4544.0
9.615,-16064.0,-6720.0,4672.0
9.6175,-16064.0,-6720.0,4608.0
9.62,-16064.0,-6720.0,4672.0
9.6225,-16128.0,-6656.0,4608.0
9.625,-16192.0,-6720.0,4672.0
9.6275,-16256.0,-6656.0,4736.0
9.63,-16256.0,-6656.0,4736.0
9.6325,-16320.0,-6656.0,4736.0
9.635,-16320.0,-6656.0,4800.0
9.6375,-16320.0,-6592.0,4864.0
9.64,-16320.0,-6528.0,4736.0
9.6425,-16256.0,-6464.0,4672.0
9.645,-16320.0,-6400.0,4672.0
9.6475,-16320.0,-6336.0,4800.0
9.65,-16256.0,-6336.0,4928.0
9.6525,-16256.0,-6272.0,4992.0
9.655,-16192.0,-6272.0,4992.0
9.6575,-16192.0,-6272.0,4864.0
9.66,-16192.0,-6272.0,4992.0
9.6625,-16256.0,-6208.0,4928.0
9.665,-16256.0,-6144.0,4928.0
9.6675,-16256.0,-6080.0,4992.0
9.67,-16192.0,-6080.0,4992.0
9.6725,-16128.0,-6144.0,4992.0
9.675,-16192.0,-6080.0,5056.0
9.6775,-16128.0,-6080.0,5056.0
9.68,-16128.0,-6016.0,5184.0
9.6825,-16064.0,-6016.0,5184.0
9.685,-16064.0,-6080.0,5184.0
9.6875,-16000.0,-6016.0,5184.0
9.69,-15936.0,-6080.0,5248.0
9.6925,-15936.0,-6016.0,5248.0
9.695,-15808.0,-6080.0,5248.0
9.6975,-15808.0,-6016.0,5248.0
9.7,-15744.0,-6016.0,5312.0
9.7025,-15680.0,-6016.0,5248.0
9.705,-15680.0,-6016.0,5312.0
9.7075,-15680.0,-5952.0,5376.0
9.71,-15616.0,-5888.0,5440.0
9.7125,-15552.0,-5888.0,5376.0
9.715,-15552.0,-5952.0,5440.0
9.7175,-15488.0,-6016.0,5440.0
9.72,-15488.0,-6080.0,5440.0
9.7225,-15488.0,-6080.0,5376.0
9.725,-15488.0,-6016.0,5376.0
9.7275,-15488.0,-5888.0,5440.0
9.73,-15488.0,-5888.0,5504.0
9.7325,-15424.0,-6016.0,5504.0
9.735,-15296.0,-6144.0,5440.0
9.7375,-15360.0,-6208.0,5568.0
9.74,-15296.0,-6272.0,5568.0
9.7425,-15360.0,-6336.0,5568.0
9.745,-15296.0,-6272.0,5568.0
9.7475,-15296.0,-6208.0,5568.0
9.75,-15296.0,-6272.0,5504.0
9.7525,-15168.0,-6272.0,5568.0
9.755,-15104.0,-6208.0,5568.0
9.7575,-15104.0,-6144.0,5696.0
9.76,-15040.0,-6336.0,5760.0
9.7625,-15040.0,-6400.0,5760.0
9.765,-15040.0,-6400.0,5632.0
9.7675,-14976.0,-6464.0,5632.0
9.77,-14848.0,-6464.0,5632.0
9.7725,-14848.0,-6528.0,5760.0
9.775,-14784.0,-6592.0,5696.0
9.7775,-14784.0,-6592.0,5632.0
9.78,-14720.0,-6656.0,5632.0
9.7825,-14720.0,-6656.0,5568.0
9.785,-14656.0,-6656.0,5568.0
9.7875,-14528.0,-6656.0,5568.0
9.79,-14528.0,-6656.0,5504.0
9.7925,-14464.0,-6592.0,5504.0
9.795,-14400.0,-6656.0,5504.0
9.7975,-14400.0,-6720.0,5440.0
9.8,-14336.0,-6656.0,5504.0
9.8025,-14272.0,-6656.0,5440.0
9.805,-14272.0,-6720.0,5440.0
9.8075,-14208.0,-6720.0,5504.0
9.81,-14144.0,-6720.0,5376.0
9.8125,-14144.0,-6784.0,5312.0
9.815,-14144.0,-6784.0,5440.0
9.8175,-14144.0,-6784.0,5376.0
9.82,-14080.0,-6784.0,5376.0
9.8225,-14080.0,-6784.0,5376.0
9.825,-14016.0,-6784.0,5376.0
9.8275,-14016.0,-6720.0,5376.0
9.83,-13952.0,-6720.0,5376.0
9.8325,-13888.0,-6720.0,5312.0
9.835,-13888.0,-6656.0,5312.0
9.8375,-13888.0,-6656.0,5248.0
