time_stamp,acc_x,acc_y,acc_z
0.0,-11776.0,-9984.0,5760.0
0.0025,-11776.0,-9920.0,5696.0
0.005,-11776.0,-9984.0,5696.0
0.0075,-11776.0,-9984.0,5696.0
0.01,-11776.0,-9920.0,5696.0
0.0125,-11776.0,-9920.0,5696.0
0.015,-11776.0,-9984.0,5696.0
0.0175,-11840.0,-10048.0,5696.0
0.02,-11840.0,-9984.0,5696.0
0.0225,-11840.0,-10048.0,5632.0
0.025,-11840.0,-9984.0,5632.0
0.0275,-11840.0,-9984.0,5632.0
0.03,-11904.0,-9920.0,5696.0
0.0325,-11840.0,-9920.0,5696.0
0.035,-11840.0,-9920.0,5696.0
0.0375,-11904.0,-9920.0,5696.0
0.04,-11840.0,-9920.0,5696.0
0.0425,-11840.0,-9920.0,5760.0
0.045,-11840.0,-9920.0,5696.0
0.0475,-11840.0,-9856.0,5696.0
0.05,-11840.0,-9856.0,5632.0
0.0525,-11776.0,-9856.0,5632.0
0.055,-11840.0,-9856.0,5696.0
0.0575,-11840.0,-9856.0,5696.0
0.06,-11904.0,-9856.0,5632.0
0.0625,-11840.0,-9920.0,5568.0
0.065,-11776.0,-9920.0,5568.0
0.0675,-11776.0,-9856.0,5568.0
0.07,-11776.0,-9792.0,5568.0
0.0725,-11840.0,-9856.0,5632.0
0.075,-11840.0,-9856.0,5632.0
0.0775,-11712.0,-9856.0,5632.0
0.08,-11712.0,-9792.0,5696.0
0.0825,-11776.0,-9792.0,5632.0
0.085,-11840.0,-9792.0,5568.0
0.0875,-11840.0,-9856.0,5696.0
0.09,-11776.0,-9856.0,5632.0
0.0925,-11712.0,-9856.0,5696.0
0.095,-11776.0,-9856.0,5632.0
0.0975,-11776.0,-9856.0,5632.0
0.1,-11776.0,-9792.0,5568.0
0.1025,-11776.0,-9792.0,5632.0
0.105,-11776.0,-9792.0,5632.0
0.1075,-11776.0,-9792.0,5632.0
0.11,-11776.0,-9792.0,5696.0
0.1125,-11712.0,-9792.0,5632.0
0.115,-11776.0,-9792.0,5632.0
0.1175,-11776.0,-9792.0,5632.0
0.12,-11776.0,-9792.0,5568.0
0.1225,-11776.0,-9792.0,5568.0
0.125,-11776.0,-9856.0,5632.0
0.1275,-11776.0,-9856.0,5568.0
0.13,-11776.0,-9856.0,5568.0
0.1325,-11840.0,-9856.0,5568.0
0.135,-11840.0,-9856.0,5568.0
0.1375,-11840.0,-9920.0,5568.0
0.14,-11840.0,-9856.0,5568.0
0.1425,-11840.0,-9856.0,5504.0
0.145,-11840.0,-9856.0,5504.0
0.1475,-11840.0,-9856.0,5504.0
0.15,-11776.0,-9792.0,5568.0
0.1525,-11840.0,-9792.0,5568.0
0.155,-11840.0,-9728.0,5504.0
0.1575,-11840.0,-9792.0,5568.0
0.16,-11840.0,-9792.0,5632.0
0.1625,-11840.0,-9792.0,5632.0
0.165,-11776.0,-9856.0,5632.0
0.1675,-11840.0,-9792.0,5632.0
0.17,-11840.0,-9856.0,5632.0
0.1725,-11840.0,-9856.0,5632.0
0.175,-11840.0,-9856.0,5568.0
0.1775,-11840.0,-9856.0,5504.0
0.18,-11840.0,-9792.0,5504.0
0.1825,-11840.0,-9792.0,5568.0
0.185,-11776.0,-9792.0,5568.0
0.1875,-11776.0,-9792.0,5568.0
0.19,-11776.0,-9792.0,5440.0
0.1925,-11776.0,-9792.0,5504.0
0.195,-11776.0,-9728.0,5568.0
0.1975,-11776.0,-9792.0,5568.0
0.2,-11776.0,-9792.0,5504.0
0.2025,-11776.0,-9856.0,5504.0
0.205,-11776.0,-9792.0,5504.0
0.2075,-11840.0,-9792.0,5504.0
0.21,-11776.0,-9792.0,5504.0
0.2125,-11776.0,-9792.0,5504.0
0.215,-11776.0,-9728.0,5568.0
0.2175,-11712.0,-9792.0,5568.0
0.22,-11776.0,-9728.0,5504.0
0.2225,-11776.0,-9728.0,5568.0
0.225,-11776.0,-9728.0,5632.0
0.2275,-11712.0,-9728.0,5568.0
0.23,-11648.0,-9664.0,5632.0
0.2325,-11712.0,-9664.0,5568.0
0.235,-11648.0,-9728.0,5568.0
0.2375,-11712.0,-9792.0,5568.0
0.24,-11776.0,-9792.0,5632.0
0.2425,-11776.0,-9728.0,5568.0
0.245,-11776.0,-9792.0,5504.0
0.2475,-11712.0,-9792.0,5568.0
0.25,-11712.0,-9856.0,5568.0
0.2525,-11712.0,-9792.0,5568.0
0.255,-11712.0,-9728.0,5632.0
0.2575,-11712.0,-9728.0,5632.0
0.26,-11648.0,-9792.0,5632.0
0.2625,-11648.0,-9728.0,5568.0
0.265,-11712.0,-9728.0,5568.0
0.2675,-11712.0,-9792.0,5568.0
0.27,-11776.0,-9920.0,5568.0
0.2725,-11776.0,-9920.0,5632.0
0.275,-11776.0,-9792.0,5632.0
0.2775,-11776.0,-9856.0,5568.0
0.28,-11712.0,-9920.0,5568.0
0.2825,-11712.0,-9920.0,5504.0
0.285,-11776.0,-9920.0,5504.0
0.2875,-11776.0,-9856.0,5504.0
0.29,-11840.0,-9920.0,5504.0
0.2925,-11904.0,-9856.0,5504.0
0.295,-11904.0,-9856.0,5504.0
0.2975,-11840.0,-9792.0,5504.0
0.3,-11840.0,-9856.0,5568.0
0.3025,-11840.0,-9856.0,5504.0
0.305,-11840.0,-9856.0,5568.0
0.3075,-11904.0,-9920.0,5568.0
0.31,-11904.0,-9920.0,5568.0
0.3125,-11904.0,-9984.0,5568.0
0.315,-11904.0,-9984.0,5568.0
0.3175,-11904.0,-9984.0,5568.0
0.32,-11904.0,-9984.0,5568.0
0.3225,-11904.0,-10048.0,5568.0
0.325,-11840.0,-9984.0,5568.0
0.3275,-11840.0,-10048.0,5440.0
0.33,-11904.0,-9984.0,5568.0
0.3325,-11840.0,-9920.0,5632.0
0.335,-11840.0,-9984.0,5568.0
0.3375,-11904.0,-9984.0,5632.0
0.34,-11904.0,-9984.0,5568.0
0.3425,-11776.0,-9984.0,5568.0
0.345,-11776.0,-9984.0,5632.0
0.3475,-11840.0,-9984.0,5568.0
0.35,-11840.0,-9984.0,5568.0
0.3525,-11776.0,-9984.0,5568.0
0.355,-11776.0,-9984.0,5632.0
0.3575,-11712.0,-10048.0,5632.0
0.36,-11776.0,-10048.0,5568.0
0.3625,-11776.0,-9984.0,5632.0
0.365,-11712.0,-9984.0,5696.0
0.3675,-11712.0,-9984.0,5696.0
0.37,-11712.0,-9984.0,5696.0
0.3725,-11712.0,-9984.0,5696.0
0.375,-11776.0,-9984.0,5760.0
0.3775,-11712.0,-9984.0,5696.0
0.38,-11776.0,-10048.0,5632.0
0.3825,-11712.0,-9984.0,5696.0
0.385,-11776.0,-10048.0,5632.0
0.3875,-11712.0,-10048.0,5632.0
0.39,-11712.0,-10048.0,5696.0
0.3925,-11776.0,-9984.0,5632.0
0.395,-11776.0,-9984.0,5632.0
0.3975,-11776.0,-9984.0,5632.0
0.4,-11712.0,-9920.0,5632.0
0.4025,-11648.0,-9920.0,5632.0
0.405,-11648.0,-9920.0,5568.0
0.4075,-11584.0,-9920.0,5632.0
0.41,-11648.0,-9920.0,5696.0
0.4125,-11584.0,-9984.0,5696.0
0.415,-11584.0,-9984.0,5760.0
0.4175,-11584.0,-9984.0,5696.0
0.42,-11648.0,-9920.0,5760.0
0.4225,-11648.0,-9984.0,5696.0
0.425,-11648.0,-9984.0,5760.0
0.4275,-11648.0,-9984.0,5696.0
0.43,-11712.0,-10048.0,5632.0
0.4325,-11712.0,-9984.0,5696.0
0.435,-11648.0,-10048.0,5696.0
0.4375,-11648.0,-9984.0,5760.0
0.44,-11712.0,-9984.0,5760.0
0.4425,-11776.0,-9984.0,5760.0
0.445,-11776.0,-10048.0,5696.0
0.4475,-11776.0,-9984.0,5632.0
0.45,-11776.0,-9984.0,5632.0
0.4525,-11840.0,-9984.0,5632.0
0.455,-11840.0,-9984.0,5632.0
0.4575,-11840.0,-10048.0,5696.0
0.46,-11904.0,-10048.0,5696.0
0.4625,-11904.0,-10112.0,5696.0
0.465,-11904.0,-10176.0,5696.0
0.4675,-11904.0,-10112.0,5696.0
0.47,-11968.0,-10176.0,5696.0
0.4725,-11904.0,-10176.0,5696.0
0.475,-11904.0,-10112.0,5696.0
0.4775,-11904.0,-10048.0,5696.0
0.48,-11968.0,-10112.0,5824.0
0.4825,-11904.0,-10112.0,5824.0
0.485,-11904.0,-10112.0,5760.0
0.4875,-11840.0,-10048.0,5760.0
0.49,-11904.0,-10112.0,5696.0
0.4925,-11840.0,-10112.0,5760.0
0.495,-11904.0,-10112.0,5760.0
0.4975,-11904.0,-10048.0,5888.0
0.5,-11904.0,-10176.0,5824.0
0.5025,-11968.0,-10112.0,5760.0
0.505,-11840.0,-10176.0,5824.0
0.5075,-11840.0,-10112.0,5824.0
0.51,-11840.0,-10112.0,5760.0
0.5125,-11840.0,-10112.0,5760.0
0.515,-11904.0,-10112.0,5760.0
0.5175,-11840.0,-10112.0,5760.0
0.52,-11840.0,-10112.0,5632.0
0.5225,-11840.0,-10176.0,5632.0
0.525,-11776.0,-10176.0,5696.0
0.5275,-11776.0,-10176.0,5696.0
0.53,-11776.0,-10176.0,5696.0
0.5325,-11776.0,-10304.0,5696.0
0.535,-11840.0,-10240.0,5696.0
0.5375,-11840.0,-10240.0,5696.0
0.54,-11776.0,-10240.0,5696.0
0.5425,-11776.0,-10176.0,5760.0
0.545,-11776.0,-10176.0,5696.0
0.5475,-11776.0,-10240.0,5696.0
0.55,-11776.0,-10240.0,5696.0
0.5525,-11712.0,-10176.0,5696.0
0.555,-11712.0,-10240.0,5696.0
0.5575,-11712.0,-10240.0,5760.0
0.56,-11648.0,-10176.0,5696.0
0.5625,-11648.0,-10240.0,5632.0
0.565,-11712.0,-10304.0,5696.0
0.5675,-11712.0,-10304.0,5696.0
0.57,-11648.0,-10304.0,5696.0
0.5725,-11712.0,-10240.0,5760.0
0.575,-11648.0,-10240.0,5696.0
0.5775,-11712.0,-10240.0,5696.0
0.58,-11648.0,-10176.0,5568.0
0.5825,-11712.0,-10176.0,5568.0
0.585,-11712.0,-10112.0,5568.0
0.5875,-11712.0,-10048.0,5632.0
0.59,-11648.0,-10112.0,5568.0
0.5925,-11648.0,-10112.0,5632.0
0.595,-11712.0,-10048.0,5632.0
0.5975,-11648.0,-10112.0,5632.0
0.6,-11648.0,-10112.0,5632.0
0.6025,-11712.0,-10176.0,5696.0
0.605,-11712.0,-10176.0,5696.0
0.6075,-11712.0,-10112.0,5696.0
0.61,-11712.0,-10176.0,5760.0
0.6125,-11712.0,-10176.0,5696.0
0.615,-11776.0,-10112.0,5696.0
0.6175,-11648.0,-10048.0,5696.0
0.62,-11648.0,-10048.0,5696.0
0.6225,-11712.0,-10048.0,5632.0
0.625,-11712.0,-10112.0,5632.0
0.6275,-11712.0,-10112.0,5568.0
0.63,-11712.0,-10176.0,5632.0
0.6325,-11648.0,-10176.0,5568.0
0.635,-11712.0,-10112.0,5568.0
0.6375,-11648.0,-10112.0,5568.0
0.64,-11712.0,-10048.0,5632.0
0.6425,-11776.0,-10048.0,5568.0
0.645,-11712.0,-9984.0,5632.0
0.6475,-11776.0,-9984.0,5568.0
0.65,-11776.0,-10048.0,5504.0
0.6525,-11776.0,-9984.0,5504.0
0.655,-11776.0,-10048.0,5504.0
0.6575,-11776.0,-10048.0,5632.0
0.66,-11776.0,-10048.0,5632.0
0.6625,-11776.0,-10048.0,5568.0
0.665,-11776.0,-9984.0,5568.0
0.6675,-11776.0,-9984.0,5632.0
0.67,-11712.0,-9984.0,5568.0
0.6725,-11776.0,-9984.0,5568.0
0.675,-11776.0,-9984.0,5504.0
0.6775,-11712.0,-9984.0,5568.0
0.68,-11712.0,-10048.0,5568.0
0.6825,-11712.0,-9984.0,5504.0
0.685,-11712.0,-9984.0,5440.0
0.6875,-11712.0,-9920.0,5440.0
0.69,-11648.0,-9984.0,5440.0
0.6925,-11648.0,-9984.0,5568.0
0.695,-11712.0,-9920.0,5504.0
0.6975,-11712.0,-9984.0,5440.0
0.7,-11712.0,-9920.0,5504.0
0.7025,-11712.0,-9920.0,5504.0
0.705,-11712.0,-9920.0,5568.0
0.7075,-11648.0,-9920.0,5504.0
0.71,-11648.0,-9984.0,5504.0
0.7125,-11712.0,-9920.0,5504.0
0.715,-11712.0,-9920.0,5440.0
0.7175,-11648.0,-9920.0,5440.0
0.72,-11776.0,-9920.0,5568.0
0.7225,-11712.0,-9920.0,5504.0
0.725,-11648.0,-9856.0,5504.0
0.7275,-11648.0,-9920.0,5568.0
0.73,-11712.0,-9920.0,5568.0
0.7325,-11648.0,-9920.0,5568.0
0.735,-11648.0,-9984.0,5568.0
0.7375,-11712.0,-9920.0,5568.0
0.74,-11712.0,-9984.0,5568.0
0.7425,-11712.0,-9984.0,5440.0
0.745,-11712.0,-9984.0,5440.0
0.7475,-11776.0,-9984.0,5376.0
0.75,-11776.0,-9920.0,5376.0
0.7525,-11776.0,-9920.0,5376.0
0.755,-11776.0,-9920.0,5376.0
0.7575,-11776.0,-9984.0,5312.0
0.76,-11776.0,-9920.0,5376.0
0.7625,-11776.0,-9920.0,5376.0
0.765,-11776.0,-9920.0,5376.0
0.7675,-11712.0,-9920.0,5376.0
0.77,-11712.0,-9984.0,5440.0
0.7725,-11776.0,-10048.0,5504.0
0.775,-11712.0,-9984.0,5504.0
0.7775,-11712.0,-9920.0,5440.0
0.78,-11712.0,-9984.0,5504.0
0.7825,-11712.0,-9920.0,5504.0
0.785,-11776.0,-9920.0,5440.0
0.7875,-11840.0,-9920.0,5568.0
0.79,-11776.0,-9984.0,5568.0
0.7925,-11776.0,-9984.0,5504.0
0.795,-11712.0,-9920.0,5440.0
0.7975,-11712.0,-9920.0,5504.0
0.8,-11712.0,-9920.0,5440.0
0.8025,-11776.0,-9920.0,5504.0
0.805,-11712.0,-9920.0,5504.0
0.8075,-11712.0,-9984.0,5568.0
0.81,-11712.0,-10048.0,5504.0
0.8125,-11776.0,-9984.0,5568.0
0.815,-11712.0,-9984.0,5568.0
0.8175,-11776.0,-9984.0,5440.0
0.82,-11712.0,-9984.0,5504.0
0.8225,-11712.0,-9984.0,5568.0
0.825,-11712.0,-9984.0,5504.0
0.8275,-11648.0,-9984.0,5504.0
0.83,-11648.0,-9984.0,5504.0
0.8325,-11648.0,-9920.0,5504.0
0.835,-11712.0,-9984.0,5504.0
0.8375,-11648.0,-9920.0,5504.0
0.84,-11648.0,-9984.0,5632.0
0.8425,-11712.0,-10048.0,5504.0
0.845,-11648.0,-10048.0,5504.0
0.8475,-11648.0,-10048.0,5568.0
0.85,-11584.0,-10048.0,5504.0
0.8525,-11584.0,-9984.0,5504.0
0.855,-11584.0,-9984.0,5568.0
0.8575,-11584.0,-10048.0,5504.0
0.86,-11584.0,-9984.0,5504.0
0.8625,-11648.0,-9984.0,5568.0
0.865,-11648.0,-9984.0,5504.0
0.8675,-11648.0,-9984.0,5568.0
0.87,-11584.0,-9984.0,5504.0
0.8725,-11584.0,-9984.0,5504.0
0.875,-11584.0,-9984.0,5504.0
0.8775,-11648.0,-9984.0,5440.0
0.88,-11648.0,-9984.0,5504.0
0.8825,-11584.0,-9920.0,5504.0
0.885,-11648.0,-9984.0,5504.0
0.8875,-11712.0,-9984.0,5504.0
0.89,-11712.0,-9984.0,5568.0
0.8925,-11712.0,-9920.0,5568.0
0.895,-11712.0,-9984.0,5632.0
0.8975,-11712.0,-10048.0,5632.0
0.9,-11776.0,-10048.0,5568.0
0.9025,-11776.0,-10048.0,5568.0
0.905,-11776.0,-10112.0,5632.0
0.9075,-11840.0,-10112.0,5568.0
0.91,-11776.0,-10048.0,5568.0
0.9125,-11904.0,-10048.0,5632.0
0.915,-11840.0,-10048.0,5568.0
0.9175,-11840.0,-9984.0,5504.0
0.92,-11840.0,-9984.0,5568.0
0.9225,-11904.0,-9920.0,5504.0
0.925,-11904.0,-9984.0,5504.0
0.9275,-11904.0,-10048.0,5504.0
0.93,-11904.0,-10048.0,5376.0
0.9325,-11840.0,-10048.0,5440.0
0.935,-11904.0,-10048.0,5440.0
0.9375,-11968.0,-10048.0,5440.0
0.94,-11968.0,-10176.0,5568.0
0.9425,-11968.0,-10112.0,5504.0
0.945,-11968.0,-10176.0,5504.0
0.9475,-11968.0,-10176.0,5568.0
0.95,-11968.0,-10112.0,5568.0
0.9525,-11904.0,-10176.0,5632.0
0.955,-11776.0,-10112.0,5696.0
0.9575,-11776.0,-10112.0,5632.0
0.96,-11840.0,-10176.0,5696.0
0.9625,-11776.0,-10112.0,5760.0
0.965,-11776.0,-10176.0,5824.0
0.9675,-11712.0,-10112.0,5696.0
0.97,-11712.0,-10176.0,5696.0
0.9725,-11712.0,-10240.0,5696.0
0.975,-11712.0,-10240.0,5696.0
0.9775,-11648.0,-10176.0,5568.0
0.98,-11712.0,-10240.0,5696.0
0.9825,-11648.0,-10176.0,5696.0
0.985,-11648.0,-10176.0,5632.0
0.9875,-11648.0,-10176.0,5760.0
0.99,-11584.0,-10240.0,5760.0
0.9925,-11648.0,-10240.0,5696.0
0.995,-11648.0,-10304.0,5760.0
0.9975,-11712.0,-10176.0,5696.0
1.0,-11648.0,-10240.0,5632.0
1.0025,-11584.0,-10176.0,5632.0
1.005,-11584.0,-10240.0,5696.0
1.0075,-11584.0,-10176.0,5696.0
1.01,-11648.0,-10176.0,5632.0
1.0125,-11648.0,-10176.0,5568.0
1.015,-11584.0,-10176.0,5696.0
1.0175,-11584.0,-10176.0,5696.0
1.02,-11584.0,-10112.0,5760.0
1.0225,-11584.0,-10176.0,5696.0
1.025,-11520.0,-10112.0,5760.0
1.0275,-11520.0,-10112.0,5696.0
1.03,-11584.0,-10048.0,5696.0
1.0325,-11584.0,-10112.0,5696.0
1.035,-11584.0,-10112.0,5696.0
1.0375,-11584.0,-10112.0,5696.0
1.04,-11584.0,-10112.0,5760.0
1.0425,-11584.0,-10112.0,5696.0
1.045,-11584.0,-10176.0,5696.0
1.0475,-11648.0,-10176.0,5696.0
1.05,-11648.0,-10112.0,5760.0
1.0525,-11712.0,-10176.0,5696.0
1.055,-11648.0,-10176.0,5696.0
1.0575,-11648.0,-10240.0,5696.0
1.06,-11648.0,-10176.0,5632.0
1.0625,-11648.0,-10176.0,5632.0
1.065,-11648.0,-10240.0,5696.0
1.0675,-11648.0,-10176.0,5696.0
1.07,-11712.0,-10176.0,5632.0
1.0725,-11648.0,-10176.0,5568.0
1.075,-11712.0,-10176.0,5504.0
1.0775,-11712.0,-10176.0,5504.0
1.08,-11776.0,-10176.0,5568.0
1.0825,-11712.0,-10112.0,5504.0
1.085,-11776.0,-10176.0,5568.0
1.0875,-11776.0,-10112.0,5568.0
1.09,-11776.0,-10112.0,5504.0
1.0925,-11712.0,-10112.0,5568.0
1.095,-11776.0,-10112.0,5632.0
1.0975,-11712.0,-10112.0,5568.0
1.1,-11648.0,-10112.0,5568.0
1.1025,-11712.0,-10112.0,5504.0
1.105,-11712.0,-10176.0,5568.0
1.1075,-11648.0,-10112.0,5696.0
1.11,-11648.0,-10112.0,5568.0
1.1125,-11648.0,-10112.0,5632.0
1.115,-11712.0,-10048.0,5632.0
1.1175,-11648.0,-10112.0,5568.0
1.12,-11648.0,-10112.0,5568.0
1.1225,-11584.0,-10112.0,5504.0
1.125,-11584.0,-10112.0,5440.0
1.1275,-11648.0,-10112.0,5440.0
1.13,-11648.0,-10048.0,5504.0
1.1325,-11648.0,-10112.0,5504.0
1.135,-11584.0,-10176.0,5440.0
1.1375,-11584.0,-10112.0,5504.0
1.14,-11648.0,-10112.0,5504.0
1.1425,-11584.0,-10112.0,5504.0
1.145,-11648.0,-10112.0,5504.0
1.1475,-11648.0,-10112.0,5568.0
1.15,-11648.0,-10048.0,5568.0
1.1525,-11648.0,-10112.0,5568.0
1.155,-11648.0,-10176.0,5504.0
1.1575,-11648.0,-10112.0,5568.0
1.16,-11648.0,-10176.0,5440.0
1.1625,-11648.0,-10112.0,5504.0
1.165,-11584.0,-10112.0,5504.0
1.1675,-11648.0,-10112.0,5504.0
1.17,-11584.0,-10112.0,5504.0
1.1725,-11584.0,-10176.0,5568.0
1.175,-11584.0,-10176.0,5504.0
1.1775,-11584.0,-10112.0,5504.0
1.18,-11520.0,-10112.0,5568.0
1.1825,-11584.0,-10112.0,5568.0
1.185,-11584.0,-10048.0,5504.0
1.1875,-11520.0,-10048.0,5568.0
1.19,-11520.0,-10048.0,5504.0
1.1925,-11520.0,-10112.0,5504.0
1.195,-11584.0,-10048.0,5504.0
1.1975,-11520.0,-10112.0,5568.0
1.2,-11584.0,-10048.0,5632.0
1.2025,-11584.0,-10112.0,5568.0
1.205,-11584.0,-10112.0,5504.0
1.2075,-11584.0,-10176.0,5568.0
1.21,-11648.0,-10176.0,5568.0
1.2125,-11648.0,-10112.0,5568.0
1.215,-11584.0,-10112.0,5504.0
1.2175,-11584.0,-10112.0,5504.0
1.22,-11584.0,-10048.0,5504.0
1.2225,-11584.0,-10176.0,5504.0
1.225,-11648.0,-10112.0,5568.0
1.2275,-11712.0,-10112.0,5568.0
1.23,-11648.0,-10112.0,5568.0
1.2325,-11712.0,-10048.0,5504.0
1.235,-11776.0,-10112.0,5504.0
1.2375,-11712.0,-10048.0,5504.0
1.24,-11776.0,-10048.0,5504.0
1.2425,-11712.0,-10112.0,5568.0
1.245,-11712.0,-10112.0,5504.0
1.2475,-11712.0,-10112.0,5504.0
1.25,-11648.0,-10112.0,5568.0
1.2525,-11712.0,-10112.0,5568.0
1.255,-11712.0,-10176.0,5568.0
1.2575,-11648.0,-10112.0,5504.0
1.26,-11648.0,-10176.0,5504.0
1.2625,-11712.0,-10176.0,5504.0
1.265,-11776.0,-10176.0,5568.0
1.2675,-11776.0,-10112.0,5376.0
1.27,-11712.0,-10112.0,5376.0
1.2725,-11712.0,-10176.0,5312.0
1.275,-11712.0,-10112.0,5376.0
1.2775,-11712.0,-10112.0,5440.0
1.28,-11712.0,-10176.0,5376.0
1.2825,-11648.0,-10176.0,5376.0
1.285,-11648.0,-10176.0,5440.0
1.2875,-11648.0,-10176.0,5440.0
1.29,-11648.0,-10176.0,5504.0
1.2925,-11648.0,-10240.0,5568.0
1.295,-11712.0,-10176.0,5568.0
1.2975,-11712.0,-10240.0,5632.0
1.3,-11648.0,-10240.0,5568.0
1.3025,-11584.0,-10176.0,5632.0
1.305,-11648.0,-10176.0,5632.0
1.3075,-11648.0,-10176.0,5632.0
1.31,-11648.0,-10112.0,5632.0
1.3125,-11584.0,-10112.0,5696.0
1.315,-11584.0,-10112.0,5696.0
1.3175,-11584.0,-10176.0,5696.0
1.32,-11584.0,-10112.0,5632.0
1.3225,-11584.0,-10112.0,5696.0
1.325,-11584.0,-10112.0,5696.0
1.3275,-11520.0,-10176.0,5632.0
1.33,-11584.0,-10176.0,5632.0
1.3325,-11648.0,-10112.0,5632.0
1.335,-11584.0,-10112.0,5632.0
1.3375,-11584.0,-10176.0,5632.0
1.34,-11584.0,-10240.0,5632.0
1.3425,-11584.0,-10176.0,5632.0
1.345,-11520.0,-10176.0,5632.0
1.3475,-11520.0,-10176.0,5632.0
1.35,-11584.0,-10240.0,5568.0
1.3525,-11520.0,-10240.0,5568.0
1.355,-11520.0,-10240.0,5632.0
1.3575,-11520.0,-10176.0,5568.0
1.36,-11584.0,-10240.0,5568.0
1.3625,-11520.0,-10240.0,5568.0
1.365,-11520.0,-10176.0,5632.0
1.3675,-11584.0,-10176.0,5504.0
1.37,-11520.0,-10112.0,5504.0
1.3725,-11584.0,-10176.0,5568.0
1.375,-11584.0,-10176.0,5568.0
1.3775,-11520.0,-10240.0,5632.0
1.38,-11520.0,-10240.0,5632.0
1.3825,-11584.0,-10304.0,5632.0
1.385,-11584.0,-10240.0,5568.0
1.3875,-11648.0,-10240.0,5568.0
1.39,-11648.0,-10240.0,5632.0
1.3925,-11584.0,-10240.0,5632.0
1.395,-11584.0,-10240.0,5568.0
1.3975,-11648.0,-10240.0,5568.0
1.4,-11648.0,-10240.0,5632.0
1.4025,-11648.0,-10176.0,5632.0
1.405,-11648.0,-10176.0,5632.0
1.4075,-11648.0,-10176.0,5696.0
1.41,-11648.0,-10176.0,5632.0
1.4125,-11584.0,-10112.0,5568.0
1.415,-11584.0,-10176.0,5568.0
1.4175,-11648.0,-10240.0,5568.0
1.42,-11584.0,-10240.0,5568.0
1.4225,-11648.0,-10240.0,5568.0
1.425,-11648.0,-10304.0,5568.0
1.4275,-11584.0,-10240.0,5568.0
1.43,-11584.0,-10176.0,5568.0
1.4325,-11520.0,-10240.0,5632.0
1.435,-11520.0,-10240.0,5568.0
1.4375,-11520.0,-10304.0,5632.0
1.44,-11584.0,-10176.0,5632.0
1.4425,-11520.0,-10112.0,5632.0
1.445,-11584.0,-10240.0,5568.0
1.4475,-11520.0,-10240.0,5632.0
1.45,-11520.0,-10176.0,5696.0
1.4525,-11520.0,-10176.0,5760.0
1.455,-11456.0,-10240.0,5696.0
1.4575,-11456.0,-10176.0,5632.0
1.46,-11456.0,-10240.0,5632.0
1.4625,-11456.0,-10240.0,5568.0
1.465,-11456.0,-10240.0,5632.0
1.4675,-11456.0,-10240.0,5568.0
1.47,-11456.0,-10176.0,5632.0
1.4725,-11520.0,-10176.0,5568.0
1.475,-11456.0,-10304.0,5632.0
1.4775,-11456.0,-10240.0,5568.0
1.48,-11520.0,-10304.0,5568.0
1.4825,-11584.0,-10304.0,5632.0
1.485,-11584.0,-10304.0,5568.0
1.4875,-11648.0,-10304.0,5504.0
1.49,-11584.0,-10304.0,5504.0
1.4925,-11648.0,-10304.0,5568.0
1.495,-11648.0,-10368.0,5632.0
1.4975,-11712.0,-10304.0,5632.0
1.5,-11648.0,-10304.0,5696.0
1.5025,-11648.0,-10304.0,5632.0
1.505,-11648.0,-10304.0,5632.0
1.5075,-11584.0,-10304.0,5632.0
1.51,-11648.0,-10240.0,5632.0
1.5125,-11648.0,-10240.0,5696.0
1.515,-11648.0,-10240.0,5696.0
1.5175,-11584.0,-10240.0,5632.0
1.52,-11584.0,-10304.0,5696.0
1.5225,-11584.0,-10240.0,5632.0
1.525,-11520.0,-10240.0,5568.0
1.5275,-11584.0,-10240.0,5696.0
1.53,-11584.0,-10240.0,5760.0
1.5325,-11584.0,-10304.0,5760.0
1.535,-11520.0,-10240.0,5824.0
1.5375,-11520.0,-10240.0,5696.0
1.54,-11520.0,-10176.0,5696.0
1.5425,-11520.0,-10240.0,5696.0
1.545,-11520.0,-10240.0,5632.0
1.5475,-11456.0,-10240.0,5632.0
1.55,-11456.0,-10176.0,5632.0
1.5525,-11520.0,-10176.0,5696.0
1.555,-11520.0,-10176.0,5568.0
1.5575,-11520.0,-10176.0,5632.0
1.56,-11520.0,-10176.0,5632.0
1.5625,-11520.0,-10240.0,5632.0
1.565,-11520.0,-10176.0,5568.0
1.5675,-11520.0,-10176.0,5568.0
1.57,-11584.0,-10176.0,5696.0
1.5725,-11520.0,-10176.0,5632.0
1.575,-11520.0,-10112.0,5632.0
1.5775,-11520.0,-10112.0,5696.0
1.58,-11520.0,-10176.0,5760.0
1.5825,-11520.0,-10112.0,5696.0
1.585,-11456.0,-10176.0,5760.0
1.5875,-11520.0,-10176.0,5824.0
1.59,-11520.0,-10176.0,5824.0
1.5925,-11456.0,-10112.0,5888.0
1.595,-11520.0,-10176.0,5952.0
1.5975,-11520.0,-10112.0,5952.0
1.6,-11456.0,-10176.0,6080.0
1.6025,-11456.0,-10176.0,5952.0
1.605,-11456.0,-10112.0,5888.0
1.6075,-11456.0,-10112.0,5952.0
1.61,-11456.0,-10176.0,6080.0
1.6125,-11584.0,-10176.0,6016.0
1.615,-11584.0,-10176.0,6080.0
1.6175,-11584.0,-10176.0,6016.0
1.62,-11584.0,-10240.0,5952.0
1.6225,-11584.0,-10240.0,5888.0
1.625,-11584.0,-10240.0,6016.0
1.6275,-11584.0,-10240.0,5952.0
1.63,-11520.0,-10240.0,6016.0
1.6325,-11584.0,-10240.0,5952.0
1.635,-11520.0,-10304.0,6016.0
1.6375,-11520.0,-10304.0,6016.0
1.64,-11520.0,-10304.0,5952.0
1.6425,-11520.0,-10240.0,5952.0
1.645,-11456.0,-10368.0,6016.0
1.6475,-11456.0,-10304.0,6016.0
1.65,-11456.0,-10240.0,6080.0
1.6525,-11392.0,-10240.0,6080.0
1.655,-11456.0,-10240.0,6016.0
1.6575,-11456.0,-10240.0,6016.0
1.66,-11456.0,-10240.0,6080.0
1.6625,-11456.0,-10240.0,6080.0
1.665,-11392.0,-10176.0,5952.0
1.6675,-11392.0,-10176.0,5952.0
1.67,-11392.0,-10112.0,5952.0
1.6725,-11392.0,-10112.0,5952.0
1.675,-11392.0,-10112.0,5952.0
1.6775,-11456.0,-10112.0,6016.0
1.68,-11328.0,-10240.0,6080.0
1.6825,-11392.0,-10176.0,6016.0
1.685,-11392.0,-10176.0,6016.0
1.6875,-11392.0,-10240.0,5888.0
1.69,-11392.0,-10176.0,6016.0
1.6925,-11392.0,-10176.0,6016.0
1.695,-11456.0,-10304.0,6016.0
1.6975,-11456.0,-10176.0,5952.0
1.7,-11456.0,-10240.0,6016.0
1.7025,-11520.0,-10176.0,6016.0
1.705,-11456.0,-10240.0,6016.0
1.7075,-11520.0,-10304.0,6080.0
1.71,-11456.0,-10304.0,6016.0
1.7125,-11456.0,-10240.0,6080.0
1.715,-11520.0,-10240.0,6080.0
1.7175,-11584.0,-10240.0,6016.0
1.72,-11584.0,-10240.0,6080.0
1.7225,-11584.0,-10176.0,6016.0
1.725,-11520.0,-10240.0,5952.0
1.7275,-11584.0,-10240.0,6016.0
1.73,-11520.0,-10176.0,6016.0
1.7325,-11520.0,-10176.0,6016.0
1.735,-11456.0,-10240.0,6016.0
1.7375,-11456.0,-10304.0,6016.0
1.74,-11456.0,-10304.0,6016.0
1.7425,-11456.0,-10240.0,6016.0
1.745,-11456.0,-10240.0,5952.0
1.7475,-11520.0,-10240.0,6016.0
1.75,-11520.0,-10176.0,6016.0
1.7525,-11520.0,-10176.0,5952.0
1.755,-11456.0,-10240.0,5888.0
1.7575,-11456.0,-10240.0,5952.0
1.76,-11392.0,-10176.0,6080.0
1.7625,-11328.0,-10240.0,6080.0
1.765,-11328.0,-10240.0,6080.0
1.7675,-11328.0,-10240.0,6016.0
1.77,-11392.0,-10176.0,6016.0
1.7725,-11264.0,-10176.0,6080.0
1.775,-11264.0,-10240.0,6144.0
1.7775,-11264.0,-10304.0,6144.0
1.78,-11264.0,-10240.0,6080.0
1.7825,-11264.0,-10240.0,6080.0
1.785,-11200.0,-10240.0,6080.0
1.7875,-11200.0,-10240.0,6144.0
1.79,-11136.0,-10240.0,6080.0
1.7925,-11136.0,-10176.0,6208.0
1.795,-11136.0,-10176.0,6144.0
1.7975,-11072.0,-10240.0,6080.0
1.8,-11136.0,-10176.0,6144.0
1.8025,-11072.0,-10176.0,6080.0
1.805,-11072.0,-10176.0,6080.0
1.8075,-11072.0,-10176.0,6080.0
1.81,-11008.0,-10112.0,6016.0
1.8125,-11008.0,-10112.0,6080.0
1.815,-11008.0,-10112.0,6080.0
1.8175,-11072.0,-10112.0,6080.0
1.82,-11008.0,-10112.0,6080.0
1.8225,-11008.0,-10112.0,6080.0
1.825,-10944.0,-10112.0,6144.0
1.8275,-11008.0,-10112.0,6144.0
1.83,-11008.0,-10112.0,6080.0
1.8325,-11008.0,-10112.0,6080.0
1.835,-11008.0,-10112.0,6080.0
1.8375,-11008.0,-10112.0,6016.0
1.84,-11008.0,-10176.0,6080.0
1.8425,-11008.0,-10176.0,6144.0
1.845,-11008.0,-10176.0,6080.0
1.8475,-10944.0,-10112.0,6080.0
1.85,-11008.0,-10112.0,6144.0
1.8525,-11008.0,-10112.0,6080.0
1.855,-10944.0,-10048.0,6144.0
1.8575,-11008.0,-9984.0,6080.0
1.86,-10944.0,-9984.0,6080.0
1.8625,-10944.0,-10048.0,6016.0
1.865,-10944.0,-9984.0,6144.0
1.8675,-10880.0,-9984.0,6144.0
1.87,-10880.0,-10048.0,6080.0
1.8725,-10944.0,-9984.0,6080.0
1.875,-10944.0,-9920.0,6080.0
1.8775,-11008.0,-9984.0,6080.0
1.88,-11008.0,-9984.0,6016.0
1.8825,-11008.0,-9984.0,6016.0
1.885,-11008.0,-9984.0,6016.0
1.8875,-11008.0,-9920.0,6016.0
1.89,-11008.0,-9920.0,5952.0
1.8925,-11008.0,-9920.0,6016.0
1.895,-11072.0,-9920.0,5952.0
1.8975,-11008.0,-9856.0,5952.0
1.9,-11008.0,-9856.0,6016.0
1.9025,-11008.0,-9792.0,6080.0
1.905,-11072.0,-9920.0,6016.0
1.9075,-11136.0,-9920.0,6016.0
1.91,-11136.0,-9856.0,6016.0
1.9125,-11136.0,-9856.0,6080.0
1.915,-11072.0,-9856.0,5952.0
1.9175,-11136.0,-9856.0,6016.0
1.92,-11136.0,-9920.0,6016.0
1.9225,-11200.0,-9856.0,5952.0
1.925,-11200.0,-9856.0,5952.0
1.9275,-11200.0,-9856.0,6016.0
1.93,-11264.0,-9856.0,6016.0
1.9325,-11264.0,-9856.0,5952.0
1.935,-11200.0,-9856.0,6016.0
1.9375,-11328.0,-9856.0,6016.0
1.94,-11328.0,-9856.0,6016.0
1.9425,-11392.0,-9920.0,6016.0
1.945,-11456.0,-9920.0,6144.0
1.9475,-11392.0,-9920.0,6016.0
1.95,-11328.0,-10048.0,6016.0
1.9525,-11392.0,-9984.0,6144.0
1.955,-11456.0,-10048.0,6080.0
1.9575,-11456.0,-10048.0,6080.0
1.96,-11456.0,-10048.0,6016.0
1.9625,-11392.0,-9984.0,6080.0
1.965,-11456.0,-9920.0,6080.0
1.9675,-11456.0,-9856.0,6080.0
1.97,-11520.0,-9920.0,6080.0
1.9725,-11584.0,-9984.0,6144.0
1.975,-11584.0,-9984.0,6144.0
1.9775,-11520.0,-9984.0,6080.0
1.98,-11584.0,-10048.0,6016.0
1.9825,-11584.0,-10112.0,6080.0
1.985,-11712.0,-10176.0,6144.0
1.9875,-11712.0,-10304.0,6144.0
1.99,-11712.0,-10240.0,6080.0
1.9925,-11776.0,-10304.0,6144.0
1.995,-11648.0,-10240.0,6272.0
1.9975,-11648.0,-10176.0,6208.0
2.0,-11648.0,-10048.0,6272.0
2.0025,-11648.0,-10048.0,6208.0
2.005,-11584.0,-9920.0,6208.0
2.0075,-11648.0,-9920.0,6080.0
2.01,-11648.0,-9856.0,6208.0
2.0125,-11712.0,-9792.0,6208.0
2.015,-11712.0,-9856.0,6144.0
2.0175,-11648.0,-9856.0,6080.0
2.02,-11584.0,-9856.0,6016.0
2.0225,-11584.0,-9920.0,6080.0
2.025,-11648.0,-10048.0,6016.0
2.0275,-11648.0,-9984.0,6016.0
2.03,-11712.0,-9920.0,6016.0
2.0325,-11712.0,-9984.0,6016.0
2.035,-11712.0,-9984.0,6080.0
2.0375,-11648.0,-10048.0,6016.0
2.04,-11648.0,-10048.0,6144.0
2.0425,-11648.0,-10048.0,6208.0
2.045,-11648.0,-9984.0,6144.0
2.0475,-11648.0,-9920.0,6144.0
2.05,-11648.0,-9920.0,6144.0
2.0525,-11648.0,-9920.0,6208.0
2.055,-11648.0,-9920.0,6208.0
2.0575,-11648.0,-9920.0,6208.0
2.06,-11712.0,-9920.0,6208.0
2.0625,-11712.0,-9920.0,6272.0
2.065,-11648.0,-9856.0,6272.0
2.0675,-11584.0,-9920.0,6208.0
2.07,-11584.0,-9920.0,6144.0
2.0725,-11648.0,-9920.0,6208.0
2.075,-11584.0,-9984.0,6208.0
2.0775,-11648.0,-10048.0,6208.0
2.08,-11584.0,-9984.0,6208.0
2.0825,-11520.0,-9920.0,6144.0
2.085,-11520.0,-9920.0,6144.0
2.0875,-11456.0,-9920.0,6144.0
2.09,-11456.0,-9920.0,6144.0
2.0925,-11456.0,-9920.0,6144.0
2.095,-11456.0,-9984.0,6144.0
2.0975,-11392.0,-9920.0,6144.0
2.1,-11456.0,-9920.0,6144.0
2.1025,-11456.0,-9920.0,6144.0
2.105,-11392.0,-9856.0,6272.0
2.1075,-11328.0,-9920.0,6272.0
2.11,-11328.0,-9984.0,6272.0
2.1125,-11328.0,-9920.0,6272.0
2.115,-11264.0,-9984.0,6336.0
2.1175,-11264.0,-9984.0,6336.0
2.12,-11200.0,-9920.0,6336.0
2.1225,-11200.0,-9920.0,6400.0
2.125,-11136.0,-9920.0,6400.0
2.1275,-11136.0,-9920.0,6464.0
2.13,-11136.0,-9856.0,6528.0
2.1325,-11136.0,-9920.0,6528.0
2.135,-11200.0,-9920.0,6528.0
2.1375,-11136.0,-9920.0,6592.0
2.14,-11200.0,-9984.0,6592.0
2.1425,-11200.0,-10048.0,6528.0
2.145,-11200.0,-9984.0,6528.0
2.1475,-11200.0,-10048.0,6528.0
2.15,-11200.0,-9984.0,6464.0
2.1525,-11264.0,-10048.0,6400.0
2.155,-11264.0,-10048.0,6400.0
2.1575,-11200.0,-10048.0,6400.0
2.16,-11264.0,-10112.0,6464.0
2.1625,-11264.0,-10112.0,6528.0
2.165,-11264.0,-10112.0,6464.0
2.1675,-11328.0,-10176.0,6528.0
2.17,-11328.0,-10176.0,6464.0
2.1725,-11328.0,-10240.0,6464.0
2.175,-11328.0,-10240.0,6400.0
2.1775,-11328.0,-10240.0,6464.0
2.18,-11328.0,-10304.0,6464.0
2.1825,-11264.0,-10240.0,6400.0
2.185,-11328.0,-10240.0,6464.0
2.1875,-11328.0,-10304.0,6464.0
2.19,-11264.0,-10240.0,6464.0
2.1925,-11200.0,-10240.0,6464.0
2.195,-11200.0,-10240.0,6464.0
2.1975,-11200.0,-10240.0,6464.0
2.2,-11200.0,-10240.0,6464.0
2.2025,-11264.0,-10240.0,6464.0
2.205,-11264.0,-10240.0,6464.0
2.2075,-11264.0,-10176.0,6464.0
2.21,-11264.0,-10176.0,6464.0
2.2125,-11264.0,-10240.0,6464.0
2.215,-11328.0,-10176.0,6400.0
2.2175,-11264.0,-10112.0,6400.0
2.22,-11264.0,-10176.0,6464.0
2.2225,-11200.0,-10176.0,6528.0
2.225,-11264.0,-10176.0,6528.0
2.2275,-11264.0,-10176.0,6464.0
2.23,-11264.0,-10112.0,6592.0
2.2325,-11328.0,-10176.0,6528.0
2.235,-11392.0,-10176.0,6528.0
2.2375,-11328.0,-10112.0,6528.0
2.24,-11328.0,-10176.0,6656.0
2.2425,-11328.0,-10176.0,6528.0
2.245,-11392.0,-10176.0,6464.0
2.2475,-11328.0,-10176.0,6464.0
2.25,-11328.0,-10240.0,6464.0
2.2525,-11328.0,-10240.0,6464.0
2.255,-11392.0,-10176.0,6464.0
2.2575,-11392.0,-10176.0,6528.0
2.26,-11328.0,-10112.0,6464.0
2.2625,-11264.0,-10112.0,6528.0
2.265,-11328.0,-10112.0,6464.0
2.2675,-11328.0,-10112.0,6464.0
2.27,-11328.0,-10048.0,6528.0
2.2725,-11328.0,-10048.0,6528.0
2.275,-11264.0,-10048.0,6464.0
2.2775,-11264.0,-10048.0,6528.0
2.28,-11264.0,-10112.0,6528.0
2.2825,-11264.0,-10048.0,6528.0
2.285,-11200.0,-10048.0,6528.0
2.2875,-11264.0,-10112.0,6592.0
2.29,-11264.0,-10112.0,6592.0
2.2925,-11200.0,-10112.0,6592.0
2.295,-11200.0,-10176.0,6656.0
2.2975,-11264.0,-10176.0,6720.0
2.3,-11264.0,-10176.0,6656.0
2.3025,-11264.0,-10176.0,6656.0
2.305,-11328.0,-10240.0,6656.0
2.3075,-11328.0,-10112.0,6656.0
2.31,-11328.0,-10112.0,6592.0
2.3125,-11328.0,-10176.0,6592.0
2.315,-11328.0,-10176.0,6592.0
2.3175,-11392.0,-10176.0,6592.0
2.32,-11392.0,-10176.0,6592.0
2.3225,-11328.0,-10112.0,6464.0
2.325,-11392.0,-10112.0,6464.0
2.3275,-11392.0,-10112.0,6528.0
2.33,-11456.0,-10112.0,6592.0
2.3325,-11456.0,-10112.0,6656.0
2.335,-11520.0,-10048.0,6656.0
2.3375,-11392.0,-10048.0,6592.0
2.34,-11392.0,-10048.0,6592.0
2.3425,-11392.0,-10048.0,6592.0
2.345,-11392.0,-10112.0,6592.0
2.3475,-11392.0,-10048.0,6528.0
2.35,-11328.0,-10112.0,6592.0
2.3525,-11328.0,-10112.0,6592.0
2.355,-11264.0,-10048.0,6656.0
2.3575,-11264.0,-10112.0,6656.0
2.36,-11200.0,-10048.0,6720.0
2.3625,-11200.0,-10048.0,6720.0
2.365,-11072.0,-9984.0,6592.0
2.3675,-11136.0,-9920.0,6592.0
2.37,-11136.0,-9984.0,6656.0
2.3725,-11008.0,-9984.0,6656.0
2.375,-11008.0,-9984.0,6592.0
2.3775,-11008.0,-9984.0,6656.0
2.38,-11008.0,-9984.0,6656.0
2.3825,-11008.0,-9984.0,6592.0
2.385,-11008.0,-9920.0,6592.0
2.3875,-10880.0,-9856.0,6592.0
2.39,-10880.0,-9920.0,6528.0
2.3925,-10944.0,-9856.0,6528.0
2.395,-10944.0,-9920.0,6592.0
2.3975,-11008.0,-9792.0,6592.0
2.4,-10944.0,-9792.0,6592.0
2.4025,-10944.0,-9728.0,6592.0
2.405,-10944.0,-9664.0,6656.0
2.4075,-10944.0,-9728.0,6656.0
2.41,-10944.0,-9664.0,6720.0
2.4125,-10944.0,-9728.0,6592.0
2.415,-10944.0,-9664.0,6592.0
2.4175,-10944.0,-9664.0,6656.0
2.42,-10944.0,-9664.0,6656.0
2.4225,-10944.0,-9664.0,6656.0
2.425,-11008.0,-9664.0,6656.0
2.4275,-10944.0,-9600.0,6656.0
2.43,-10944.0,-9664.0,6720.0
2.4325,-10880.0,-9728.0,6720.0
2.435,-10944.0,-9728.0,6656.0
2.4375,-10880.0,-9664.0,6656.0
2.44,-10944.0,-9664.0,6592.0
2.4425,-10944.0,-9664.0,6656.0
2.445,-10880.0,-9664.0,6656.0
2.4475,-10816.0,-9664.0,6592.0
2.45,-10880.0,-9728.0,6656.0
2.4525,-10880.0,-9664.0,6656.0
2.455,-10880.0,-9664.0,6592.0
2.4575,-10944.0,-9664.0,6656.0
2.46,-10880.0,-9728.0,6592.0
2.4625,-10880.0,-9728.0,6528.0
2.465,-10816.0,-9664.0,6592.0
2.4675,-10880.0,-9728.0,6656.0
2.47,-10880.0,-9728.0,6656.0
2.4725,-10944.0,-9728.0,6656.0
2.475,-10944.0,-9792.0,6720.0
2.4775,-11008.0,-9792.0,6656.0
2.48,-10944.0,-9856.0,6528.0
2.4825,-11008.0,-9920.0,6656.0
2.485,-10944.0,-9856.0,6592.0
2.4875,-10944.0,-9920.0,6656.0
2.49,-10880.0,-9984.0,6592.0
2.4925,-10944.0,-9920.0,6656.0
2.495,-10944.0,-9856.0,6656.0
2.4975,-11008.0,-9920.0,6656.0
2.5,-11008.0,-9984.0,6720.0
2.5025,-11008.0,-9920.0,6720.0
2.505,-11008.0,-9984.0,6592.0
2.5075,-11072.0,-9984.0,6656.0
2.51,-11072.0,-9984.0,6528.0
2.5125,-11136.0,-10048.0,6528.0
2.515,-11200.0,-10048.0,6528.0
2.5175,-11200.0,-10048.0,6528.0
2.52,-11200.0,-10048.0,6528.0
2.5225,-11200.0,-10048.0,6528.0
2.525,-11264.0,-10048.0,6592.0
2.5275,-11328.0,-10112.0,6592.0
2.53,-11328.0,-10112.0,6528.0
2.5325,-11392.0,-10112.0,6592.0
2.535,-11392.0,-10112.0,6528.0
2.5375,-11392.0,-10112.0,6592.0
2.54,-11456.0,-10112.0,6592.0
2.5425,-11456.0,-10240.0,6592.0
2.545,-11456.0,-10240.0,6656.0
2.5475,-11520.0,-10304.0,6592.0
2.55,-11520.0,-10240.0,6592.0
2.5525,-11584.0,-10176.0,6528.0
2.555,-11456.0,-10240.0,6592.0
2.5575,-11520.0,-10304.0,6528.0
2.56,-11584.0,-10304.0,6656.0
2.5625,-11584.0,-10240.0,6656.0
2.565,-11520.0,-10176.0,6592.0
2.5675,-11520.0,-10240.0,6592.0
2.57,-11584.0,-10240.0,6656.0
2.5725,-11584.0,-10176.0,6592.0
2.575,-11584.0,-10176.0,6592.0
2.5775,-11584.0,-10240.0,6656.0
2.58,-11584.0,-10240.0,6656.0
2.5825,-11584.0,-10240.0,6656.0
2.585,-11712.0,-10304.0,6720.0
2.5875,-11712.0,-10304.0,6656.0
2.59,-11648.0,-10304.0,6656.0
2.5925,-11584.0,-10304.0,6592.0
2.595,-11584.0,-10240.0,6592.0
2.5975,-11584.0,-10240.0,6528.0
2.6,-11584.0,-10240.0,6592.0
2.6025,-11648.0,-10240.0,6592.0
2.605,-11584.0,-10240.0,6656.0
2.6075,-11584.0,-10240.0,6656.0
2.61,-11456.0,-10240.0,6656.0
2.6125,-11520.0,-10240.0,6784.0
2.615,-11520.0,-10240.0,6720.0
2.6175,-11392.0,-10240.0,6656.0
2.62,-11456.0,-10176.0,6720.0
2.6225,-11520.0,-10176.0,6656.0
2.625,-11520.0,-10240.0,6656.0
2.6275,-11520.0,-10240.0,6592.0
2.63,-11520.0,-10240.0,6528.0
2.6325,-11584.0,-10240.0,6528.0
2.635,-11520.0,-10176.0,6528.0
2.6375,-11456.0,-10112.0,6592.0
2.64,-11456.0,-10176.0,6464.0
2.6425,-11456.0,-10176.0,6400.0
2.645,-11392.0,-10112.0,6400.0
2.6475,-11392.0,-10112.0,6336.0
2.65,-11328.0,-10112.0,6272.0
2.6525,-11328.0,-10048.0,6336.0
2.655,-11328.0,-10112.0,6336.0
2.6575,-11392.0,-10048.0,6400.0
2.66,-11392.0,-9984.0,6464.0
2.6625,-11328.0,-10048.0,6464.0
2.665,-11328.0,-10048.0,6336.0
2.6675,-11264.0,-9984.0,6400.0
2.67,-11328.0,-9984.0,6336.0
2.6725,-11264.0,-9984.0,6336.0
2.675,-11200.0,-9856.0,6336.0
2.6775,-11264.0,-9792.0,6400.0
2.68,-11264.0,-9856.0,6400.0
2.6825,-11264.0,-9792.0,6464.0
2.685,-11264.0,-9856.0,6400.0
2.6875,-11264.0,-9792.0,6400.0
2.69,-11200.0,-9792.0,6464.0
2.6925,-11264.0,-9792.0,6400.0
2.695,-11264.0,-9728.0,6400.0
2.6975,-11264.0,-9728.0,6400.0
2.7,-11200.0,-9728.0,6336.0
2.7025,-11264.0,-9728.0,6336.0
2.705,-11328.0,-9728.0,6336.0
2.7075,-11328.0,-9728.0,6400.0
2.71,-11200.0,-9664.0,6336.0
2.7125,-11200.0,-9664.0,6272.0
2.715,-11264.0,-9664.0,6272.0
2.7175,-11264.0,-9600.0,6208.0
2.72,-11200.0,-9600.0,6272.0
2.7225,-11200.0,-9600.0,6208.0
2.725,-11200.0,-9536.0,6208.0
2.7275,-11200.0,-9472.0,6336.0
2.73,-11200.0,-9536.0,6272.0
2.7325,-11200.0,-9472.0,6336.0
2.735,-11136.0,-9472.0,6464.0
2.7375,-11136.0,-9472.0,6464.0
2.74,-11072.0,-9472.0,6400.0
2.7425,-11008.0,-9472.0,6400.0
2.745,-11008.0,-9472.0,6464.0
2.7475,-10944.0,-9472.0,6464.0
2.75,-10880.0,-9472.0,6464.0
2.7525,-10880.0,-9472.0,6464.0
2.755,-10816.0,-9408.0,6400.0
2.7575,-10752.0,-9408.0,6400.0
2.76,-10688.0,-9408.0,6336.0
2.7625,-10624.0,-9408.0,6400.0
2.765,-10624.0,-9408.0,6336.0
2.7675,-10560.0,-9472.0,6400.0
2.77,-10560.0,-9472.0,6464.0
2.7725,-10624.0,-9344.0,6464.0
2.775,-10624.0,-9408.0,6464.0
2.7775,-10496.0,-9472.0,6528.0
2.78,-10560.0,-9472.0,6464.0
2.7825,-10496.0,-9536.0,6528.0
2.785,-10432.0,-9472.0,6464.0
2.7875,-10432.0,-9536.0,6464.0
2.79,-10432.0,-9472.0,6528.0
2.7925,-10432.0,-9536.0,6592.0
2.795,-10432.0,-9536.0,6592.0
2.7975,-10432.0,-9600.0,6720.0
2.8,-10368.0,-9728.0,6720.0
2.8025,-10368.0,-9728.0,6720.0
2.805,-10368.0,-9792.0,6720.0
2.8075,-10432.0,-9856.0,6720.0
2.81,-10432.0,-9856.0,6784.0
2.8125,-10496.0,-9920.0,6848.0
2.815,-10496.0,-9920.0,6784.0
2.8175,-10496.0,-9920.0,6784.0
2.82,-10432.0,-9920.0,6784.0
2.8225,-10432.0,-9920.0,6656.0
2.825,-10496.0,-9984.0,6656.0
2.8275,-10496.0,-9920.0,6720.0
2.83,-10560.0,-9984.0,6656.0
2.8325,-10496.0,-10048.0,6656.0
2.835,-10560.0,-10048.0,6592.0
2.8375,-10624.0,-10112.0,6592.0
2.84,-10688.0,-10112.0,6528.0
2.8425,-10624.0,-10176.0,6528.0
2.845,-10624.0,-10176.0,6592.0
2.8475,-10624.0,-10176.0,6528.0
2.85,-10688.0,-10240.0,6528.0
2.8525,-10688.0,-10304.0,6528.0
2.855,-10688.0,-10304.0,6656.0
2.8575,-10624.0,-10240.0,6720.0
2.86,-10688.0,-10240.0,6656.0
2.8625,-10688.0,-10240.0,6656.0
2.865,-10752.0,-10176.0,6656.0
2.8675,-10752.0,-10176.0,6656.0
2.87,-10752.0,-10176.0,6784.0
2.8725,-10752.0,-10176.0,6720.0
2.875,-10816.0,-10176.0,6656.0
2.8775,-10816.0,-10176.0,6592.0
2.88,-10816.0,-10176.0,6720.0
2.8825,-10816.0,-10240.0,6592.0
2.885,-10880.0,-10240.0,6592.0
2.8875,-10944.0,-10176.0,6592.0
2.89,-10944.0,-10176.0,6592.0
2.8925,-10944.0,-10176.0,6656.0
2.895,-10944.0,-10112.0,6656.0
2.8975,-11008.0,-10176.0,6592.0
2.9,-10944.0,-10112.0,6528.0
2.9025,-11008.0,-10112.0,6464.0
2.905,-11072.0,-10176.0,6400.0
2.9075,-11072.0,-10176.0,6464.0
2.91,-11072.0,-10176.0,6464.0
2.9125,-11200.0,-10112.0,6528.0
2.915,-11200.0,-10112.0,6528.0
2.9175,-11328.0,-10112.0,6464.0
2.92,-11328.0,-10112.0,6400.0
2.9225,-11392.0,-10112.0,6400.0
2.925,-11392.0,-10112.0,6400.0
2.9275,-11456.0,-10048.0,6400.0
2.93,-11392.0,-10112.0,6336.0
2.9325,-11392.0,-10048.0,6336.0
2.935,-11392.0,-9984.0,6336.0
2.9375,-11456.0,-9984.0,6336.0
2.94,-11392.0,-9920.0,6400.0
2.9425,-11456.0,-9920.0,6336.0
2.945,-11392.0,-9856.0,6400.0
2.9475,-11456.0,-9856.0,6400.0
2.95,-11392.0,-9856.0,6336.0
2.9525,-11392.0,-9920.0,6272.0
2.955,-11392.0,-9920.0,6272.0
2.9575,-11456.0,-9856.0,6272.0
2.96,-11456.0,-9920.0,6208.0
2.9625,-11456.0,-9920.0,6144.0
2.965,-11520.0,-9856.0,6208.0
2.9675,-11456.0,-9856.0,6208.0
2.97,-11520.0,-9856.0,6080.0
2.9725,-11520.0,-9728.0,6144.0
2.975,-11456.0,-9728.0,6144.0
2.9775,-11392.0,-9728.0,6208.0
2.98,-11392.0,-9792.0,6272.0
2.9825,-11328.0,-9792.0,6336.0
2.985,-11328.0,-9728.0,6400.0
2.9875,-11328.0,-9728.0,6400.0
2.99,-11328.0,-9664.0,6400.0
2.9925,-11392.0,-9600.0,6400.0
2.995,-11392.0,-9600.0,6400.0
2.9975,-11456.0,-9664.0,6464.0
3.0,-11520.0,-9664.0,6464.0
3.0025,-11520.0,-9664.0,6400.0
3.005,-11584.0,-9664.0,6336.0
3.0075,-11648.0,-9728.0,6336.0
3.01,-11776.0,-9664.0,6336.0
3.0125,-11904.0,-9664.0,6272.0
3.015,-12032.0,-9664.0,6208.0
3.0175,-12160.0,-9600.0,6144.0
3.02,-12288.0,-9664.0,6016.0
3.0225,-12416.0,-9664.0,6016.0
3.025,-12544.0,-9664.0,5952.0
3.0275,-12672.0,-9664.0,6016.0
3.03,-12864.0,-9664.0,6016.0
3.0325,-12992.0,-9728.0,6080.0
3.035,-13056.0,-9728.0,6144.0
3.0375,-13120.0,-9792.0,6144.0
3.04,-13248.0,-9792.0,6336.0
3.0425,-13248.0,-9792.0,6336.0
3.045,-13248.0,-9792.0,6272.0
3.0475,-13184.0,-9792.0,6336.0
3.05,-13184.0,-9792.0,6336.0
3.0525,-13120.0,-9856.0,6336.0
3.055,-13056.0,-9856.0,6400.0
3.0575,-12992.0,-9792.0,6400.0
3.06,-12992.0,-9728.0,6336.0
3.0625,-12864.0,-9792.0,6272.0
3.065,-12864.0,-9728.0,6208.0
3.0675,-12736.0,-9728.0,6272.0
3.07,-12736.0,-9600.0,6208.0
3.0725,-12672.0,-9664.0,6208.0
3.075,-12608.0,-9664.0,6080.0
3.0775,-12608.0,-9664.0,6144.0
3.08,-12544.0,-9664.0,6016.0
3.0825,-12608.0,-9600.0,5952.0
3.085,-12608.0,-9536.0,6016.0
3.0875,-12608.0,-9536.0,5952.0
3.09,-12672.0,-9536.0,5888.0
3.0925,-12672.0,-9536.0,5888.0
3.095,-12672.0,-9472.0,5888.0
3.0975,-12736.0,-9472.0,5824.0
3.1,-12736.0,-9408.0,5888.0
3.1025,-12736.0,-9408.0,5888.0
3.105,-12672.0,-9344.0,5824.0
3.1075,-12736.0,-9344.0,5888.0
3.11,-12736.0,-9280.0,5952.0
3.1125,-12736.0,-9344.0,5952.0
3.115,-12800.0,-9280.0,6016.0
3.1175,-12736.0,-9344.0,5952.0
3.12,-12736.0,-9280.0,5888.0
3.1225,-12736.0,-9280.0,5760.0
3.125,-12736.0,-9216.0,5696.0
3.1275,-12800.0,-9216.0,5568.0
3.13,-12800.0,-9280.0,5440.0
3.1325,-12800.0,-9344.0,5184.0
3.135,-12800.0,-9216.0,5056.0
3.1375,-12736.0,-9216.0,4928.0
3.14,-12672.0,-9280.0,4800.0
3.1425,-12736.0,-9216.0,4800.0
3.145,-12800.0,-9216.0,4736.0
3.1475,-12800.0,-9152.0,4672.0
3.15,-12736.0,-9152.0,4672.0
3.1525,-12736.0,-9088.0,4608.0
3.155,-12800.0,-9024.0,4672.0
3.1575,-12736.0,-9024.0,4736.0
3.16,-12736.0,-9024.0,4800.0
3.1625,-12736.0,-8960.0,4800.0
3.165,-12736.0,-8960.0,4928.0
3.1675,-12672.0,-8896.0,4992.0
3.17,-12672.0,-8896.0,5120.0
3.1725,-12736.0,-8960.0,5248.0
3.175,-12736.0,-8896.0,5184.0
3.1775,-12736.0,-8896.0,5248.0
3.18,-12800.0,-8832.0,5248.0
3.1825,-12736.0,-8832.0,5248.0
3.185,-12800.0,-8832.0,5248.0
3.1875,-12800.0,-8768.0,5248.0
3.19,-12672.0,-8768.0,5248.0
3.1925,-12544.0,-8704.0,5312.0
3.195,-12544.0,-8640.0,5312.0
3.1975,-12480.0,-8640.0,5312.0
3.2,-12480.0,-8576.0,5312.0
3.2025,-12480.0,-8576.0,5184.0
3.205,-12480.0,-8640.0,5184.0
3.2075,-12480.0,-8640.0,4992.0
3.21,-12544.0,-8640.0,4992.0
3.2125,-12608.0,-8640.0,4800.0
3.215,-12608.0,-8704.0,4864.0
3.2175,-12672.0,-8704.0,4800.0
3.22,-12672.0,-8832.0,4736.0
3.2225,-12736.0,-8896.0,4608.0
3.225,-12800.0,-8960.0,4608.0
3.2275,-12864.0,-8960.0,4608.0
3.23,-12928.0,-8960.0,4544.0
3.2325,-12992.0,-9024.0,4608.0
3.235,-13056.0,-9088.0,4672.0
3.2375,-13184.0,-9088.0,4672.0
3.24,-13248.0,-9024.0,4800.0
3.2425,-13312.0,-9088.0,4800.0
3.245,-13440.0,-9088.0,4800.0
3.2475,-13504.0,-9088.0,4864.0
3.25,-13568.0,-9152.0,4736.0
3.2525,-13568.0,-9152.0,4800.0
3.255,-13632.0,-9152.0,4864.0
3.2575,-13632.0,-9216.0,4864.0
3.26,-13568.0,-9152.0,4800.0
3.2625,-13632.0,-9216.0,4800.0
3.265,-13632.0,-9216.0,4800.0
3.2675,-13696.0,-9152.0,4800.0
3.27,-13760.0,-9216.0,4800.0
3.2725,-13696.0,-9152.0,4736.0
3.275,-13632.0,-9216.0,4736.0
3.2775,-13632.0,-9216.0,4736.0
3.28,-13568.0,-9152.0,4864.0
3.2825,-13568.0,-9152.0,4800.0
3.285,-13568.0,-9152.0,4928.0
3.2875,-13568.0,-9088.0,4864.0
3.29,-13504.0,-9088.0,4928.0
3.2925,-13440.0,-9152.0,4992.0
3.295,-13504.0,-9216.0,4992.0
3.2975,-13504.0,-9152.0,4992.0
3.3,-13504.0,-9152.0,5056.0
3.3025,-13504.0,-9152.0,5056.0
3.305,-13504.0,-9152.0,5248.0
3.3075,-13504.0,-9152.0,5248.0
3.31,-13504.0,-9152.0,5248.0
3.3125,-13504.0,-9152.0,5312.0
3.315,-13504.0,-9088.0,5440.0
3.3175,-13440.0,-9088.0,5440.0
3.32,-13440.0,-9088.0,5440.0
3.3225,-13440.0,-9024.0,5504.0
3.325,-13440.0,-9088.0,5440.0
3.3275,-13440.0,-9088.0,5504.0
3.33,-13376.0,-9088.0,5504.0
3.3325,-13376.0,-9152.0,5504.0
3.335,-13312.0,-9152.0,5312.0
3.3375,-13248.0,-9088.0,5504.0
3.34,-13184.0,-9088.0,5440.0
3.3425,-13184.0,-9088.0,5440.0
3.345,-13120.0,-9088.0,5504.0
3.3475,-13056.0,-9088.0,5504.0
3.35,-13056.0,-9088.0,5504.0
3.3525,-12992.0,-9088.0,5504.0
3.355,-12928.0,-9152.0,5504.0
3.3575,-12928.0,-9152.0,5440.0
3.36,-12992.0,-9152.0,5504.0
3.3625,-12992.0,-9152.0,5568.0
3.365,-12928.0,-9024.0,5504.0
3.3675,-12928.0,-9024.0,5568.0
3.37,-12864.0,-9088.0,5568.0
3.3725,-12864.0,-9088.0,5632.0
3.375,-12864.0,-9088.0,5568.0
3.3775,-12864.0,-9088.0,5632.0
3.38,-12864.0,-9088.0,5696.0
3.3825,-12928.0,-9152.0,5632.0
3.385,-12928.0,-9088.0,5632.0
3.3875,-12864.0,-9088.0,5568.0
3.39,-12928.0,-9088.0,5568.0
3.3925,-12864.0,-9024.0,5568.0
3.395,-12864.0,-9088.0,5568.0
3.3975,-12800.0,-9024.0,5696.0
3.4,-12736.0,-9088.0,5568.0
3.4025,-12736.0,-9088.0,5568.0
3.405,-12800.0,-9024.0,5632.0
3.4075,-12672.0,-9024.0,5568.0
3.41,-12736.0,-9024.0,5568.0
3.4125,-12736.0,-9024.0,5632.0
3.415,-12672.0,-8960.0,5504.0
3.4175,-12672.0,-8896.0,5504.0
3.42,-12672.0,-8960.0,5504.0
3.4225,-12672.0,-8960.0,5440.0
3.425,-12672.0,-8960.0,5440.0
3.4275,-12736.0,-8960.0,5440.0
3.43,-12736.0,-8960.0,5376.0
3.4325,-12736.0,-8896.0,5440.0
3.435,-12736.0,-8960.0,5504.0
3.4375,-12736.0,-8896.0,5440.0
3.44,-12800.0,-8832.0,5504.0
3.4425,-12736.0,-8832.0,5504.0
3.445,-12800.0,-8832.0,5440.0
3.4475,-12864.0,-8768.0,5376.0
3.45,-12864.0,-8832.0,5376.0
3.4525,-12864.0,-8832.0,5376.0
3.455,-12864.0,-8832.0,5504.0
3.4575,-12864.0,-8768.0,5440.0
3.46,-12864.0,-8768.0,5504.0
3.4625,-12864.0,-8768.0,5440.0
3.465,-12864.0,-8768.0,5248.0
3.4675,-12928.0,-8768.0,5248.0
3.47,-12928.0,-8832.0,5184.0
3.4725,-12864.0,-8832.0,5184.0
3.475,-12864.0,-8768.0,5184.0
3.4775,-12928.0,-8832.0,5120.0
3.48,-12992.0,-8832.0,5120.0
3.4825,-12992.0,-8896.0,5056.0
3.485,-12992.0,-8832.0,4992.0
3.4875,-13056.0,-8832.0,4992.0
3.49,-13056.0,-8768.0,4992.0
3.4925,-13056.0,-8768.0,4928.0
3.495,-13120.0,-8832.0,4928.0
3.4975,-13120.0,-8768.0,4864.0
3.5,-13184.0,-8768.0,4992.0
3.5025,-13184.0,-8768.0,4992.0
3.505,-13184.0,-8768.0,4992.0
3.5075,-13184.0,-8704.0,4992.0
3.51,-13184.0,-8768.0,4992.0
3.5125,-13184.0,-8832.0,4928.0
3.515,-13184.0,-8832.0,4928.0
3.5175,-13248.0,-8832.0,4928.0
3.52,-13248.0,-8832.0,4928.0
3.5225,-13120.0,-8832.0,4928.0
3.525,-13120.0,-8832.0,4928.0
3.5275,-13184.0,-8832.0,4928.0
3.53,-13120.0,-8832.0,4864.0
3.5325,-13056.0,-8768.0,4864.0
3.535,-13056.0,-8768.0,4864.0
3.5375,-13056.0,-8768.0,4800.0
3.54,-12992.0,-8832.0,4800.0
3.5425,-12928.0,-8832.0,4736.0
3.545,-12928.0,-8896.0,4736.0
3.5475,-12864.0,-8896.0,4736.0
3.55,-12864.0,-8896.0,4736.0
3.5525,-12928.0,-8896.0,4800.0
3.555,-12864.0,-8896.0,4736.0
3.5575,-12864.0,-8960.0,4736.0
3.56,-12800.0,-8960.0,4800.0
3.5625,-12800.0,-9024.0,4736.0
3.565,-12736.0,-9024.0,4736.0
3.5675,-12736.0,-8960.0,4800.0
3.57,-12672.0,-9024.0,4800.0
3.5725,-12672.0,-9024.0,4864.0
3.575,-12608.0,-8960.0,4864.0
3.5775,-12544.0,-9024.0,4864.0
3.58,-12544.0,-9152.0,4800.0
3.5825,-12480.0,-9152.0,4864.0
3.585,-12544.0,-9088.0,4864.0
3.5875,-12544.0,-9152.0,4864.0
3.59,-12544.0,-9152.0,4800.0
3.5925,-12480.0,-9216.0,4800.0
3.595,-12416.0,-9152.0,4672.0
3.5975,-12352.0,-9216.0,4672.0
3.6,-12288.0,-9216.0,4608.0
3.6025,-12224.0,-9216.0,4544.0
3.605,-12224.0,-9216.0,4480.0
3.6075,-12224.0,-9216.0,4544.0
3.61,-12224.0,-9280.0,4416.0
3.6125,-12160.0,-9280.0,4544.0
3.615,-12160.0,-9344.0,4544.0
3.6175,-12160.0,-9344.0,4608.0
3.62,-12096.0,-9280.0,4480.0
3.6225,-12096.0,-9344.0,4480.0
3.625,-12096.0,-9344.0,4416.0
3.6275,-12160.0,-9344.0,4416.0
3.63,-12160.0,-9344.0,4480.0
3.6325,-12224.0,-9344.0,4480.0
3.635,-12224.0,-9280.0,4544.0
3.6375,-12224.0,-9280.0,4608.0
3.64,-12224.0,-9280.0,4544.0
3.6425,-12160.0,-9216.0,4544.0
3.645,-12288.0,-9344.0,4544.0
3.6475,-12352.0,-9216.0,4480.0
3.65,-12352.0,-9216.0,4544.0
3.6525,-12352.0,-9280.0,4544.0
3.655,-12352.0,-9280.0,4544.0
3.6575,-12352.0,-9216.0,4480.0
3.66,-12352.0,-9216.0,4480.0
3.6625,-12352.0,-9216.0,4480.0
3.665,-12416.0,-9216.0,4480.0
3.6675,-12480.0,-9280.0,4544.0
3.67,-12480.0,-9280.0,4480.0
3.6725,-12480.0,-9280.0,4480.0
3.675,-12544.0,-9344.0,4480.0
3.6775,-12608.0,-9344.0,4480.0
3.68,-12736.0,-9408.0,4544.0
3.6825,-12736.0,-9408.0,4480.0
3.685,-12864.0,-9408.0,4480.0
3.6875,-12928.0,-9408.0,4480.0
3.69,-12992.0,-9472.0,4480.0
3.6925,-12992.0,-9472.0,4480.0
3.695,-12992.0,-9472.0,4416.0
3.6975,-12992.0,-9408.0,4416.0
3.7,-13056.0,-9536.0,4480.0
3.7025,-12992.0,-9536.0,4480.0
3.705,-12928.0,-9600.0,4544.0
3.7075,-12928.0,-9664.0,4544.0
3.71,-12928.0,-9664.0,4544.0
3.7125,-12928.0,-9664.0,4608.0
3.715,-12992.0,-9664.0,4544.0
3.7175,-12928.0,-9664.0,4608.0
3.72,-12864.0,-9664.0,4544.0
3.7225,-12864.0,-9664.0,4544.0
3.725,-12864.0,-9664.0,4480.0
3.7275,-12736.0,-9664.0,4480.0
3.73,-12672.0,-9664.0,4480.0
3.7325,-12608.0,-9664.0,4416.0
3.735,-12608.0,-9664.0,4480.0
3.7375,-12544.0,-9728.0,4480.0
3.74,-12416.0,-9728.0,4480.0
3.7425,-12352.0,-9664.0,4544.0
3.745,-12288.0,-9728.0,4544.0
3.7475,-12224.0,-9664.0,4672.0
3.75,-12096.0,-9664.0,4672.0
3.7525,-12096.0,-9600.0,4608.0
3.755,-11968.0,-9664.0,4608.0
3.7575,-11904.0,-9664.0,4608.0
3.76,-11776.0,-9536.0,4672.0
3.7625,-11648.0,-9536.0,4544.0
3.765,-11584.0,-9472.0,4608.0
3.7675,-11520.0,-9536.0,4672.0
3.77,-11520.0,-9472.0,4672.0
3.7725,-11456.0,-9472.0,4736.0
3.775,-11392.0,-9472.0,4672.0
3.7775,-11328.0,-9536.0,4672.0
3.78,-11392.0,-9600.0,4608.0
3.7825,-11392.0,-9536.0,4608.0
3.785,-11456.0,-9536.0,4480.0
3.7875,-11520.0,-9536.0,4480.0
3.79,-11520.0,-9536.0,4544.0
3.7925,-11584.0,-9472.0,4608.0
3.795,-11584.0,-9472.0,4544.0
3.7975,-11648.0,-9472.0,4480.0
3.8,-11712.0,-9408.0,4608.0
3.8025,-11776.0,-9408.0,4736.0
3.805,-11840.0,-9408.0,4800.0
3.8075,-11904.0,-9408.0,4800.0
3.81,-12032.0,-9408.0,4800.0
3.8125,-12160.0,-9408.0,4800.0
3.815,-12288.0,-9472.0,4736.0
3.8175,-12416.0,-9408.0,4800.0
3.82,-12352.0,-9472.0,4800.0
3.8225,-12480.0,-9472.0,4736.0
3.825,-12544.0,-9536.0,4736.0
3.8275,-12736.0,-9536.0,4800.0
3.83,-12800.0,-9600.0,4736.0
3.8325,-12928.0,-9536.0,4672.0
3.835,-12928.0,-9600.0,4736.0
3.8375,-13056.0,-9600.0,4672.0
3.84,-13184.0,-9536.0,4672.0
3.8425,-13376.0,-9600.0,4672.0
3.845,-13568.0,-9664.0,4672.0
3.8475,-13632.0,-9664.0,4736.0
3.85,-13632.0,-9792.0,4800.0
3.8525,-13696.0,-9856.0,4672.0
3.855,-13824.0,-9856.0,4672.0
3.8575,-13888.0,-9920.0,4736.0
3.86,-14016.0,-9920.0,4736.0
3.8625,-14080.0,-9984.0,4672.0
3.865,-14080.0,-9984.0,4608.0
3.8675,-14144.0,-9984.0,4672.0
3.87,-14144.0,-9984.0,4672.0
3.8725,-14144.0,-9984.0,4672.0
3.875,-14144.0,-9984.0,4736.0
3.8775,-14144.0,-9984.0,4672.0
3.88,-14208.0,-9920.0,4672.0
3.8825,-14144.0,-9984.0,4736.0
3.885,-14080.0,-9984.0,4672.0
3.8875,-14016.0,-10048.0,4672.0
3.89,-14016.0,-10048.0,4672.0
3.8925,-13888.0,-10048.0,4736.0
3.895,-13760.0,-10048.0,4800.0
3.8975,-13632.0,-10112.0,4736.0
3.9,-13568.0,-10048.0,4672.0
3.9025,-13504.0,-10048.0,4672.0
3.905,-13376.0,-10048.0,4672.0
3.9075,-13248.0,-9984.0,4672.0
3.91,-13120.0,-10048.0,4672.0
3.9125,-12992.0,-9984.0,4544.0
3.915,-12928.0,-9984.0,4672.0
3.9175,-12800.0,-9920.0,4672.0
3.92,-12608.0,-9792.0,4608.0
3.9225,-12480.0,-9792.0,4608.0
3.925,-12480.0,-9728.0,4544.0
3.9275,-12416.0,-9664.0,4608.0
3.93,-12352.0,-9664.0,4544.0
3.9325,-12352.0,-9664.0,4608.0
3.935,-12352.0,-9664.0,4608.0
3.9375,-12352.0,-9664.0,4672.0
3.94,-12352.0,-9536.0,4544.0
3.9425,-12352.0,-9536.0,4480.0
3.945,-12352.0,-9472.0,4480.0
3.9475,-12352.0,-9536.0,4544.0
3.95,-12352.0,-9600.0,4544.0
3.9525,-12416.0,-9536.0,4480.0
3.955,-12480.0,-9472.0,4544.0
3.9575,-12480.0,-9472.0,4608.0
3.96,-12480.0,-9472.0,4544.0
3.9625,-12480.0,-9536.0,4544.0
3.965,-12544.0,-9536.0,4608.0
3.9675,-12544.0,-9408.0,4480.0
3.97,-12544.0,-9408.0,4544.0
3.9725,-12544.0,-9344.0,4544.0
3.975,-12544.0,-9216.0,4480.0
3.9775,-12608.0,-9216.0,4480.0
3.98,-12544.0,-9216.0,4544.0
3.9825,-12608.0,-9152.0,4608.0
3.985,-12544.0,-9216.0,4544.0
3.9875,-12480.0,-9152.0,4544.0
3.99,-12544.0,-9280.0,4608.0
3.9925,-12544.0,-9280.0,4736.0
3.995,-12608.0,-9344.0,4736.0
3.9975,-12544.0,-9344.0,4672.0
4.0,-12544.0,-9280.0,4672.0
4.0025,-12544.0,-9216.0,4608.0
4.005,-12544.0,-9152.0,4672.0
4.0075,-12544.0,-9088.0,4672.0
4.01,-12544.0,-9088.0,4800.0
4.0125,-12544.0,-9088.0,4928.0
4.015,-12544.0,-9088.0,4928.0
4.0175,-12544.0,-9024.0,4928.0
4.02,-12608.0,-9024.0,4928.0
4.0225,-12608.0,-9024.0,4992.0
4.025,-12608.0,-9088.0,4992.0
4.0275,-12608.0,-9024.0,4992.0
4.03,-12608.0,-9088.0,4992.0
4.0325,-12672.0,-9152.0,5120.0
4.035,-12736.0,-9152.0,5248.0
4.0375,-12800.0,-9152.0,5248.0
4.04,-12864.0,-9152.0,5248.0
4.0425,-12928.0,-9216.0,5184.0
4.045,-12992.0,-9216.0,5184.0
4.0475,-12992.0,-9152.0,5184.0
4.05,-13056.0,-9152.0,5184.0
4.0525,-13120.0,-9088.0,5184.0
4.055,-13184.0,-9024.0,5184.0
4.0575,-13248.0,-9024.0,5120.0
4.06,-13440.0,-9024.0,5056.0
4.0625,-13568.0,-9024.0,5056.0
4.065,-13568.0,-9024.0,4992.0
4.0675,-13824.0,-8960.0,4928.0
4.07,-13824.0,-8960.0,4928.0
4.0725,-13952.0,-9024.0,4864.0
4.075,-14080.0,-8960.0,4864.0
4.0775,-14208.0,-8960.0,4800.0
4.08,-14528.0,-9088.0,4672.0
4.0825,-14656.0,-9024.0,4672.0
4.085,-14784.0,-9088.0,4544.0
4.0875,-14912.0,-9088.0,4544.0
4.09,-15104.0,-9152.0,4544.0
4.0925,-15232.0,-9152.0,4544.0
4.095,-15424.0,-9088.0,4672.0
4.0975,-15552.0,-9088.0,4608.0
4.1,-15744.0,-9088.0,4608.0
4.1025,-15872.0,-9024.0,4672.0
4.105,-16064.0,-9024.0,4736.0
4.1075,-16192.0,-8960.0,4736.0
4.11,-16384.0,-8896.0,4800.0
4.1125,-16512.0,-8896.0,4928.0
4.115,-16640.0,-8896.0,4992.0
4.1175,-16768.0,-8896.0,5056.0
4.12,-16896.0,-8896.0,5184.0
4.1225,-17024.0,-8896.0,5248.0
4.125,-17152.0,-8832.0,5312.0
4.1275,-17344.0,-8896.0,5440.0
4.13,-17408.0,-8896.0,5376.0
4.1325,-17536.0,-8896.0,5504.0
4.135,-17600.0,-8832.0,5568.0
4.1375,-17664.0,-8832.0,5632.0
4.14,-17600.0,-8896.0,5632.0
4.1425,-17664.0,-8960.0,5632.0
4.145,-17664.0,-8896.0,5632.0
4.1475,-17664.0,-8896.0,5696.0
4.15,-17664.0,-8832.0,5632.0
4.1525,-17728.0,-8896.0,5568.0
4.155,-17728.0,-8832.0,5440.0
4.1575,-17600.0,-8832.0,5312.0
4.16,-17472.0,-8832.0,5056.0
4.1625,-17408.0,-8832.0,4992.0
4.165,-17344.0,-8768.0,4928.0
4.1675,-17280.0,-8768.0,4800.0
4.17,-17152.0,-8704.0,4736.0
4.1725,-17152.0,-8640.0,4736.0
4.175,-17024.0,-8512.0,4736.0
4.1775,-16960.0,-8448.0,4800.0
4.18,-16896.0,-8448.0,4864.0
4.1825,-16896.0,-8384.0,4928.0
4.185,-16768.0,-8320.0,4928.0
4.1875,-16704.0,-8192.0,5056.0
4.19,-16640.0,-8064.0,5120.0
4.1925,-16704.0,-8064.0,5248.0
4.195,-16640.0,-8000.0,5376.0
4.1975,-16576.0,-7936.0,5504.0
4.2,-16512.0,-7872.0,5568.0
4.2025,-16512.0,-7808.0,5632.0
4.205,-16384.0,-7808.0,5632.0
4.2075,-16384.0,-7744.0,5696.0
4.21,-16320.0,-7680.0,5632.0
4.2125,-16192.0,-7552.0,5568.0
4.215,-16192.0,-7424.0,5568.0
4.2175,-16064.0,-7296.0,5632.0
4.22,-16000.0,-7232.0,5568.0
4.2225,-15936.0,-7168.0,5504.0
4.225,-15808.0,-7104.0,5440.0
4.2275,-15744.0,-7040.0,5440.0
4.23,-15616.0,-6848.0,5312.0
4.2325,-15488.0,-6848.0,5248.0
4.235,-15424.0,-6784.0,5248.0
4.2375,-15296.0,-6720.0,5120.0
4.24,-15104.0,-6528.0,5184.0
4.2425,-14912.0,-6464.0,5120.0
4.245,-14848.0,-6400.0,5120.0
4.2475,-14720.0,-6336.0,5184.0
4.25,-14592.0,-6144.0,5184.0
4.2525,-14528.0,-6016.0,5248.0
4.255,-14336.0,-5888.0,5248.0
4.2575,-14208.0,-5696.0,5312.0
4.26,-14080.0,-5568.0,5312.0
4.2625,-14016.0,-5376.0,5248.0
4.265,-13888.0,-5312.0,5312.0
4.2675,-13760.0,-5248.0,5312.0
4.27,-13696.0,-5184.0,5376.0
4.2725,-13568.0,-5184.0,5440.0
4.275,-13504.0,-5120.0,5376.0
4.2775,-13440.0,-4992.0,5376.0
4.28,-13312.0,-4928.0,5376.0
4.2825,-13312.0,-4928.0,5376.0
4.285,-13248.0,-4992.0,5376.0
4.2875,-13248.0,-4992.0,5376.0
4.29,-13248.0,-4992.0,5376.0
4.2925,-13248.0,-4992.0,5312.0
4.295,-13248.0,-4992.0,5376.0
4.2975,-13248.0,-4992.0,5312.0
4.3,-13248.0,-4992.0,5312.0
4.3025,-13312.0,-4992.0,5248.0
4.305,-13312.0,-4992.0,5248.0
4.3075,-13376.0,-5056.0,5248.0
4.31,-13440.0,-5056.0,5248.0
4.3125,-13376.0,-5120.0,5120.0
4.315,-13504.0,-5184.0,5120.0
4.3175,-13568.0,-5248.0,5056.0
4.32,-13760.0,-5312.0,5120.0
4.3225,-13888.0,-5312.0,5120.0
4.325,-13888.0,-5312.0,5184.0
4.3275,-14080.0,-5312.0,5120.0
4.33,-14144.0,-5376.0,5120.0
4.3325,-14272.0,-5440.0,5184.0
4.335,-14336.0,-5376.0,5184.0
4.3375,-14336.0,-5376.0,5312.0
4.34,-14400.0,-5312.0,5312.0
4.3425,-14464.0,-5376.0,5312.0
4.345,-14592.0,-5376.0,5440.0
4.3475,-14720.0,-5376.0,5376.0
4.35,-14784.0,-5440.0,5376.0
4.3525,-14848.0,-5376.0,5376.0
4.355,-14848.0,-5376.0,5440.0
4.3575,-14848.0,-5440.0,5376.0
4.36,-14848.0,-5440.0,5376.0
4.3625,-14848.0,-5440.0,5312.0
4.365,-14784.0,-5376.0,5248.0
4.3675,-14784.0,-5376.0,5184.0
4.37,-14848.0,-5312.0,5312.0
4.3725,-14848.0,-5312.0,5312.0
4.375,-14848.0,-5376.0,5312.0
4.3775,-14784.0,-5312.0,5248.0
4.38,-14720.0,-5312.0,5376.0
4.3825,-14656.0,-5248.0,5312.0
4.385,-14720.0,-5248.0,5376.0
4.3875,-14656.0,-5248.0,5376.0
4.39,-14592.0,-5312.0,5376.0
4.3925,-14592.0,-5184.0,5376.0
4.395,-14656.0,-5184.0,5440.0
4.3975,-14592.0,-5248.0,5440.0
4.4,-14528.0,-5120.0,5504.0
4.4025,-14464.0,-5120.0,5568.0
4.405,-14464.0,-5120.0,5504.0
4.4075,-14464.0,-5056.0,5504.0
4.41,-14400.0,-5120.0,5376.0
4.4125,-14400.0,-5056.0,5440.0
4.415,-14336.0,-5056.0,5504.0
4.4175,-14272.0,-5056.0,5504.0
4.42,-14272.0,-5056.0,5504.0
4.4225,-14144.0,-5056.0,5440.0
4.425,-14080.0,-5056.0,5376.0
4.4275,-14016.0,-4992.0,5376.0
4.43,-14016.0,-4992.0,5376.0
4.4325,-14016.0,-4992.0,5440.0
4.435,-13952.0,-5056.0,5376.0
4.4375,-13952.0,-5056.0,5376.0
4.44,-13888.0,-5056.0,5312.0
4.4425,-13824.0,-4992.0,5312.0
4.445,-13824.0,-4992.0,5312.0
4.4475,-13824.0,-4928.0,5312.0
4.45,-13824.0,-4928.0,5312.0
4.4525,-13760.0,-4928.0,5248.0
4.455,-13760.0,-4992.0,5312.0
4.4575,-13760.0,-4992.0,5248.0
4.46,-13760.0,-4928.0,5248.0
4.4625,-13760.0,-4992.0,5248.0
4.465,-13824.0,-4992.0,5248.0
4.4675,-13824.0,-4992.0,5248.0
4.47,-13824.0,-4992.0,5184.0
4.4725,-13824.0,-5056.0,5184.0
4.475,-13888.0,-5056.0,5120.0
4.4775,-13952.0,-5056.0,5120.0
4.48,-14016.0,-5056.0,5184.0
4.4825,-14080.0,-4992.0,5120.0
4.485,-14080.0,-4992.0,5120.0
4.4875,-14144.0,-5056.0,5120.0
4.49,-14144.0,-5120.0,5056.0
4.4925,-14272.0,-5056.0,5056.0
4.495,-14272.0,-4992.0,5056.0
4.4975,-14272.0,-4928.0,5056.0
4.5,-14272.0,-4992.0,4992.0
4.5025,-14336.0,-4928.0,5056.0
4.505,-14400.0,-4992.0,4992.0
4.5075,-14336.0,-4992.0,4992.0
4.51,-14464.0,-4992.0,4992.0
4.5125,-14464.0,-4992.0,4928.0
4.515,-14528.0,-4992.0,4928.0
4.5175,-14528.0,-4992.0,4864.0
4.52,-14592.0,-4992.0,4800.0
4.5225,-14592.0,-4928.0,4864.0
4.525,-14656.0,-4928.0,4864.0
4.5275,-14720.0,-4928.0,4800.0
4.53,-14656.0,-4864.0,4736.0
4.5325,-14656.0,-4928.0,4736.0
4.535,-14720.0,-4864.0,4672.0
4.5375,-14656.0,-4800.0,4736.0
4.54,-14656.0,-4800.0,4736.0
4.5425,-14720.0,-4736.0,4608.0
4.545,-14656.0,-4800.0,4608.0
4.5475,-14656.0,-4800.0,4608.0
4.55,-14720.0,-4800.0,4672.0
4.5525,-14720.0,-4800.0,4608.0
4.555,-14848.0,-4800.0,4608.0
4.5575,-14784.0,-4800.0,4672.0
4.56,-14912.0,-4800.0,4608.0
4.5625,-14912.0,-4864.0,4672.0
4.565,-14912.0,-4864.0,4736.0
4.5675,-14912.0,-4800.0,4736.0
4.57,-14912.0,-4800.0,4736.0
4.5725,-14976.0,-4800.0,4736.0
4.575,-14976.0,-4736.0,4800.0
4.5775,-14976.0,-4736.0,4864.0
4.58,-14912.0,-4736.0,4800.0
4.5825,-14976.0,-4672.0,4736.0
4.585,-14976.0,-4608.0,4736.0
4.5875,-14976.0,-4544.0,4672.0
4.59,-14976.0,-4608.0,4736.0
4.5925,-14976.0,-4608.0,4608.0
4.595,-14912.0,-4608.0,4672.0
4.5975,-14848.0,-4544.0,4736.0
4.6,-14784.0,-4672.0,4800.0
4.6025,-14720.0,-4608.0,4672.0
4.605,-14720.0,-4608.0,4672.0
4.6075,-14720.0,-4544.0,4672.0
4.61,-14592.0,-4544.0,4672.0
4.6125,-14592.0,-4544.0,4736.0
4.615,-14464.0,-4544.0,4800.0
4.6175,-14464.0,-4480.0,4800.0
4.62,-14400.0,-4480.0,4736.0
4.6225,-14400.0,-4480.0,4864.0
4.625,-14272.0,-4480.0,4864.0
4.6275,-14272.0,-4416.0,4864.0
4.63,-14144.0,-4416.0,4864.0
4.6325,-14080.0,-4352.0,4800.0
4.635,-14016.0,-4352.0,4800.0
4.6375,-14016.0,-4352.0,4864.0
4.64,-13888.0,-4288.0,4800.0
4.6425,-13888.0,-4224.0,4736.0
4.645,-13760.0,-4224.0,4800.0
4.6475,-13760.0,-4224.0,4864.0
4.65,-13632.0,-4224.0,4800.0
4.6525,-13504.0,-4224.0,4736.0
4.655,-13440.0,-4160.0,4800.0
4.6575,-13376.0,-4160.0,4672.0
4.66,-13312.0,-4096.0,4672.0
4.6625,-13248.0,-4096.0,4672.0
4.665,-13312.0,-4096.0,4800.0
4.6675,-13184.0,-3968.0,4736.0
4.67,-13184.0,-3968.0,4736.0
4.6725,-13184.0,-3968.0,4672.0
4.675,-13056.0,-3968.0,4800.0
4.6775,-13056.0,-3968.0,4736.0
4.68,-13056.0,-3904.0,4736.0
4.6825,-13056.0,-3904.0,4800.0
4.685,-12992.0,-3904.0,4800.0
4.6875,-13056.0,-3904.0,4800.0
4.69,-12992.0,-3904.0,4736.0
4.6925,-12992.0,-3904.0,4800.0
4.695,-12928.0,-3904.0,4800.0
4.6975,-12864.0,-3904.0,4736.0
4.7,-12928.0,-3904.0,4672.0
4.7025,-12928.0,-3904.0,4736.0
4.705,-12928.0,-3904.0,4736.0
4.7075,-12928.0,-3968.0,4736.0
4.71,-12928.0,-3968.0,4608.0
4.7125,-12928.0,-3968.0,4608.0
4.715,-12992.0,-3968.0,4608.0
4.7175,-13056.0,-3968.0,4544.0
4.72,-13120.0,-3904.0,4480.0
4.7225,-13184.0,-3904.0,4480.0
4.725,-13248.0,-3968.0,4480.0
4.7275,-13248.0,-4032.0,4416.0
4.73,-13376.0,-4032.0,4416.0
4.7325,-13504.0,-4096.0,4416.0
4.735,-13504.0,-4096.0,4288.0
4.7375,-13568.0,-4096.0,4288.0
4.74,-13568.0,-4096.0,4352.0
4.7425,-13632.0,-3968.0,4352.0
4.745,-13696.0,-4032.0,4352.0
4.7475,-13760.0,-4160.0,4352.0
4.75,-13824.0,-4224.0,4288.0
4.7525,-13760.0,-4160.0,4288.0
4.755,-13760.0,-4160.0,4352.0
4.7575,-13824.0,-4224.0,4288.0
4.76,-13824.0,-4224.0,4288.0
4.7625,-13888.0,-4224.0,4288.0
4.765,-13952.0,-4224.0,4352.0
4.7675,-13952.0,-4160.0,4352.0
4.77,-13952.0,-4224.0,4352.0
4.7725,-13952.0,-4224.0,4288.0
4.775,-14016.0,-4224.0,4288.0
4.7775,-14080.0,-4224.0,4288.0
4.78,-14144.0,-4288.0,4160.0
4.7825,-14208.0,-4288.0,4224.0
4.785,-14272.0,-4352.0,4224.0
4.7875,-14272.0,-4416.0,4160.0
4.79,-14336.0,-4544.0,4096.0
4.7925,-14400.0,-4480.0,4096.0
4.795,-14464.0,-4544.0,4096.0
4.7975,-14528.0,-4672.0,4160.0
4.8,-14656.0,-4672.0,4160.0
4.8025,-14720.0,-4800.0,4224.0
4.805,-14784.0,-4800.0,4096.0
4.8075,-14784.0,-4800.0,4096.0
4.81,-14784.0,-4864.0,4032.0
4.8125,-14720.0,-4864.0,4032.0
4.815,-14784.0,-4928.0,4096.0
4.8175,-14848.0,-4928.0,4160.0
4.82,-14848.0,-4928.0,4224.0
4.8225,-14848.0,-4928.0,4224.0
4.825,-14912.0,-4928.0,4288.0
4.8275,-14912.0,-4864.0,4224.0
4.83,-14912.0,-4992.0,4224.0
4.8325,-14848.0,-4992.0,4288.0
4.835,-14912.0,-4992.0,4288.0
4.8375,-14912.0,-5056.0,4224.0
4.84,-14976.0,-5056.0,4288.0
4.8425,-14976.0,-5056.0,4352.0
4.845,-15040.0,-4992.0,4288.0
4.8475,-15104.0,-4992.0,4288.0
4.85,-15168.0,-4992.0,4224.0
4.8525,-15168.0,-4928.0,4288.0
4.855,-15296.0,-4992.0,4352.0
4.8575,-15360.0,-4992.0,4352.0
4.86,-15360.0,-4992.0,4416.0
4.8625,-15360.0,-5056.0,4416.0
4.865,-15488.0,-4992.0,4480.0
4.8675,-15424.0,-4992.0,4416.0
4.87,-15424.0,-4992.0,4480.0
4.8725,-15424.0,-4992.0,4544.0
4.875,-15424.0,-4992.0,4544.0
4.8775,-15488.0,-5056.0,4480.0
4.88,-15424.0,-4928.0,4672.0
4.8825,-15360.0,-4928.0,4672.0
4.885,-15296.0,-4992.0,4672.0
4.8875,-15232.0,-4992.0,4800.0
4.89,-15168.0,-4928.0,4800.0
4.8925,-15168.0,-4864.0,4800.0
4.895,-15104.0,-4800.0,4800.0
4.8975,-15104.0,-4800.0,4736.0
4.9,-14976.0,-4864.0,4672.0
4.9025,-14848.0,-4800.0,4672.0
4.905,-14784.0,-4800.0,4736.0
4.9075,-14848.0,-4800.0,4672.0
4.91,-14656.0,-4800.0,4608.0
4.9125,-14656.0,-4800.0,4608.0
4.915,-14656.0,-4800.0,4608.0
4.9175,-14592.0,-4864.0,4608.0
4.92,-14592.0,-4800.0,4672.0
4.9225,-14528.0,-4864.0,4672.0
4.925,-14400.0,-4864.0,4672.0
4.9275,-14400.0,-4928.0,4672.0
4.93,-14336.0,-4928.0,4736.0
4.9325,-14272.0,-4928.0,4736.0
4.935,-14208.0,-4864.0,4672.0
4.9375,-14144.0,-4864.0,4672.0
4.94,-14208.0,-4800.0,4608.0
4.9425,-14080.0,-4736.0,4544.0
4.945,-14080.0,-4800.0,4544.0
4.9475,-14080.0,-4800.0,4480.0
4.95,-14080.0,-4736.0,4544.0
4.9525,-14080.0,-4736.0,4480.0
4.955,-14080.0,-4800.0,4544.0
4.9575,-14080.0,-4736.0,4480.0
4.96,-14016.0,-4736.0,4480.0
4.9625,-13952.0,-4800.0,4352.0
4.965,-13952.0,-4736.0,4288.0
4.9675,-13952.0,-4736.0,4352.0
4.97,-14016.0,-4672.0,4352.0
4.9725,-14016.0,-4672.0,4352.0
4.975,-14080.0,-4608.0,4288.0
4.9775,-14016.0,-4608.0,4288.0
4.98,-14080.0,-4672.0,4160.0
4.9825,-14080.0,-4672.0,4224.0
4.985,-14144.0,-4608.0,4288.0
4.9875,-14144.0,-4672.0,4224.0
4.99,-14144.0,-4672.0,4224.0
4.9925,-14208.0,-4672.0,4288.0
4.995,-14208.0,-4672.0,4288.0
4.9975,-14336.0,-4608.0,4224.0
5.0,-14272.0,-4672.0,4160.0
5.0025,-14272.0,-4672.0,4224.0
5.005,-14336.0,-4672.0,4224.0
5.0075,-14336.0,-4608.0,4224.0
5.01,-14336.0,-4672.0,4160.0
5.0125,-14336.0,-4736.0,4096.0
5.015,-14336.0,-4672.0,4096.0
5.0175,-14400.0,-4608.0,4160.0
5.02,-14336.0,-4608.0,4096.0
5.0225,-14400.0,-4736.0,4096.0
5.025,-14400.0,-4672.0,4032.0
5.0275,-14400.0,-4736.0,4096.0
5.03,-14400.0,-4672.0,4096.0
5.0325,-14400.0,-4672.0,4096.0
5.035,-14400.0,-4608.0,4096.0
5.0375,-14464.0,-4608.0,4096.0
5.04,-14400.0,-4608.0,4032.0
5.0425,-14464.0,-4608.0,3968.0
5.045,-14528.0,-4608.0,3968.0
5.0475,-14464.0,-4608.0,4032.0
5.05,-14528.0,-4608.0,3904.0
5.0525,-14528.0,-4672.0,3968.0
5.055,-14592.0,-4736.0,4032.0
5.0575,-14592.0,-4672.0,4032.0
5.06,-14592.0,-4736.0,4032.0
5.0625,-14656.0,-4736.0,3968.0
5.065,-14720.0,-4800.0,3968.0
5.0675,-14656.0,-4800.0,3968.0
5.07,-14784.0,-4800.0,3968.0
5.0725,-14784.0,-4864.0,4032.0
5.075,-14848.0,-4928.0,4032.0
5.0775,-14784.0,-4992.0,3968.0
5.08,-14848.0,-5056.0,3968.0
5.0825,-14848.0,-5056.0,3904.0
5.085,-14784.0,-4992.0,3904.0
5.0875,-14848.0,-5056.0,3904.0
5.09,-14912.0,-5120.0,3968.0
5.0925,-14848.0,-5120.0,3968.0
5.095,-14848.0,-5056.0,3968.0
5.0975,-14912.0,-5120.0,3968.0
5.1,-14912.0,-5120.0,4032.0
5.1025,-14976.0,-5120.0,4032.0
5.105,-15040.0,-5120.0,4032.0
5.1075,-15040.0,-5120.0,4032.0
5.11,-15040.0,-5184.0,4096.0
5.1125,-15104.0,-5184.0,4096.0
5.115,-15104.0,-5120.0,4032.0
5.1175,-15168.0,-5184.0,4032.0
5.12,-15296.0,-5184.0,4032.0
5.1225,-15360.0,-5248.0,4096.0
5.125,-15360.0,-5248.0,4096.0
5.1275,-15424.0,-5184.0,4096.0
5.13,-15488.0,-5184.0,3968.0
5.1325,-15488.0,-5184.0,3968.0
5.135,-15424.0,-5184.0,3968.0
5.1375,-15488.0,-5248.0,3968.0
5.14,-15488.0,-5184.0,4032.0
5.1425,-15424.0,-5184.0,4032.0
5.145,-15424.0,-5184.0,4096.0
5.1475,-15424.0,-5248.0,4096.0
5.15,-15488.0,-5184.0,4160.0
5.1525,-15488.0,-5120.0,4160.0
5.155,-15424.0,-5056.0,4096.0
5.1575,-15360.0,-5184.0,4096.0
5.16,-15296.0,-5120.0,4032.0
5.1625,-15360.0,-5120.0,4096.0
5.165,-15296.0,-5184.0,4096.0
5.1675,-15232.0,-5120.0,4096.0
5.17,-15168.0,-5120.0,4032.0
5.1725,-15104.0,-5120.0,4032.0
5.175,-15040.0,-5120.0,3968.0
5.1775,-14976.0,-5120.0,3904.0
5.18,-14976.0,-5056.0,3904.0
5.1825,-14976.0,-5120.0,3968.0
5.185,-14976.0,-5056.0,3904.0
5.1875,-14912.0,-5056.0,3840.0
5.19,-14848.0,-4992.0,3904.0
5.1925,-14912.0,-4992.0,3904.0
5.195,-14848.0,-5056.0,3968.0
5.1975,-14848.0,-5056.0,3968.0
5.2,-14784.0,-4928.0,3904.0
5.2025,-14784.0,-4928.0,3904.0
5.205,-14656.0,-4928.0,3840.0
5.2075,-14592.0,-4864.0,3840.0
5.21,-14528.0,-4800.0,3904.0
5.2125,-14528.0,-4800.0,3904.0
5.215,-14528.0,-4800.0,3904.0
5.2175,-14464.0,-4800.0,3840.0
5.22,-14400.0,-4800.0,3840.0
5.2225,-14400.0,-4800.0,3776.0
5.225,-14336.0,-4800.0,3776.0
5.2275,-14336.0,-4800.0,3776.0
5.23,-14272.0,-4864.0,3776.0
5.2325,-14272.0,-4800.0,3712.0
5.235,-14144.0,-4736.0,3648.0
5.2375,-14144.0,-4800.0,3584.0
5.24,-14080.0,-4736.0,3648.0
5.2425,-14080.0,-4736.0,3648.0
5.245,-14080.0,-4800.0,3648.0
5.2475,-13952.0,-4736.0,3584.0
5.25,-13952.0,-4736.0,3520.0
5.2525,-13952.0,-4672.0,3520.0
5.255,-13888.0,-4608.0,3584.0
5.2575,-13952.0,-4608.0,3520.0
5.26,-13952.0,-4672.0,3456.0
5.2625,-13888.0,-4672.0,3392.0
5.265,-13888.0,-4672.0,3392.0
5.2675,-13952.0,-4800.0,3392.0
5.27,-13952.0,-4800.0,3328.0
5.2725,-13952.0,-4736.0,3264.0
5.275,-13888.0,-4736.0,3200.0
5.2775,-13952.0,-4672.0,3200.0
5.28,-13952.0,-4736.0,3200.0
5.2825,-13952.0,-4672.0,3200.0
5.285,-14080.0,-4672.0,3264.0
5.2875,-14080.0,-4736.0,3200.0
5.29,-14144.0,-4800.0,3264.0
5.2925,-14208.0,-4736.0,3200.0
5.295,-14208.0,-4800.0,3264.0
5.2975,-14208.0,-4800.0,3200.0
5.3,-14208.0,-4800.0,3200.0
5.3025,-14144.0,-4800.0,3200.0
5.305,-14208.0,-4736.0,3200.0
5.3075,-14208.0,-4736.0,3264.0
5.31,-14144.0,-4800.0,3136.0
5.3125,-14080.0,-4800.0,3136.0
5.315,-14080.0,-4672.0,3136.0
5.3175,-13952.0,-4672.0,3136.0
5.32,-13952.0,-4672.0,3136.0
5.3225,-13824.0,-4608.0,3136.0
5.325,-13760.0,-4544.0,3072.0
5.3275,-13696.0,-4544.0,3136.0
5.33,-13632.0,-4608.0,3136.0
5.3325,-13568.0,-4608.0,3072.0
5.335,-13440.0,-4608.0,3072.0
5.3375,-13376.0,-4608.0,3072.0
5.34,-13248.0,-4608.0,3072.0
5.3425,-13248.0,-4608.0,3072.0
5.345,-13120.0,-4672.0,3072.0
5.3475,-13120.0,-4608.0,3008.0
5.35,-13120.0,-4672.0,2944.0
5.3525,-13120.0,-4672.0,2880.0
5.355,-13120.0,-4672.0,2880.0
5.3575,-13056.0,-4672.0,2880.0
5.36,-12992.0,-4672.0,3008.0
5.3625,-12992.0,-4672.0,3008.0
5.365,-12992.0,-4736.0,2944.0
5.3675,-12992.0,-4672.0,2944.0
5.37,-12992.0,-4672.0,2880.0
5.3725,-13056.0,-4736.0,2880.0
5.375,-12992.0,-4736.0,3008.0
5.3775,-12992.0,-4736.0,3008.0
5.38,-12992.0,-4736.0,3008.0
5.3825,-12992.0,-4800.0,3008.0
5.385,-13056.0,-4800.0,3072.0
5.3875,-12992.0,-4864.0,3072.0
5.39,-13056.0,-4864.0,3008.0
5.3925,-13120.0,-4800.0,3008.0
5.395,-13120.0,-4800.0,3008.0
5.3975,-13056.0,-4800.0,3008.0
5.4,-13056.0,-4864.0,3008.0
5.4025,-13120.0,-4800.0,3072.0
5.405,-13184.0,-4864.0,3072.0
5.4075,-13184.0,-4864.0,3136.0
5.41,-13248.0,-4864.0,3200.0
5.4125,-13248.0,-4928.0,3200.0
5.415,-13248.0,-4928.0,3136.0
5.4175,-13248.0,-4992.0,3136.0
5.42,-13248.0,-4992.0,3136.0
5.4225,-13312.0,-4992.0,3072.0
5.425,-13376.0,-5056.0,3072.0
5.4275,-13376.0,-5120.0,3136.0
5.43,-13440.0,-5056.0,3072.0
5.4325,-13504.0,-5120.0,3072.0
5.435,-13568.0,-5184.0,3008.0
5.4375,-13504.0,-5248.0,2944.0
5.44,-13632.0,-5312.0,3072.0
5.4425,-13696.0,-5376.0,3008.0
5.445,-13696.0,-5376.0,3136.0
5.4475,-13696.0,-5440.0,3136.0
5.45,-13760.0,-5440.0,3200.0
5.4525,-13696.0,-5376.0,3264.0
5.455,-13760.0,-5440.0,3328.0
5.4575,-13696.0,-5376.0,3264.0
5.46,-13696.0,-5376.0,3328.0
5.4625,-13696.0,-5376.0,3392.0
5.465,-13696.0,-5376.0,3520.0
5.4675,-13696.0,-5440.0,3520.0
5.47,-13696.0,-5440.0,3584.0
5.4725,-13696.0,-5504.0,3712.0
5.475,-13696.0,-5504.0,3776.0
5.4775,-13760.0,-5568.0,3712.0
5.48,-13824.0,-5568.0,3712.0
5.4825,-13824.0,-5568.0,3712.0
5.485,-13888.0,-5632.0,3712.0
5.4875,-13952.0,-5632.0,3712.0
5.49,-14080.0,-5696.0,3712.0
5.4925,-14144.0,-5760.0,3712.0
5.495,-14272.0,-5760.0,3712.0
5.4975,-14336.0,-5824.0,3712.0
5.5,-14464.0,-5824.0,3712.0
5.5025,-14592.0,-5888.0,3776.0
5.505,-14784.0,-5952.0,3776.0
5.5075,-14912.0,-6016.0,3712.0
5.51,-14976.0,-6080.0,3776.0
5.5125,-15104.0,-6144.0,3840.0
5.515,-15168.0,-6272.0,3840.0
5.5175,-15296.0,-6272.0,3968.0
5.52,-15424.0,-6336.0,4032.0
5.5225,-15552.0,-6336.0,4096.0
5.525,-15552.0,-6336.0,4096.0
5.5275,-15616.0,-6336.0,4224.0
5.53,-15616.0,-6400.0,4160.0
5.5325,-15552.0,-6336.0,4288.0
5.535,-15680.0,-6400.0,4160.0
5.5375,-15680.0,-6336.0,4224.0
5.54,-15680.0,-6400.0,4288.0
5.5425,-15616.0,-6464.0,4288.0
5.545,-15616.0,-6464.0,4288.0
5.5475,-15616.0,-6464.0,4288.0
5.55,-15680.0,-6464.0,4288.0
5.5525,-15552.0,-6400.0,4288.0
5.555,-15488.0,-6400.0,4352.0
5.5575,-15424.0,-6464.0,4288.0
5.56,-15424.0,-6464.0,4416.0
5.5625,-15488.0,-6464.0,4416.0
5.565,-15424.0,-6464.0,4416.0
5.5675,-15360.0,-6464.0,4480.0
5.57,-15424.0,-6400.0,4480.0
5.5725,-15424.0,-6400.0,4480.0
5.575,-15360.0,-6464.0,4480.0
5.5775,-15360.0,-6464.0,4480.0
5.58,-15360.0,-6528.0,4544.0
5.5825,-15360.0,-6528.0,4544.0
5.585,-15424.0,-6528.0,4544.0
5.5875,-15424.0,-6528.0,4608.0
5.59,-15424.0,-6464.0,4608.0
5.5925,-15424.0,-6528.0,4608.0
5.595,-15424.0,-6528.0,4672.0
5.5975,-15424.0,-6464.0,4672.0
5.6,-15488.0,-6464.0,4864.0
5.6025,-15488.0,-6528.0,4864.0
5.605,-15488.0,-6400.0,4928.0
5.6075,-15488.0,-6400.0,4800.0
5.61,-15488.0,-6400.0,4864.0
5.6125,-15488.0,-6336.0,4864.0
5.615,-15488.0,-6336.0,4864.0
5.6175,-15552.0,-6336.0,4736.0
5.62,-15488.0,-6336.0,4672.0
5.6225,-15488.0,-6272.0,4736.0
5.625,-15552.0,-6272.0,4608.0
5.6275,-15616.0,-6272.0,4544.0
5.63,-15616.0,-6272.0,4480.0
5.6325,-15616.0,-6208.0,4544.0
5.635,-15552.0,-6272.0,4544.0
5.6375,-15552.0,-6208.0,4480.0
5.64,-15616.0,-6144.0,4544.0
5.6425,-15552.0,-6144.0,4480.0
5.645,-15488.0,-6144.0,4480.0
5.6475,-15552.0,-6144.0,4416.0
5.65,-15488.0,-6144.0,4480.0
5.6525,-15488.0,-6080.0,4480.0
5.655,-15488.0,-6016.0,4480.0
5.6575,-15424.0,-6016.0,4480.0
5.66,-15360.0,-6016.0,4480.0
5.6625,-15360.0,-5952.0,4544.0
5.665,-15360.0,-5952.0,4480.0
5.6675,-15424.0,-6016.0,4544.0
5.67,-15360.0,-6016.0,4544.0
5.6725,-15360.0,-6080.0,4480.0
5.675,-15424.0,-6080.0,4416.0
5.6775,-15424.0,-6016.0,4352.0
5.68,-15488.0,-5952.0,4352.0
5.6825,-15616.0,-5952.0,4352.0
5.685,-15616.0,-5952.0,4288.0
5.6875,-15744.0,-5952.0,4416.0
5.69,-15744.0,-6016.0,4352.0
5.6925,-15744.0,-6016.0,4352.0
5.695,-15808.0,-5952.0,4288.0
5.6975,-15808.0,-6016.0,4352.0
5.7,-15808.0,-6016.0,4288.0
5.7025,-15808.0,-6016.0,4224.0
5.705,-15744.0,-5952.0,4224.0
5.7075,-15744.0,-6016.0,4288.0
5.71,-15744.0,-5952.0,4224.0
5.7125,-15680.0,-5952.0,4160.0
5.715,-15616.0,-5952.0,4224.0
5.7175,-15616.0,-5888.0,4288.0
5.72,-15552.0,-5888.0,4352.0
5.7225,-15488.0,-5824.0,4416.0
5.725,-15488.0,-5824.0,4416.0
5.7275,-15488.0,-5760.0,4352.0
5.73,-15488.0,-5824.0,4416.0
5.7325,-15488.0,-5888.0,4352.0
5.735,-15552.0,-5952.0,4416.0
5.7375,-15552.0,-5952.0,4288.0
5.74,-15552.0,-5952.0,4288.0
5.7425,-15552.0,-6016.0,4288.0
5.745,-15616.0,-6080.0,4288.0
5.7475,-15616.0,-6080.0,4160.0
5.75,-15680.0,-6144.0,4096.0
5.7525,-15744.0,-6208.0,4096.0
5.755,-15744.0,-6272.0,4160.0
5.7575,-15808.0,-6272.0,4160.0
5.76,-15872.0,-6208.0,4160.0
5.7625,-15872.0,-6272.0,4224.0
5.765,-15808.0,-6208.0,4224.0
5.7675,-15808.0,-6208.0,4288.0
5.77,-15744.0,-6144.0,4352.0
5.7725,-15744.0,-6080.0,4480.0
5.775,-15680.0,-6080.0,4480.0
5.7775,-15616.0,-6080.0,4480.0
5.78,-15616.0,-6144.0,4544.0
5.7825,-15552.0,-6208.0,4480.0
5.785,-15552.0,-6208.0,4480.0
5.7875,-15488.0,-6208.0,4480.0
5.79,-15488.0,-6272.0,4544.0
5.7925,-15488.0,-6336.0,4608.0
5.795,-15488.0,-6400.0,4608.0
5.7975,-15552.0,-6464.0,4608.0
5.8,-15616.0,-6464.0,4672.0
5.8025,-15744.0,-6400.0,4672.0
5.805,-15872.0,-6528.0,4608.0
5.8075,-16000.0,-6592.0,4544.0
5.81,-16064.0,-6656.0,4544.0
5.8125,-16192.0,-6720.0,4480.0
5.815,-16256.0,-6848.0,4480.0
5.8175,-16320.0,-6848.0,4480.0
5.82,-16384.0,-6912.0,4544.0
5.8225,-16448.0,-6912.0,4544.0
5.825,-16448.0,-6976.0,4608.0
5.8275,-16512.0,-7040.0,4672.0
5.83,-16512.0,-7040.0,4736.0
5.8325,-16448.0,-7040.0,4864.0
5.835,-16448.0,-7040.0,4928.0
5.8375,-16384.0,-7168.0,5120.0
5.84,-16384.0,-7168.0,5248.0
5.8425,-16320.0,-7232.0,5312.0
5.845,-16256.0,-7232.0,5312.0
5.8475,-16192.0,-7232.0,5376.0
5.85,-16192.0,-7296.0,5376.0
5.8525,-16128.0,-7296.0,5312.0
5.855,-16064.0,-7360.0,5440.0
5.8575,-16064.0,-7424.0,5568.0
5.86,-16000.0,-7488.0,5568.0
5.8625,-16000.0,-7552.0,5568.0
5.865,-16000.0,-7616.0,5696.0
5.8675,-16000.0,-7552.0,5760.0
5.87,-15872.0,-7616.0,5760.0
5.8725,-15808.0,-7616.0,5696.0
5.875,-15744.0,-7616.0,5824.0
5.8775,-15744.0,-7680.0,6080.0
5.88,-15680.0,-7680.0,6144.0
5.8825,-15680.0,-7744.0,6208.0
5.885,-15616.0,-7744.0,6336.0
5.8875,-15680.0,-7808.0,6464.0
5.89,-15616.0,-7872.0,6528.0
5.8925,-15616.0,-7936.0,6592.0
5.895,-15616.0,-7936.0,6592.0
5.8975,-15616.0,-7936.0,6592.0
5.9,-15552.0,-7936.0,6592.0
5.9025,-15424.0,-7936.0,6528.0
5.905,-15424.0,-8000.0,6528.0
5.9075,-15360.0,-8000.0,6528.0
5.91,-15232.0,-8000.0,6528.0
5.9125,-15168.0,-7936.0,6528.0
5.915,-15104.0,-8000.0,6528.0
5.9175,-14976.0,-8000.0,6528.0
5.92,-14848.0,-8000.0,6528.0
5.9225,-14720.0,-7936.0,6464.0
5.925,-14592.0,-7936.0,6464.0
5.9275,-14528.0,-8000.0,6528.0
5.93,-14336.0,-8000.0,6528.0
5.9325,-14208.0,-8000.0,6528.0
5.935,-14080.0,-8064.0,6592.0
5.9375,-14016.0,-8064.0,6528.0
5.94,-13888.0,-8064.0,6656.0
5.9425,-13824.0,-8064.0,6720.0
5.945,-13760.0,-8128.0,6720.0
5.9475,-13760.0,-8128.0,6784.0
5.95,-13696.0,-8192.0,6848.0
5.9525,-13696.0,-8192.0,6912.0
5.955,-13632.0,-8128.0,6912.0
5.9575,-13568.0,-8128.0,6976.0
5.96,-13568.0,-8128.0,7040.0
5.9625,-13632.0,-8064.0,7040.0
5.965,-13696.0,-8064.0,7040.0
5.9675,-13760.0,-8128.0,6976.0
5.97,-13824.0,-8064.0,6912.0
5.9725,-13888.0,-8128.0,6848.0
5.975,-14016.0,-8192.0,6848.0
5.9775,-14016.0,-8256.0,6848.0
5.98,-14016.0,-8256.0,6784.0
5.9825,-14144.0,-8320.0,6784.0
5.985,-14208.0,-8320.0,6656.0
5.9875,-14208.0,-8384.0,6592.0
5.99,-14208.0,-8384.0,6720.0
5.9925,-14336.0,-8384.0,6592.0
5.995,-14336.0,-8448.0,6592.0
5.9975,-14336.0,-8448.0,6592.0
6.0,-14400.0,-8448.0,6720.0
6.0025,-14400.0,-8448.0,6720.0
6.005,-14464.0,-8448.0,6720.0
6.0075,-14400.0,-8448.0,6784.0
6.01,-14272.0,-8448.0,6720.0
6.0125,-14272.0,-8448.0,6848.0
6.015,-14208.0,-8448.0,6848.0
6.0175,-14144.0,-8384.0,6912.0
6.02,-14080.0,-8448.0,6912.0
6.0225,-14080.0,-8448.0,6912.0
6.025,-13952.0,-8512.0,6784.0
6.0275,-13888.0,-8512.0,6784.0
6.03,-13952.0,-8512.0,6784.0
6.0325,-13888.0,-8448.0,6848.0
6.035,-13952.0,-8512.0,6784.0
6.0375,-13888.0,-8512.0,6848.0
6.04,-13952.0,-8512.0,6912.0
6.0425,-13952.0,-8512.0,6848.0
6.045,-13952.0,-8512.0,6784.0
6.0475,-14016.0,-8512.0,6848.0
6.05,-14080.0,-8576.0,6784.0
6.0525,-14080.0,-8640.0,6784.0
6.055,-14080.0,-8576.0,6848.0
6.0575,-14080.0,-8640.0,6912.0
6.06,-14080.0,-8640.0,6912.0
6.0625,-14016.0,-8640.0,6976.0
6.065,-14016.0,-8704.0,7040.0
6.0675,-13952.0,-8640.0,7104.0
6.07,-13952.0,-8576.0,7104.0
6.0725,-13824.0,-8640.0,7168.0
6.075,-13824.0,-8576.0,7168.0
6.0775,-13760.0,-8576.0,7168.0
6.08,-13632.0,-8576.0,7232.0
6.0825,-13440.0,-8576.0,7232.0
6.085,-13440.0,-8576.0,7232.0
6.0875,-13312.0,-8576.0,7232.0
6.09,-13248.0,-8640.0,7232.0
6.0925,-13248.0,-8640.0,7296.0
6.095,-13056.0,-8640.0,7360.0
6.0975,-12928.0,-8576.0,7360.0
6.1,-12864.0,-8576.0,7232.0
6.1025,-12800.0,-8512.0,7168.0
6.105,-12608.0,-8512.0,7168.0
6.1075,-12544.0,-8576.0,7232.0
6.11,-12544.0,-8576.0,7296.0
6.1125,-12544.0,-8576.0,7232.0
6.115,-12480.0,-8512.0,7232.0
6.1175,-12416.0,-8512.0,7296.0
6.12,-12288.0,-8576.0,7232.0
6.1225,-12160.0,-8576.0,7232.0
6.125,-12096.0,-8576.0,7232.0
6.1275,-12032.0,-8576.0,7296.0
6.13,-11904.0,-8576.0,7296.0
6.1325,-11776.0,-8576.0,7232.0
6.135,-11648.0,-8576.0,7296.0
6.1375,-11520.0,-8576.0,7296.0
6.14,-11328.0,-8640.0,7296.0
6.1425,-11264.0,-8640.0,7360.0
6.145,-11200.0,-8640.0,7488.0
6.1475,-11072.0,-8640.0,7488.0
6.15,-10880.0,-8640.0,7424.0
6.1525,-10752.0,-8640.0,7232.0
6.155,-10688.0,-8640.0,7296.0
6.1575,-10560.0,-8640.0,7296.0
6.16,-10432.0,-8640.0,7232.0
6.1625,-10304.0,-8576.0,7232.0
6.165,-10240.0,-8576.0,7232.0
6.1675,-10112.0,-8512.0,7168.0
6.17,-9984.0,-8576.0,7232.0
6.1725,-9920.0,-8576.0,7296.0
6.175,-9920.0,-8576.0,7232.0
6.1775,-9792.0,-8576.0,7360.0
6.18,-9792.0,-8576.0,7424.0
6.1825,-9728.0,-8576.0,7424.0
6.185,-9664.0,-8512.0,7488.0
6.1875,-9664.0,-8512.0,7488.0
6.19,-9728.0,-8576.0,7424.0
6.1925,-9728.0,-8640.0,7552.0
6.195,-9792.0,-8640.0,7488.0
6.1975,-9792.0,-8704.0,7552.0
6.2,-9792.0,-8704.0,7424.0
6.2025,-9856.0,-8704.0,7488.0
6.205,-9856.0,-8704.0,7424.0
6.2075,-9856.0,-8768.0,7488.0
6.21,-9856.0,-8768.0,7488.0
6.2125,-9920.0,-8704.0,7424.0
6.215,-9984.0,-8768.0,7360.0
6.2175,-9984.0,-8832.0,7296.0
6.22,-10048.0,-8832.0,7360.0
6.2225,-10112.0,-8896.0,7296.0
6.225,-10112.0,-8960.0,7360.0
6.2275,-10112.0,-9024.0,7296.0
6.23,-10112.0,-9024.0,7296.0
6.2325,-10112.0,-9152.0,7296.0
6.235,-10112.0,-9216.0,7360.0
6.2375,-10112.0,-9216.0,7360.0
6.24,-9984.0,-9280.0,7296.0
6.2425,-9920.0,-9280.0,7360.0
6.245,-9856.0,-9344.0,7424.0
6.2475,-9792.0,-9344.0,7488.0
6.25,-9792.0,-9344.0,7424.0
6.2525,-9728.0,-9344.0,7488.0
6.255,-9728.0,-9344.0,7488.0
6.2575,-9664.0,-9344.0,7424.0
6.26,-9600.0,-9408.0,7424.0
6.2625,-9600.0,-9408.0,7424.0
6.265,-9600.0,-9472.0,7552.0
6.2675,-9536.0,-9472.0,7488.0
6.27,-9600.0,-9536.0,7488.0
6.2725,-9600.0,-9472.0,7424.0
6.275,-9600.0,-9472.0,7488.0
6.2775,-9664.0,-9536.0,7488.0
6.28,-9792.0,-9600.0,7424.0
6.2825,-9856.0,-9664.0,7488.0
6.285,-9920.0,-9728.0,7424.0
6.2875,-10048.0,-9728.0,7424.0
6.29,-10240.0,-9728.0,7488.0
6.2925,-10304.0,-9792.0,7424.0
6.295,-10432.0,-9856.0,7360.0
6.2975,-10560.0,-9920.0,7360.0
6.3,-10624.0,-9920.0,7360.0
6.3025,-10688.0,-9920.0,7360.0
6.305,-10816.0,-9920.0,7360.0
6.3075,-10944.0,-9920.0,7296.0
6.31,-11072.0,-9984.0,7296.0
6.3125,-11200.0,-10048.0,7232.0
6.315,-11264.0,-10048.0,7232.0
6.3175,-11392.0,-10048.0,7168.0
6.32,-11584.0,-10176.0,7232.0
6.3225,-11584.0,-10240.0,7168.0
6.325,-11648.0,-10240.0,7104.0
6.3275,-11648.0,-10368.0,7168.0
6.33,-11712.0,-10432.0,7168.0
6.3325,-11840.0,-10496.0,7168.0
6.335,-11840.0,-10496.0,7168.0
6.3375,-11776.0,-10496.0,7040.0
6.34,-11776.0,-10560.0,7040.0
6.3425,-11776.0,-10560.0,7104.0
6.345,-11776.0,-10624.0,6976.0
6.3475,-11776.0,-10624.0,6912.0
6.35,-11776.0,-10624.0,6912.0
6.3525,-11840.0,-10688.0,6912.0
6.355,-11904.0,-10688.0,6912.0
6.3575,-11840.0,-10688.0,6848.0
6.36,-11840.0,-10624.0,6784.0
6.3625,-11840.0,-10624.0,6784.0
6.365,-11776.0,-10560.0,6848.0
6.3675,-11712.0,-10560.0,6848.0
6.37,-11648.0,-10560.0,6848.0
6.3725,-11712.0,-10560.0,6976.0
6.375,-11648.0,-10496.0,6976.0
6.3775,-11648.0,-10432.0,6912.0
6.38,-11648.0,-10496.0,6912.0
6.3825,-11520.0,-10432.0,6848.0
6.385,-11520.0,-10368.0,6848.0
6.3875,-11456.0,-10304.0,6912.0
6.39,-11392.0,-10304.0,6912.0
6.3925,-11328.0,-10240.0,6976.0
6.395,-11328.0,-10176.0,6912.0
6.3975,-11328.0,-10112.0,6912.0
6.4,-11328.0,-10112.0,6976.0
6.4025,-11328.0,-10048.0,6976.0
6.405,-11328.0,-9984.0,7040.0
6.4075,-11328.0,-9984.0,6976.0
6.41,-11264.0,-9920.0,6912.0
6.4125,-11264.0,-9920.0,6912.0
6.415,-11328.0,-9920.0,6912.0
6.4175,-11328.0,-9920.0,6976.0
6.42,-11328.0,-9856.0,6912.0
6.4225,-11328.0,-9920.0,6912.0
6.425,-11328.0,-9856.0,6848.0
6.4275,-11328.0,-9856.0,6912.0
6.43,-11264.0,-9792.0,6848.0
6.4325,-11264.0,-9792.0,6912.0
6.435,-11328.0,-9792.0,6848.0
6.4375,-11328.0,-9792.0,6848.0
6.44,-11328.0,-9792.0,6784.0
6.4425,-11328.0,-9728.0,6720.0
6.445,-11200.0,-9792.0,6784.0
6.4475,-11200.0,-9728.0,6784.0
6.45,-11136.0,-9664.0,6848.0
6.4525,-11072.0,-9600.0,6848.0
6.455,-11072.0,-9600.0,6848.0
6.4575,-11008.0,-9536.0,6976.0
6.46,-11008.0,-9600.0,6976.0
6.4625,-10944.0,-9472.0,6976.0
6.465,-10880.0,-9472.0,7040.0
6.4675,-10880.0,-9472.0,6976.0
6.47,-10944.0,-9472.0,7040.0
6.4725,-10944.0,-9536.0,7040.0
6.475,-10944.0,-9472.0,6976.0
6.4775,-11008.0,-9536.0,6976.0
6.48,-11008.0,-9472.0,6976.0
6.4825,-10944.0,-9472.0,6976.0
6.485,-10944.0,-9472.0,6912.0
6.4875,-10880.0,-9408.0,6976.0
6.49,-10880.0,-9408.0,7040.0
6.4925,-10880.0,-9408.0,7040.0
6.495,-10944.0,-9408.0,7040.0
6.4975,-10880.0,-9344.0,7104.0
6.5,-10880.0,-9344.0,7104.0
6.5025,-10880.0,-9280.0,7232.0
6.505,-10880.0,-9280.0,7232.0
6.5075,-10880.0,-9344.0,7296.0
6.51,-10880.0,-9344.0,7232.0
6.5125,-10880.0,-9344.0,7232.0
6.515,-10816.0,-9216.0,7296.0
6.5175,-10880.0,-9280.0,7296.0
6.52,-10880.0,-9344.0,7360.0
6.5225,-10944.0,-9344.0,7424.0
6.525,-10944.0,-9280.0,7424.0
6.5275,-11008.0,-9280.0,7488.0
6.53,-11072.0,-9216.0,7424.0
6.5325,-11072.0,-9216.0,7424.0
6.535,-11136.0,-9216.0,7360.0
6.5375,-11136.0,-9216.0,7360.0
6.54,-11200.0,-9216.0,7360.0
6.5425,-11200.0,-9216.0,7360.0
6.545,-11136.0,-9280.0,7296.0
6.5475,-11200.0,-9280.0,7296.0
6.55,-11200.0,-9280.0,7296.0
6.5525,-11264.0,-9280.0,7296.0
6.555,-11200.0,-9280.0,7232.0
6.5575,-11328.0,-9280.0,7232.0
6.56,-11264.0,-9280.0,7232.0
6.5625,-11264.0,-9280.0,7168.0
6.565,-11264.0,-9344.0,7104.0
6.5675,-11200.0,-9344.0,7296.0
6.57,-11200.0,-9408.0,7168.0
6.5725,-11264.0,-9408.0,7232.0
6.575,-11200.0,-9472.0,7232.0
6.5775,-11200.0,-9408.0,7360.0
6.58,-11136.0,-9408.0,7296.0
6.5825,-11072.0,-9472.0,7360.0
6.585,-11072.0,-9472.0,7296.0
6.5875,-11072.0,-9472.0,7296.0
6.59,-11008.0,-9472.0,7360.0
6.5925,-11008.0,-9472.0,7488.0
6.595,-11008.0,-9408.0,7488.0
6.5975,-10944.0,-9344.0,7488.0
6.6,-10816.0,-9280.0,7488.0
6.6025,-10880.0,-9344.0,7552.0
6.605,-10816.0,-9280.0,7488.0
6.6075,-10752.0,-9408.0,7552.0
6.61,-10752.0,-9408.0,7552.0
6.6125,-10816.0,-9344.0,7552.0
6.615,-10752.0,-9280.0,7616.0
6.6175,-10816.0,-9344.0,7552.0
6.62,-10816.0,-9344.0,7488.0
6.6225,-10944.0,-9344.0,7424.0
6.625,-10944.0,-9344.0,7424.0
6.6275,-10944.0,-9280.0,7552.0
6.63,-11072.0,-9344.0,7424.0
6.6325,-11072.0,-9344.0,7424.0
6.635,-11136.0,-9344.0,7424.0
6.6375,-11200.0,-9344.0,7424.0
6.64,-11264.0,-9280.0,7488.0
6.6425,-11328.0,-9280.0,7360.0
6.645,-11392.0,-9280.0,7488.0
6.6475,-11392.0,-9280.0,7488.0
6.65,-11456.0,-9280.0,7424.0
6.6525,-11456.0,-9280.0,7424.0
6.655,-11456.0,-9408.0,7360.0
6.6575,-11520.0,-9472.0,7360.0
6.66,-11456.0,-9472.0,7360.0
6.6625,-11456.0,-9472.0,7424.0
6.665,-11392.0,-9536.0,7360.0
6.6675,-11456.0,-9472.0,7360.0
6.67,-11456.0,-9536.0,7360.0
6.6725,-11456.0,-9536.0,7296.0
6.675,-11456.0,-9536.0,7424.0
6.6775,-11456.0,-9600.0,7360.0
6.68,-11520.0,-9664.0,7424.0
6.6825,-11520.0,-9728.0,7488.0
6.685,-11584.0,-9664.0,7552.0
6.6875,-11520.0,-9600.0,7552.0
6.69,-11456.0,-9600.0,7616.0
6.6925,-11456.0,-9664.0,7616.0
6.695,-11456.0,-9728.0,7616.0
6.6975,-11392.0,-9728.0,7488.0
6.7,-11392.0,-9792.0,7424.0
6.7025,-11392.0,-9856.0,7424.0
6.705,-11392.0,-9792.0,7424.0
6.7075,-11392.0,-9728.0,7488.0
6.71,-11264.0,-9728.0,7424.0
6.7125,-11136.0,-9728.0,7488.0
6.715,-11136.0,-9664.0,7488.0
6.7175,-11072.0,-9664.0,7360.0
6.72,-11008.0,-9664.0,7552.0
6.7225,-11008.0,-9664.0,7424.0
6.725,-11008.0,-9664.0,7424.0
6.7275,-11008.0,-9664.0,7424.0
6.73,-11072.0,-9728.0,7424.0
6.7325,-11072.0,-9728.0,7424.0
6.735,-11200.0,-9728.0,7424.0
6.7375,-11328.0,-9792.0,7360.0
6.74,-11392.0,-9792.0,7296.0
6.7425,-11456.0,-9728.0,7296.0
6.745,-11520.0,-9792.0,7296.0
6.7475,-11584.0,-9728.0,7360.0
6.75,-11712.0,-9664.0,7360.0
6.7525,-11712.0,-9664.0,7360.0
6.755,-11840.0,-9664.0,7360.0
6.7575,-11904.0,-9664.0,7296.0
6.76,-11968.0,-9664.0,7360.0
6.7625,-12032.0,-9600.0,7360.0
6.765,-12032.0,-9600.0,7296.0
6.7675,-12160.0,-9664.0,7360.0
6.77,-12160.0,-9728.0,7360.0
6.7725,-12160.0,-9664.0,7296.0
6.775,-12224.0,-9728.0,7296.0
6.7775,-12288.0,-9792.0,7232.0
6.78,-12352.0,-9792.0,7232.0
6.7825,-12288.0,-9792.0,7232.0
6.785,-12352.0,-9792.0,7168.0
6.7875,-12288.0,-9728.0,7104.0
6.79,-12224.0,-9792.0,7104.0
6.7925,-12160.0,-9792.0,7232.0
6.795,-12160.0,-9792.0,7232.0
6.7975,-12032.0,-9856.0,7296.0
6.8,-12032.0,-9856.0,7296.0
6.8025,-12032.0,-9856.0,7424.0
6.805,-12032.0,-9920.0,7232.0
6.8075,-11968.0,-9920.0,7360.0
6.81,-11968.0,-9920.0,7296.0
6.8125,-12032.0,-9920.0,7360.0
6.815,-11968.0,-9920.0,7424.0
6.8175,-11904.0,-9920.0,7424.0
6.82,-11904.0,-9920.0,7360.0
6.8225,-11904.0,-9856.0,7360.0
6.825,-11840.0,-9792.0,7424.0
6.8275,-11776.0,-9664.0,7424.0
6.83,-11712.0,-9600.0,7488.0
6.8325,-11648.0,-9600.0,7424.0
6.835,-11648.0,-9536.0,7424.0
6.8375,-11584.0,-9600.0,7424.0
6.84,-11520.0,-9600.0,7424.0
6.8425,-11456.0,-9536.0,7424.0
6.845,-11456.0,-9536.0,7488.0
6.8475,-11392.0,-9472.0,7424.0
6.85,-11200.0,-9472.0,7424.0
6.8525,-11136.0,-9472.0,7360.0
6.855,-11072.0,-9408.0,7424.0
6.8575,-11008.0,-9408.0,7424.0
6.86,-10880.0,-9280.0,7488.0
6.8625,-10816.0,-9280.0,7488.0
6.865,-10752.0,-9280.0,7424.0
6.8675,-10624.0,-9280.0,7360.0
6.87,-10496.0,-9280.0,7488.0
6.8725,-10496.0,-9216.0,7424.0
6.875,-10432.0,-9280.0,7488.0
6.8775,-10368.0,-9280.0,7552.0
6.88,-10304.0,-9216.0,7680.0
6.8825,-10304.0,-9280.0,7616.0
6.885,-10240.0,-9216.0,7616.0
6.8875,-10176.0,-9216.0,7680.0
6.89,-10176.0,-9216.0,7744.0
6.8925,-10176.0,-9216.0,7744.0
6.895,-10112.0,-9216.0,7808.0
6.8975,-10112.0,-9216.0,7680.0
6.9,-10048.0,-9280.0,7680.0
6.9025,-10112.0,-9216.0,7616.0
6.905,-10112.0,-9280.0,7680.0
6.9075,-10176.0,-9280.0,7616.0
6.91,-10176.0,-9344.0,7552.0
6.9125,-10240.0,-9344.0,7424.0
6.915,-10368.0,-9344.0,7296.0
6.9175,-10496.0,-9344.0,7232.0
6.92,-10688.0,-9472.0,7104.0
6.9225,-10880.0,-9536.0,7040.0
6.925,-11136.0,-9536.0,6912.0
6.9275,-11264.0,-9664.0,6848.0
6.93,-11392.0,-9728.0,6720.0
6.9325,-11584.0,-9728.0,6656.0
6.935,-11776.0,-9792.0,6528.0
6.9375,-11968.0,-9856.0,6528.0
6.94,-12096.0,-9920.0,6464.0
6.9425,-12224.0,-9920.0,6400.0
6.945,-12288.0,-9920.0,6336.0
6.9475,-12416.0,-9920.0,6400.0
6.95,-12480.0,-9920.0,6400.0
6.9525,-12480.0,-9856.0,6400.0
6.955,-12352.0,-9856.0,6336.0
6.9575,-12416.0,-9856.0,6336.0
6.96,-12288.0,-9920.0,6528.0
6.9625,-12160.0,-9920.0,6528.0
6.965,-12032.0,-9984.0,6464.0
6.9675,-12032.0,-9920.0,6400.0
6.97,-11904.0,-9920.0,6528.0
6.9725,-11776.0,-9856.0,6528.0
6.975,-11648.0,-9792.0,6528.0
6.9775,-11584.0,-9728.0,6464.0
6.98,-11584.0,-9664.0,6592.0
6.9825,-11456.0,-9600.0,6592.0
6.985,-11392.0,-9536.0,6528.0
6.9875,-11392.0,-9472.0,6592.0
6.99,-11392.0,-9408.0,6528.0
6.9925,-11456.0,-9408.0,6528.0
6.995,-11520.0,-9408.0,6592.0
6.9975,-11584.0,-9408.0,6528.0
7.0,-11648.0,-9408.0,6592.0
7.0025,-11648.0,-9472.0,6656.0
7.005,-11712.0,-9536.0,6656.0
7.0075,-11776.0,-9536.0,6656.0
7.01,-11904.0,-9536.0,6720.0
7.0125,-12032.0,-9600.0,6720.0
7.015,-12032.0,-9600.0,6720.0
7.0175,-12160.0,-9600.0,6720.0
7.02,-12160.0,-9600.0,6720.0
7.0225,-12288.0,-9664.0,6656.0
7.025,-12352.0,-9728.0,6592.0
7.0275,-12416.0,-9728.0,6528.0
7.03,-12416.0,-9664.0,6464.0
7.0325,-12544.0,-9664.0,6400.0
7.035,-12544.0,-9728.0,6336.0
7.0375,-12544.0,-9728.0,6272.0
7.04,-12544.0,-9792.0,6336.0
7.0425,-12480.0,-9792.0,6272.0
7.045,-12480.0,-9792.0,6208.0
7.0475,-12352.0,-9920.0,6272.0
7.05,-12288.0,-9856.0,6272.0
7.0525,-12288.0,-9856.0,6144.0
7.055,-12224.0,-9920.0,6144.0
7.0575,-12160.0,-9984.0,6016.0
7.06,-12096.0,-9856.0,6144.0
7.0625,-12032.0,-9920.0,6144.0
7.065,-11904.0,-9920.0,6080.0
7.0675,-11776.0,-9856.0,6080.0
7.07,-11648.0,-9728.0,6080.0
7.0725,-11456.0,-9664.0,6144.0
7.075,-11392.0,-9664.0,6144.0
7.0775,-11264.0,-9536.0,6208.0
7.08,-11200.0,-9536.0,6208.0
7.0825,-11072.0,-9472.0,6208.0
7.085,-10944.0,-9408.0,6208.0
7.0875,-10880.0,-9344.0,6272.0
7.09,-10816.0,-9280.0,6336.0
7.0925,-10752.0,-9280.0,6400.0
7.095,-10624.0,-9152.0,6464.0
7.0975,-10688.0,-9024.0,6464.0
7.1,-10624.0,-8960.0,6528.0
7.1025,-10624.0,-8896.0,6528.0
7.105,-10624.0,-8832.0,6592.0
7.1075,-10624.0,-8768.0,6656.0
7.11,-10752.0,-8768.0,6656.0
7.1125,-10752.0,-8768.0,6720.0
7.115,-10880.0,-8704.0,6656.0
7.1175,-10944.0,-8704.0,6656.0
7.12,-11200.0,-8768.0,6528.0
7.1225,-11264.0,-8768.0,6464.0
7.125,-11392.0,-8896.0,6336.0
7.1275,-11456.0,-8896.0,6336.0
7.13,-11648.0,-8960.0,6208.0
7.1325,-11776.0,-9024.0,6144.0
7.135,-11840.0,-9152.0,6016.0
7.1375,-11968.0,-9152.0,6016.0
7.14,-12096.0,-9216.0,6016.0
7.1425,-12160.0,-9280.0,5888.0
7.145,-12224.0,-9280.0,5760.0
7.1475,-12288.0,-9280.0,5760.0
7.15,-12352.0,-9344.0,5760.0
7.1525,-12352.0,-9472.0,5824.0
7.155,-12416.0,-9536.0,5824.0
7.1575,-12480.0,-9536.0,5824.0
7.16,-12480.0,-9600.0,5888.0
7.1625,-12544.0,-9600.0,6016.0
7.165,-12480.0,-9664.0,6016.0
7.1675,-12480.0,-9792.0,6016.0
7.17,-12480.0,-9728.0,6080.0
7.1725,-12480.0,-9728.0,6080.0
7.175,-12480.0,-9728.0,6144.0
7.1775,-12480.0,-9728.0,6144.0
7.18,-12480.0,-9728.0,6208.0
7.1825,-12480.0,-9664.0,6144.0
7.185,-12416.0,-9664.0,6144.0
7.1875,-12416.0,-9600.0,6080.0
7.19,-12480.0,-9664.0,6016.0
7.1925,-12480.0,-9600.0,6080.0
7.195,-12480.0,-9600.0,6080.0
7.1975,-12480.0,-9536.0,5952.0
7.2,-12544.0,-9600.0,6016.0
7.2025,-12608.0,-9536.0,5952.0
7.205,-12608.0,-9600.0,6016.0
7.2075,-12608.0,-9600.0,6016.0
7.21,-12608.0,-9536.0,6016.0
7.2125,-12672.0,-9600.0,6016.0
7.215,-12672.0,-9600.0,6016.0
7.2175,-12672.0,-9664.0,6080.0
7.22,-12672.0,-9664.0,6144.0
7.2225,-12672.0,-9728.0,6144.0
7.225,-12608.0,-9792.0,6144.0
7.2275,-12608.0,-9792.0,6208.0
7.23,-12608.0,-9856.0,6208.0
7.2325,-12608.0,-9856.0,6208.0
7.235,-12608.0,-9856.0,6144.0
7.2375,-12544.0,-9920.0,6144.0
7.24,-12544.0,-9920.0,6080.0
7.2425,-12480.0,-9920.0,6144.0
7.245,-12544.0,-9920.0,6144.0
7.2475,-12416.0,-9920.0,6080.0
7.25,-12352.0,-9920.0,6144.0
7.2525,-12288.0,-9920.0,6016.0
7.255,-12224.0,-9920.0,6016.0
7.2575,-12224.0,-9856.0,6016.0
7.26,-12160.0,-9856.0,5952.0
7.2625,-12160.0,-9920.0,6016.0
7.265,-12096.0,-9984.0,5952.0
7.2675,-12096.0,-10048.0,5952.0
7.27,-12032.0,-9984.0,6080.0
7.2725,-12032.0,-10048.0,6080.0
7.275,-11968.0,-10112.0,6080.0
7.2775,-11968.0,-10048.0,6080.0
7.28,-11968.0,-9984.0,6272.0
7.2825,-11904.0,-9984.0,6336.0
7.285,-11840.0,-9984.0,6336.0
7.2875,-11840.0,-9984.0,6400.0
7.29,-11840.0,-9856.0,6336.0
7.2925,-11840.0,-9856.0,6336.0
7.295,-11840.0,-9856.0,6272.0
7.2975,-11904.0,-9920.0,6400.0
7.3,-11904.0,-9856.0,6336.0
7.3025,-11968.0,-9856.0,6208.0
7.305,-11968.0,-9856.0,6208.0
7.3075,-11968.0,-9920.0,6208.0
7.31,-11968.0,-9920.0,6144.0
7.3125,-11904.0,-9920.0,6144.0
7.315,-11904.0,-9856.0,6144.0
7.3175,-12032.0,-9792.0,6144.0
7.32,-11968.0,-9792.0,6144.0
7.3225,-11968.0,-9792.0,6144.0
7.325,-11968.0,-9856.0,6208.0
7.3275,-11968.0,-9920.0,6208.0
7.33,-11968.0,-9856.0,6272.0
7.3325,-11968.0,-9920.0,6208.0
7.335,-11904.0,-9792.0,6208.0
7.3375,-11840.0,-9856.0,6208.0
7.34,-11904.0,-9792.0,6208.0
7.3425,-11776.0,-9856.0,6208.0
7.345,-11712.0,-9792.0,6272.0
7.3475,-11712.0,-9792.0,6272.0
7.35,-11648.0,-9792.0,6208.0
7.3525,-11584.0,-9792.0,6208.0
7.355,-11584.0,-9728.0,6272.0
7.3575,-11584.0,-9728.0,6336.0
7.36,-11520.0,-9728.0,6336.0
7.3625,-11456.0,-9664.0,6336.0
7.365,-11520.0,-9600.0,6208.0
7.3675,-11520.0,-9600.0,6208.0
7.37,-11456.0,-9600.0,6208.0
7.3725,-11520.0,-9600.0,6208.0
7.375,-11520.0,-9600.0,6272.0
7.3775,-11584.0,-9536.0,6272.0
7.38,-11648.0,-9536.0,6080.0
7.3825,-11712.0,-9600.0,6208.0
7.385,-11776.0,-9536.0,6144.0
7.3875,-11840.0,-9536.0,6080.0
7.39,-11840.0,-9536.0,6080.0
7.3925,-11840.0,-9536.0,6080.0
7.395,-11904.0,-9536.0,6016.0
7.3975,-11968.0,-9536.0,6080.0
7.4,-12032.0,-9472.0,6144.0
7.4025,-12032.0,-9536.0,6080.0
7.405,-12032.0,-9536.0,6080.0
7.4075,-12096.0,-9472.0,6016.0
7.41,-12160.0,-9472.0,6080.0
7.4125,-12160.0,-9408.0,6144.0
7.415,-12224.0,-9472.0,6144.0
7.4175,-12224.0,-9472.0,6144.0
7.42,-12224.0,-9472.0,6144.0
7.4225,-12288.0,-9472.0,6144.0
7.425,-12224.0,-9472.0,6144.0
7.4275,-12224.0,-9472.0,6080.0
7.43,-12160.0,-9472.0,6080.0
7.4325,-12160.0,-9472.0,6016.0
7.435,-12224.0,-9408.0,6080.0
7.4375,-12224.0,-9408.0,6016.0
7.44,-12224.0,-9344.0,5888.0
7.4425,-12160.0,-9344.0,5952.0
7.445,-12096.0,-9280.0,6016.0
7.4475,-12096.0,-9280.0,6016.0
7.45,-12096.0,-9216.0,6016.0
7.4525,-12160.0,-9216.0,5952.0
7.455,-12096.0,-9216.0,5952.0
7.4575,-12032.0,-9280.0,6080.0
7.46,-12096.0,-9280.0,6016.0
7.4625,-12096.0,-9280.0,6016.0
7.465,-12032.0,-9216.0,6016.0
7.4675,-12096.0,-9216.0,6080.0
7.47,-12032.0,-9216.0,6144.0
7.4725,-11968.0,-9216.0,6144.0
7.475,-11968.0,-9216.0,6080.0
7.4775,-11904.0,-9216.0,6080.0
7.48,-11840.0,-9152.0,6080.0
7.4825,-11904.0,-9152.0,6016.0
7.485,-11840.0,-9152.0,6016.0
7.4875,-11840.0,-9152.0,6016.0
7.49,-11904.0,-9152.0,6080.0
7.4925,-11840.0,-9152.0,6016.0
7.495,-11776.0,-9152.0,6016.0
7.4975,-11712.0,-9024.0,6080.0
7.5,-11776.0,-9024.0,6080.0
7.5025,-11712.0,-9024.0,6080.0
7.505,-11712.0,-9024.0,6016.0
7.5075,-11648.0,-9088.0,6016.0
7.51,-11584.0,-9024.0,6016.0
7.5125,-11648.0,-9024.0,6080.0
7.515,-11648.0,-9024.0,6080.0
7.5175,-11584.0,-9024.0,6080.0
7.52,-11584.0,-8960.0,6016.0
7.5225,-11584.0,-8960.0,6016.0
7.525,-11520.0,-9024.0,5952.0
7.5275,-11456.0,-9024.0,5952.0
7.53,-11456.0,-9024.0,6016.0
7.5325,-11392.0,-9024.0,6016.0
7.535,-11392.0,-9024.0,6016.0
7.5375,-11392.0,-9088.0,5952.0
7.54,-11392.0,-9088.0,5952.0
7.5425,-11456.0,-9088.0,5824.0
7.545,-11456.0,-9088.0,5888.0
7.5475,-11520.0,-9152.0,5888.0
7.55,-11520.0,-9088.0,5760.0
7.5525,-11584.0,-9088.0,5824.0
7.555,-11584.0,-9152.0,5760.0
7.5575,-11584.0,-9216.0,5760.0
7.56,-11648.0,-9152.0,5760.0
7.5625,-11648.0,-9216.0,5696.0
7.565,-11712.0,-9152.0,5696.0
7.5675,-11776.0,-9152.0,5760.0
7.57,-11776.0,-9216.0,5760.0
7.5725,-11840.0,-9216.0,5760.0
7.575,-11840.0,-9216.0,5696.0
7.5775,-11904.0,-9152.0,5824.0
7.58,-11968.0,-9216.0,5888.0
7.5825,-12032.0,-9216.0,5824.0
7.585,-11968.0,-9216.0,5760.0
7.5875,-12096.0,-9280.0,5760.0
7.59,-12096.0,-9344.0,5824.0
7.5925,-12160.0,-9344.0,5824.0
7.595,-12160.0,-9344.0,5760.0
7.5975,-12160.0,-9344.0,5760.0
7.6,-12160.0,-9344.0,5824.0
7.6025,-12160.0,-9344.0,5824.0
7.605,-12224.0,-9344.0,5952.0
7.6075,-12224.0,-9344.0,5952.0
7.61,-12160.0,-9344.0,5888.0
7.6125,-12160.0,-9344.0,5888.0
7.615,-12288.0,-9472.0,5888.0
7.6175,-12288.0,-9408.0,5888.0
7.62,-12288.0,-9472.0,5824.0
7.6225,-12224.0,-9408.0,5824.0
7.625,-12224.0,-9408.0,5888.0
7.6275,-12224.0,-9472.0,5888.0
7.63,-12224.0,-9472.0,5824.0
7.6325,-12224.0,-9472.0,5824.0
7.635,-12224.0,-9408.0,5888.0
7.6375,-12224.0,-9472.0,5824.0
7.64,-12160.0,-9408.0,5824.0
7.6425,-12096.0,-9472.0,5888.0
7.645,-12160.0,-9472.0,5952.0
7.6475,-12096.0,-9472.0,5824.0
7.65,-12096.0,-9472.0,5888.0
7.6525,-12032.0,-9408.0,5824.0
7.655,-11968.0,-9472.0,5888.0
7.6575,-12032.0,-9408.0,5888.0
7.66,-11968.0,-9472.0,5888.0
7.6625,-12032.0,-9472.0,5888.0
7.665,-11968.0,-9472.0,5888.0
7.6675,-11968.0,-9536.0,5888.0
7.67,-11904.0,-9536.0,5824.0
7.6725,-11840.0,-9536.0,5824.0
7.675,-11776.0,-9472.0,5824.0
7.6775,-11712.0,-9472.0,5952.0
7.68,-11584.0,-9472.0,6080.0
7.6825,-11584.0,-9472.0,6016.0
7.685,-11456.0,-9472.0,5952.0
7.6875,-11392.0,-9472.0,6016.0
7.69,-11392.0,-9536.0,6080.0
7.6925,-11328.0,-9536.0,6080.0
7.695,-11200.0,-9536.0,6080.0
7.6975,-11200.0,-9472.0,6080.0
7.7,-11072.0,-9536.0,6080.0
7.7025,-11008.0,-9472.0,6144.0
7.705,-10944.0,-9472.0,6336.0
7.7075,-10880.0,-9472.0,6336.0
7.71,-10752.0,-9472.0,6336.0
7.7125,-10688.0,-9472.0,6464.0
7.715,-10560.0,-9408.0,6464.0
7.7175,-10432.0,-9408.0,6464.0
7.72,-10368.0,-9344.0,6464.0
7.7225,-10368.0,-9344.0,6464.0
7.725,-10240.0,-9344.0,6464.0
7.7275,-10240.0,-9344.0,6400.0
7.73,-10112.0,-9344.0,6400.0
7.7325,-10112.0,-9344.0,6464.0
7.735,-10048.0,-9344.0,6400.0
7.7375,-10112.0,-9344.0,6464.0
7.74,-10048.0,-9344.0,6464.0
7.7425,-9984.0,-9280.0,6464.0
7.745,-10048.0,-9280.0,6464.0
7.7475,-10048.0,-9280.0,6592.0
7.75,-9984.0,-9280.0,6592.0
7.7525,-9984.0,-9344.0,6528.0
7.755,-9984.0,-9280.0,6528.0
7.7575,-10048.0,-9344.0,6464.0
7.76,-10048.0,-9408.0,6464.0
7.7625,-10112.0,-9408.0,6464.0
7.765,-10048.0,-9408.0,6336.0
7.7675,-10048.0,-9344.0,6464.0
7.77,-10112.0,-9472.0,6336.0
7.7725,-10176.0,-9472.0,6336.0
7.775,-10240.0,-9408.0,6272.0
7.7775,-10304.0,-9472.0,6272.0
7.78,-10304.0,-9536.0,6272.0
7.7825,-10432.0,-9408.0,6272.0
7.785,-10496.0,-9472.0,6208.0
7.7875,-10624.0,-9408.0,6144.0
7.79,-10688.0,-9472.0,6080.0
7.7925,-10752.0,-9472.0,6080.0
7.795,-10944.0,-9536.0,6016.0
7.7975,-11072.0,-9536.0,6016.0
7.8,-11264.0,-9664.0,6080.0
7.8025,-11392.0,-9664.0,5952.0
7.805,-11520.0,-9728.0,5952.0
7.8075,-11776.0,-9728.0,6016.0
7.81,-11968.0,-9792.0,5952.0
7.8125,-12160.0,-9856.0,5952.0
7.815,-12288.0,-9792.0,5888.0
7.8175,-12480.0,-9856.0,5888.0
7.82,-12608.0,-9856.0,5824.0
7.8225,-12736.0,-9856.0,5824.0
7.825,-12864.0,-9856.0,5824.0
7.8275,-12992.0,-9792.0,5760.0
7.83,-13184.0,-9856.0,5760.0
7.8325,-13248.0,-9920.0,5760.0
7.835,-13312.0,-9920.0,5760.0
7.8375,-13440.0,-9920.0,5760.0
7.84,-13632.0,-9920.0,5632.0
7.8425,-13632.0,-9920.0,5568.0
7.845,-13632.0,-9984.0,5632.0
7.8475,-13632.0,-9984.0,5632.0
7.85,-13632.0,-9984.0,5632.0
7.8525,-13568.0,-9920.0,5696.0
7.855,-13568.0,-9856.0,5696.0
7.8575,-13568.0,-9792.0,5632.0
7.86,-13504.0,-9728.0,5632.0
7.8625,-13568.0,-9792.0,5632.0
7.865,-13504.0,-9792.0,5696.0
7.8675,-13504.0,-9792.0,5696.0
7.87,-13504.0,-9792.0,5632.0
7.8725,-13568.0,-9792.0,5632.0
7.875,-13568.0,-9792.0,5632.0
7.8775,-13568.0,-9856.0,5568.0
7.88,-13568.0,-9856.0,5632.0
7.8825,-13568.0,-9856.0,5632.0
7.885,-13632.0,-9792.0,5632.0
7.8875,-13632.0,-9792.0,5632.0
7.89,-13632.0,-9792.0,5632.0
7.8925,-13632.0,-9856.0,5632.0
7.895,-13568.0,-9792.0,5760.0
7.8975,-13504.0,-9792.0,5760.0
7.9,-13504.0,-9792.0,5760.0
7.9025,-13504.0,-9792.0,5824.0
7.905,-13440.0,-9792.0,5888.0
7.9075,-13376.0,-9728.0,5760.0
7.91,-13312.0,-9728.0,5824.0
7.9125,-13376.0,-9728.0,5824.0
7.915,-13312.0,-9728.0,5824.0
7.9175,-13248.0,-9728.0,5824.0
7.92,-13248.0,-9664.0,5760.0
7.9225,-13248.0,-9728.0,5696.0
7.925,-13120.0,-9600.0,5632.0
7.9275,-13120.0,-9664.0,5696.0
7.93,-13120.0,-9728.0,5632.0
7.9325,-13120.0,-9664.0,5632.0
7.935,-13056.0,-9664.0,5696.0
7.9375,-12992.0,-9664.0,5696.0
7.94,-12992.0,-9664.0,5760.0
7.9425,-12928.0,-9600.0,5888.0
7.945,-12864.0,-9536.0,5824.0
7.9475,-12864.0,-9472.0,5952.0
7.95,-12800.0,-9472.0,6016.0
7.9525,-12736.0,-9408.0,6080.0
7.955,-12736.0,-9472.0,6144.0
7.9575,-12608.0,-9408.0,6208.0
7.96,-12544.0,-9408.0,6208.0
7.9625,-12544.0,-9472.0,6208.0
7.965,-12416.0,-9536.0,6144.0
7.9675,-12416.0,-9408.0,6208.0
7.97,-12352.0,-9408.0,6208.0
7.9725,-12288.0,-9408.0,6208.0
7.975,-12288.0,-9472.0,6208.0
7.9775,-12224.0,-9408.0,6272.0
7.98,-12224.0,-9344.0,6272.0
7.9825,-12224.0,-9408.0,6208.0
7.985,-12224.0,-9408.0,6272.0
7.9875,-12160.0,-9472.0,6272.0
7.99,-12160.0,-9344.0,6208.0
7.9925,-12160.0,-9280.0,6208.0
7.995,-12096.0,-9280.0,6272.0
7.9975,-12160.0,-9344.0,6336.0
8.0,-12160.0,-9344.0,6336.0
8.0025,-12160.0,-9280.0,6336.0
8.005,-12288.0,-9280.0,6400.0
8.0075,-12224.0,-9344.0,6400.0
8.01,-12160.0,-9280.0,6528.0
8.0125,-12160.0,-9280.0,6464.0
8.015,-12224.0,-9216.0,6528.0
8.0175,-12224.0,-9152.0,6592.0
8.02,-12288.0,-9216.0,6592.0
8.0225,-12352.0,-9216.0,6528.0
8.025,-12288.0,-9216.0,6528.0
8.0275,-12352.0,-9216.0,6592.0
8.03,-12352.0,-9216.0,6656.0
8.0325,-12288.0,-9280.0,6592.0
8.035,-12288.0,-9280.0,6592.0
8.0375,-12288.0,-9344.0,6656.0
8.04,-12352.0,-9280.0,6656.0
8.0425,-12416.0,-9280.0,6528.0
8.045,-12480.0,-9280.0,6592.0
8.0475,-12416.0,-9344.0,6592.0
8.05,-12480.0,-9344.0,6592.0
8.0525,-12544.0,-9344.0,6592.0
8.055,-12544.0,-9280.0,6592.0
8.0575,-12608.0,-9280.0,6528.0
8.06,-12672.0,-9280.0,6464.0
8.0625,-12800.0,-9280.0,6464.0
8.065,-12864.0,-9280.0,6464.0
8.0675,-12928.0,-9344.0,6528.0
8.07,-13056.0,-9280.0,6464.0
8.0725,-13120.0,-9344.0,6464.0
8.075,-13184.0,-9344.0,6400.0
8.0775,-13248.0,-9408.0,6400.0
8.08,-13504.0,-9408.0,6400.0
8.0825,-13568.0,-9536.0,6272.0
8.085,-13696.0,-9536.0,6272.0
8.0875,-13888.0,-9600.0,6272.0
8.09,-14016.0,-9600.0,6272.0
8.0925,-14080.0,-9600.0,6272.0
8.095,-14208.0,-9600.0,6272.0
8.0975,-14272.0,-9600.0,6208.0
8.1,-14400.0,-9664.0,6208.0
8.1025,-14528.0,-9600.0,6208.0
8.105,-14656.0,-9664.0,6144.0
8.1075,-14784.0,-9664.0,6144.0
8.11,-14848.0,-9664.0,6080.0
8.1125,-14976.0,-9664.0,6144.0
8.115,-15104.0,-9728.0,6080.0
8.1175,-15232.0,-9728.0,6080.0
8.12,-15360.0,-9728.0,6144.0
8.1225,-15488.0,-9728.0,6080.0
8.125,-15616.0,-9728.0,6080.0
8.1275,-15744.0,-9792.0,6080.0
8.13,-15872.0,-9792.0,6080.0
8.1325,-15936.0,-9792.0,5952.0
8.135,-16064.0,-9792.0,5952.0
8.1375,-16192.0,-9792.0,5952.0
8.14,-16256.0,-9728.0,5952.0
8.1425,-16448.0,-9728.0,6016.0
8.145,-16512.0,-9728.0,6080.0
8.1475,-16704.0,-9664.0,5952.0
8.15,-16768.0,-9664.0,6080.0
8.1525,-16768.0,-9600.0,6080.0
8.155,-16832.0,-9536.0,6080.0
8.1575,-16896.0,-9472.0,6208.0
8.16,-17024.0,-9408.0,6208.0
8.1625,-17024.0,-9408.0,6208.0
8.165,-17088.0,-9408.0,6272.0
8.1675,-17088.0,-9408.0,6144.0
8.17,-17152.0,-9280.0,6208.0
8.1725,-17152.0,-9280.0,6144.0
8.175,-17216.0,-9280.0,6208.0
8.1775,-17152.0,-9216.0,6144.0
8.18,-17088.0,-9216.0,6144.0
8.1825,-17088.0,-9152.0,6080.0
8.185,-17152.0,-9088.0,6016.0
8.1875,-17152.0,-9088.0,5952.0
8.19,-17088.0,-9024.0,5952.0
8.1925,-17152.0,-8960.0,5888.0
8.195,-17152.0,-8896.0,5824.0
8.1975,-17216.0,-8832.0,5824.0
8.2,-17280.0,-8896.0,5824.0
8.2025,-17216.0,-8768.0,5760.0
8.205,-17280.0,-8768.0,5760.0
8.2075,-17280.0,-8640.0,5760.0
8.21,-17280.0,-8576.0,5824.0
8.2125,-17216.0,-8512.0,5760.0
8.215,-17216.0,-8448.0,5760.0
8.2175,-17216.0,-8384.0,5760.0
8.22,-17152.0,-8192.0,5760.0
8.2225,-17024.0,-8128.0,5760.0
8.225,-16896.0,-8000.0,5696.0
8.2275,-16704.0,-7936.0,5632.0
8.23,-16576.0,-7872.0,5632.0
8.2325,-16448.0,-7744.0,5632.0
8.235,-16256.0,-7680.0,5632.0
8.2375,-16064.0,-7552.0,5696.0
8.24,-15680.0,-7424.0,5824.0
8.2425,-15616.0,-7296.0,5824.0
8.245,-15424.0,-7168.0,5824.0
8.2475,-15232.0,-6976.0,5888.0
8.25,-15104.0,-6912.0,5888.0
8.2525,-14976.0,-6784.0,5824.0
8.255,-14784.0,-6720.0,5952.0
8.2575,-14656.0,-6656.0,5952.0
8.26,-14592.0,-6528.0,5952.0
8.2625,-14464.0,-6464.0,5952.0
8.265,-14400.0,-6400.0,5888.0
8.2675,-14272.0,-6272.0,5696.0
8.27,-14272.0,-6272.0,5632.0
8.2725,-14144.0,-6208.0,5440.0
8.275,-14080.0,-6208.0,5376.0
8.2775,-14016.0,-6144.0,5184.0
8.28,-14016.0,-6144.0,5120.0
8.2825,-13888.0,-6080.0,5056.0
8.285,-13824.0,-5952.0,4992.0
8.2875,-13824.0,-5824.0,4928.0
8.29,-13760.0,-5760.0,4928.0
8.2925,-13696.0,-5632.0,4992.0
8.295,-13632.0,-5632.0,4992.0
8.2975,-13568.0,-5568.0,5056.0
8.3,-13504.0,-5568.0,5120.0
8.3025,-13504.0,-5504.0,5120.0
8.305,-13440.0,-5504.0,5120.0
8.3075,-13376.0,-5440.0,5120.0
8.31,-13376.0,-5440.0,5184.0
8.3125,-13376.0,-5376.0,5184.0
8.315,-13376.0,-5376.0,5248.0
8.3175,-13376.0,-5376.0,5312.0
8.32,-13376.0,-5312.0,5248.0
8.3225,-13440.0,-5184.0,5120.0
8.325,-13440.0,-5184.0,5120.0
8.3275,-13440.0,-5120.0,5056.0
8.33,-13504.0,-5056.0,4992.0
8.3325,-13568.0,-5056.0,5120.0
8.335,-13568.0,-4928.0,5056.0
8.3375,-13568.0,-4928.0,4992.0
8.34,-13568.0,-4928.0,4992.0
8.3425,-13696.0,-4864.0,4928.0
8.345,-13632.0,-4864.0,4864.0
8.3475,-13696.0,-4864.0,4864.0
8.35,-13760.0,-4864.0,4928.0
8.3525,-13824.0,-4864.0,4928.0
8.355,-13888.0,-4736.0,4928.0
8.3575,-13888.0,-4864.0,4864.0
8.36,-14016.0,-4864.0,4928.0
8.3625,-14080.0,-4864.0,4928.0
8.365,-14208.0,-4800.0,4864.0
8.3675,-14208.0,-4800.0,4864.0
8.37,-14144.0,-4864.0,4800.0
8.3725,-14208.0,-4800.0,4864.0
8.375,-14208.0,-4800.0,4928.0
8.3775,-14208.0,-4736.0,4928.0
8.38,-14144.0,-4672.0,4928.0
8.3825,-14208.0,-4544.0,4992.0
8.385,-14144.0,-4544.0,4928.0
8.3875,-14144.0,-4480.0,4992.0
8.39,-14080.0,-4480.0,5056.0
8.3925,-14080.0,-4544.0,4992.0
8.395,-14080.0,-4544.0,4992.0
8.3975,-14080.0,-4544.0,4992.0
8.4,-14016.0,-4544.0,5056.0
8.4025,-13952.0,-4544.0,5056.0
8.405,-13952.0,-4544.0,4928.0
8.4075,-13952.0,-4544.0,4928.0
8.41,-13952.0,-4544.0,5120.0
8.4125,-13952.0,-4608.0,5056.0
8.415,-13888.0,-4608.0,4992.0
8.4175,-13888.0,-4608.0,4992.0
8.42,-13824.0,-4672.0,4992.0
8.4225,-13824.0,-4736.0,5056.0
8.425,-13824.0,-4800.0,4992.0
8.4275,-13888.0,-4864.0,4992.0
8.43,-13888.0,-4928.0,5056.0
8.4325,-13888.0,-4928.0,5056.0
8.435,-13952.0,-4928.0,5120.0
8.4375,-13952.0,-4928.0,5056.0
8.44,-14016.0,-4928.0,5120.0
8.4425,-13952.0,-4928.0,5120.0
8.445,-13952.0,-4992.0,5056.0
8.4475,-14016.0,-4928.0,5056.0
8.45,-14080.0,-4928.0,5120.0
8.4525,-14080.0,-4864.0,5120.0
8.455,-14144.0,-4928.0,5056.0
8.4575,-14272.0,-4992.0,5056.0
8.46,-14336.0,-5120.0,5056.0
8.4625,-14400.0,-5184.0,5056.0
8.465,-14464.0,-5184.0,4992.0
8.4675,-14592.0,-5184.0,4992.0
8.47,-14656.0,-5248.0,5056.0
8.4725,-14656.0,-5248.0,4992.0
8.475,-14784.0,-5312.0,4992.0
8.4775,-14848.0,-5312.0,4992.0
8.48,-14912.0,-5248.0,5056.0
8.4825,-14912.0,-5248.0,5120.0
8.485,-14976.0,-5248.0,5120.0
8.4875,-14976.0,-5312.0,5120.0
8.49,-15040.0,-5312.0,5056.0
8.4925,-15040.0,-5184.0,5248.0
8.495,-15040.0,-5120.0,5248.0
8.4975,-15040.0,-5184.0,5184.0
8.5,-15104.0,-5248.0,5248.0
8.5025,-15104.0,-5248.0,5312.0
8.505,-15104.0,-5248.0,5120.0
8.5075,-15168.0,-5248.0,5120.0
8.51,-15168.0,-5248.0,5120.0
8.5125,-15104.0,-5184.0,5184.0
8.515,-15104.0,-5184.0,5120.0
8.5175,-15104.0,-5184.0,5184.0
8.52,-15168.0,-5248.0,5120.0
8.5225,-15104.0,-5248.0,5184.0
8.525,-15104.0,-5184.0,5184.0
8.5275,-15104.0,-5184.0,5120.0
8.53,-15040.0,-5184.0,5120.0
8.5325,-14976.0,-5184.0,5120.0
8.535,-14976.0,-5120.0,5120.0
8.5375,-14976.0,-5120.0,5056.0
8.54,-14912.0,-5120.0,5056.0
8.5425,-14912.0,-5120.0,5120.0
8.545,-14848.0,-5120.0,5120.0
8.5475,-14784.0,-5120.0,5184.0
8.55,-14784.0,-5120.0,5184.0
8.5525,-14784.0,-5120.0,5184.0
8.555,-14720.0,-5056.0,5120.0
8.5575,-14656.0,-5120.0,5120.0
8.56,-14528.0,-5120.0,5248.0
8.5625,-14464.0,-5120.0,5248.0
8.565,-14464.0,-5056.0,5120.0
8.5675,-14464.0,-5056.0,5248.0
8.57,-14400.0,-5056.0,5184.0
8.5725,-14464.0,-4992.0,5248.0
8.575,-14400.0,-5056.0,5184.0
8.5775,-14336.0,-5056.0,5184.0
8.58,-14208.0,-5056.0,5184.0
8.5825,-14272.0,-4992.0,5120.0
8.585,-14208.0,-5056.0,5120.0
8.5875,-14144.0,-5056.0,5184.0
8.59,-14144.0,-4992.0,5248.0
8.5925,-14144.0,-5056.0,5248.0
8.595,-14144.0,-5056.0,5184.0
8.5975,-14080.0,-4992.0,5248.0
8.6,-14080.0,-4928.0,5248.0
8.6025,-14080.0,-5056.0,5248.0
8.605,-14080.0,-5056.0,5312.0
8.6075,-14080.0,-4992.0,5312.0
8.61,-14016.0,-4992.0,5312.0
8.6125,-14016.0,-4928.0,5312.0
8.615,-14016.0,-4928.0,5312.0
8.6175,-14080.0,-4992.0,5376.0
8.62,-14016.0,-4928.0,5312.0
8.6225,-14080.0,-4864.0,5248.0
8.625,-14080.0,-4864.0,5248.0
8.6275,-14080.0,-4864.0,5248.0
8.63,-14016.0,-4864.0,5248.0
8.6325,-14080.0,-4864.0,5248.0
8.635,-14016.0,-4800.0,5248.0
8.6375,-14016.0,-4800.0,5248.0
8.64,-14080.0,-4736.0,5120.0
8.6425,-14016.0,-4736.0,5184.0
8.645,-13888.0,-4800.0,5184.0
8.6475,-13952.0,-4736.0,5184.0
8.65,-13888.0,-4736.0,5184.0
8.6525,-13888.0,-4800.0,5184.0
8.655,-13888.0,-4864.0,5248.0
8.6575,-13888.0,-4864.0,5184.0
8.66,-13888.0,-4864.0,5184.0
8.6625,-13888.0,-4864.0,5120.0
8.665,-13888.0,-4928.0,5056.0
8.6675,-13952.0,-4928.0,5184.0
8.67,-13952.0,-4928.0,5056.0
8.6725,-14016.0,-4928.0,5120.0
8.675,-14016.0,-4928.0,4992.0
8.6775,-14016.0,-4928.0,4992.0
8.68,-14016.0,-4992.0,4992.0
8.6825,-14016.0,-4992.0,4928.0
8.685,-14080.0,-4992.0,4992.0
8.6875,-14080.0,-5056.0,4928.0
8.69,-14080.0,-5056.0,4992.0
8.6925,-14080.0,-5056.0,4864.0
8.695,-14144.0,-5056.0,4800.0
8.6975,-14208.0,-4992.0,4864.0
8.7,-14208.0,-4992.0,4800.0
8.7025,-14272.0,-4992.0,4736.0
8.705,-14272.0,-4928.0,4800.0
8.7075,-14272.0,-4928.0,4800.0
8.71,-14272.0,-4928.0,4736.0
8.7125,-14272.0,-4928.0,4800.0
8.715,-14208.0,-4928.0,4800.0
8.7175,-14272.0,-4928.0,4800.0
8.72,-14272.0,-4928.0,4864.0
8.7225,-14208.0,-4928.0,4864.0
8.725,-14208.0,-4928.0,4864.0
8.7275,-14208.0,-4992.0,4928.0
8.73,-14272.0,-4992.0,4864.0
8.7325,-14272.0,-4992.0,4928.0
8.735,-14272.0,-5056.0,4736.0
8.7375,-14144.0,-5056.0,4800.0
8.74,-14144.0,-4992.0,4800.0
8.7425,-14080.0,-4992.0,4864.0
8.745,-14016.0,-4928.0,4736.0
8.7475,-13952.0,-4928.0,4736.0
8.75,-13824.0,-4928.0,4800.0
8.7525,-13760.0,-4864.0,4800.0
8.755,-13760.0,-4864.0,4864.0
8.7575,-13696.0,-4864.0,4800.0
8.76,-13632.0,-4800.0,4864.0
8.7625,-13568.0,-4864.0,4864.0
8.765,-13568.0,-4800.0,4928.0
8.7675,-13376.0,-4736.0,4992.0
8.77,-13376.0,-4800.0,4928.0
8.7725,-13312.0,-4800.0,4992.0
8.775,-13248.0,-4800.0,4992.0
8.7775,-13184.0,-4800.0,4992.0
8.78,-13120.0,-4800.0,5056.0
8.7825,-13056.0,-4800.0,5056.0
8.785,-12992.0,-4800.0,5056.0
8.7875,-12992.0,-4736.0,5056.0
8.79,-12928.0,-4736.0,5056.0
8.7925,-12864.0,-4800.0,5120.0
8.795,-12864.0,-4736.0,5248.0
8.7975,-12800.0,-4736.0,5248.0
8.8,-12672.0,-4736.0,5312.0
8.8025,-12672.0,-4736.0,5248.0
8.805,-12608.0,-4736.0,5184.0
8.8075,-12608.0,-4736.0,5248.0
8.81,-12608.0,-4800.0,5184.0
8.8125,-12608.0,-4864.0,5248.0
8.815,-12608.0,-4800.0,5248.0
8.8175,-12544.0,-4800.0,5184.0
8.82,-12544.0,-4864.0,5184.0
8.8225,-12544.0,-4800.0,5120.0
8.825,-12608.0,-4928.0,5248.0
8.8275,-12608.0,-4992.0,5184.0
8.83,-12608.0,-4928.0,5120.0
8.8325,-12608.0,-4992.0,5120.0
8.835,-12672.0,-4992.0,5120.0
8.8375,-12736.0,-4992.0,5056.0
8.84,-12736.0,-4992.0,5056.0
8.8425,-12800.0,-4992.0,4992.0
8.845,-12864.0,-4992.0,4992.0
8.8475,-12864.0,-4992.0,5056.0
8.85,-12928.0,-4992.0,5056.0
8.8525,-12928.0,-4992.0,5056.0
8.855,-13056.0,-5056.0,5056.0
8.8575,-13056.0,-4992.0,5056.0
8.86,-13120.0,-4992.0,4992.0
8.8625,-13248.0,-4928.0,4992.0
8.865,-13312.0,-4992.0,4992.0
8.8675,-13440.0,-4928.0,5056.0
8.87,-13504.0,-4992.0,5056.0
8.8725,-13504.0,-4928.0,5056.0
8.875,-13568.0,-4992.0,4992.0
8.8775,-13632.0,-4928.0,4928.0
8.88,-13760.0,-4928.0,4928.0
8.8825,-13888.0,-4992.0,4928.0
8.885,-13952.0,-4928.0,4864.0
8.8875,-14080.0,-4928.0,4800.0
8.89,-14080.0,-4864.0,4864.0
8.8925,-14208.0,-4928.0,4800.0
8.895,-14272.0,-4864.0,4800.0
8.8975,-14336.0,-4864.0,4800.0
8.9,-14400.0,-4864.0,4672.0
8.9025,-14464.0,-4928.0,4672.0
8.905,-14592.0,-4928.0,4672.0
8.9075,-14592.0,-4928.0,4608.0
8.91,-14656.0,-4928.0,4608.0
8.9125,-14720.0,-4864.0,4672.0
8.915,-14720.0,-4864.0,4608.0
8.9175,-14848.0,-4928.0,4544.0
8.92,-14912.0,-4864.0,4544.0
8.9225,-14976.0,-4928.0,4544.0
8.925,-14976.0,-4864.0,4672.0
8.9275,-15040.0,-4928.0,4672.0
8.93,-15040.0,-4864.0,4672.0
8.9325,-15040.0,-4864.0,4672.0
8.935,-15104.0,-4864.0,4672.0
8.9375,-15168.0,-4928.0,4672.0
8.94,-15168.0,-4864.0,4736.0
8.9425,-15168.0,-4864.0,4736.0
8.945,-15104.0,-4864.0,4608.0
8.9475,-15104.0,-4800.0,4736.0
8.95,-15104.0,-4864.0,4736.0
8.9525,-15104.0,-4864.0,4736.0
8.955,-15104.0,-4864.0,4736.0
8.9575,-15104.0,-4928.0,4672.0
8.96,-15104.0,-4864.0,4736.0
8.9625,-15040.0,-4864.0,4736.0
8.965,-14976.0,-4864.0,4736.0
8.9675,-15040.0,-4864.0,4800.0
8.97,-15040.0,-4864.0,4672.0
8.9725,-14976.0,-4928.0,4736.0
8.975,-14976.0,-4928.0,4672.0
8.9775,-15040.0,-5056.0,4736.0
8.98,-15040.0,-4992.0,4736.0
8.9825,-14976.0,-5056.0,4800.0
8.985,-14976.0,-5056.0,4800.0
8.9875,-14976.0,-5056.0,4736.0
8.99,-14912.0,-5056.0,4736.0
8.9925,-14912.0,-4992.0,4736.0
8.995,-14848.0,-4928.0,4800.0
8.9975,-14848.0,-4992.0,4736.0
9.0,-14784.0,-4928.0,4800.0
9.0025,-14720.0,-4928.0,4800.0
9.005,-14656.0,-4864.0,4736.0
9.0075,-14592.0,-4864.0,4800.0
9.01,-14592.0,-4864.0,4864.0
9.0125,-14464.0,-4864.0,4928.0
9.015,-14464.0,-4928.0,4928.0
9.0175,-14400.0,-4928.0,4992.0
9.02,-14336.0,-4992.0,4928.0
9.0225,-14208.0,-4992.0,4864.0
9.025,-14208.0,-4928.0,4864.0
9.0275,-14080.0,-4928.0,4864.0
9.03,-13952.0,-4864.0,4800.0
9.0325,-13952.0,-4800.0,4928.0
9.035,-13824.0,-4736.0,4928.0
9.0375,-13824.0,-4672.0,4864.0
9.04,-13696.0,-4608.0,4928.0
9.0425,-13696.0,-4608.0,4864.0
9.045,-13696.0,-4608.0,4800.0
9.0475,-13632.0,-4608.0,4800.0
9.05,-13632.0,-4672.0,4800.0
9.0525,-13632.0,-4672.0,4736.0
9.055,-13568.0,-4608.0,4736.0
9.0575,-13568.0,-4608.0,4736.0
9.06,-13504.0,-4544.0,4736.0
9.0625,-13504.0,-4544.0,4736.0
9.065,-13440.0,-4544.0,4736.0
9.0675,-13504.0,-4480.0,4800.0
9.07,-13568.0,-4416.0,4736.0
9.0725,-13504.0,-4352.0,4736.0
9.075,-13504.0,-4352.0,4800.0
9.0775,-13568.0,-4416.0,4736.0
9.08,-13632.0,-4352.0,4672.0
9.0825,-13568.0,-4352.0,4736.0
9.085,-13632.0,-4352.0,4672.0
9.0875,-13696.0,-4352.0,4608.0
9.09,-13696.0,-4288.0,4544.0
9.0925,-13696.0,-4288.0,4608.0
9.095,-13696.0,-4288.0,4608.0
9.0975,-13760.0,-4288.0,4544.0
9.1,-13824.0,-4224.0,4480.0
9.1025,-14016.0,-4224.0,4480.0
9.105,-14016.0,-4224.0,4480.0
9.1075,-14080.0,-4224.0,4416.0
9.11,-14208.0,-4224.0,4416.0
9.1125,-14208.0,-4288.0,4416.0
9.115,-14208.0,-4288.0,4416.0
9.1175,-14272.0,-4224.0,4352.0
9.12,-14464.0,-4288.0,4352.0
9.1225,-14592.0,-4288.0,4288.0
9.125,-14592.0,-4288.0,4352.0
9.1275,-14656.0,-4288.0,4224.0
9.13,-14720.0,-4288.0,4224.0
9.1325,-14784.0,-4224.0,4224.0
9.135,-14848.0,-4288.0,4224.0
9.1375,-14848.0,-4224.0,4224.0
9.14,-14848.0,-4160.0,4352.0
9.1425,-14848.0,-4224.0,4224.0
9.145,-14912.0,-4224.0,4224.0
9.1475,-14848.0,-4224.0,4288.0
9.15,-14848.0,-4224.0,4160.0
9.1525,-14848.0,-4224.0,4096.0
9.155,-14848.0,-4224.0,4032.0
9.1575,-14848.0,-4288.0,4160.0
9.16,-14784.0,-4224.0,4096.0
9.1625,-14784.0,-4224.0,4160.0
9.165,-14784.0,-4288.0,4160.0
9.1675,-14784.0,-4224.0,4160.0
9.17,-14784.0,-4224.0,4160.0
9.1725,-14784.0,-4224.0,4160.0
9.175,-14784.0,-4224.0,4096.0
9.1775,-14848.0,-4224.0,4032.0
9.18,-14976.0,-4224.0,4032.0
9.1825,-14912.0,-4224.0,4032.0
9.185,-14976.0,-4224.0,4096.0
9.1875,-14976.0,-4224.0,4160.0
9.19,-14976.0,-4288.0,4224.0
9.1925,-14976.0,-4288.0,4224.0
9.195,-15040.0,-4288.0,4160.0
9.1975,-15040.0,-4224.0,4160.0
9.2,-15168.0,-4352.0,4288.0
9.2025,-15168.0,-4352.0,4288.0
9.205,-15232.0,-4352.0,4288.0
9.2075,-15232.0,-4352.0,4352.0
9.21,-15232.0,-4352.0,4352.0
9.2125,-15360.0,-4352.0,4352.0
9.215,-15424.0,-4480.0,4224.0
9.2175,-15552.0,-4480.0,4160.0
9.22,-15552.0,-4544.0,4096.0
9.2225,-15680.0,-4608.0,4224.0
9.225,-15744.0,-4672.0,4288.0
9.2275,-15744.0,-4736.0,4288.0
9.23,-15808.0,-4736.0,4288.0
9.2325,-15872.0,-4800.0,4288.0
9.235,-16000.0,-4800.0,4160.0
9.2375,-16000.0,-4800.0,4096.0
9.24,-16064.0,-4736.0,4160.0
9.2425,-16064.0,-4608.0,4096.0
9.245,-16064.0,-4544.0,3904.0
9.2475,-16000.0,-4544.0,4032.0
9.25,-16128.0,-4608.0,4096.0
9.2525,-16128.0,-4672.0,4160.0
9.255,-16192.0,-4672.0,4032.0
9.2575,-16192.0,-4672.0,4032.0
9.26,-16256.0,-4736.0,4096.0
9.2625,-16192.0,-4800.0,4096.0
9.265,-16128.0,-4800.0,4032.0
9.2675,-16064.0,-4800.0,4096.0
9.27,-16000.0,-4800.0,4160.0
9.2725,-15936.0,-4800.0,4160.0
9.275,-15936.0,-4672.0,4096.0
9.2775,-15872.0,-4608.0,4160.0
9.28,-15872.0,-4480.0,4224.0
9.2825,-15744.0,-4416.0,4160.0
9.285,-15680.0,-4352.0,4096.0
9.2875,-15552.0,-4352.0,4096.0
9.29,-15552.0,-4352.0,4096.0
9.2925,-15552.0,-4352.0,4096.0
9.295,-15488.0,-4288.0,4160.0
9.2975,-15488.0,-4352.0,4096.0
9.3,-15424.0,-4288.0,3968.0
9.3025,-15360.0,-4288.0,3968.0
9.305,-15296.0,-4288.0,3904.0
9.3075,-15296.0,-4224.0,3968.0
9.31,-15296.0,-4160.0,3904.0
9.3125,-15360.0,-4096.0,3904.0
9.315,-15296.0,-4096.0,3968.0
9.3175,-15232.0,-4032.0,4032.0
9.32,-15168.0,-3968.0,3968.0
9.3225,-15168.0,-3968.0,3968.0
9.325,-15104.0,-3904.0,3904.0
9.3275,-15104.0,-3904.0,3904.0
9.33,-15040.0,-3904.0,3968.0
9.3325,-15040.0,-3840.0,4032.0
9.335,-15040.0,-3904.0,4032.0
9.3375,-14976.0,-3904.0,4032.0
9.34,-14912.0,-3904.0,4032.0
9.3425,-14848.0,-3840.0,4032.0
9.345,-14784.0,-3840.0,4032.0
9.3475,-14720.0,-3776.0,4096.0
9.35,-14656.0,-3712.0,4160.0
9.3525,-14656.0,-3648.0,4160.0
9.355,-14528.0,-3648.0,4160.0
9.3575,-14528.0,-3648.0,4160.0
9.36,-14528.0,-3712.0,4032.0
9.3625,-14528.0,-3712.0,3968.0
9.365,-14528.0,-3648.0,3904.0
9.3675,-14464.0,-3648.0,3840.0
9.37,-14400.0,-3712.0,3840.0
9.3725,-14400.0,-3712.0,3776.0
9.375,-14400.0,-3712.0,3712.0
9.3775,-14400.0,-3712.0,3776.0
9.38,-14400.0,-3712.0,3840.0
9.3825,-14336.0,-3712.0,3776.0
9.385,-14272.0,-3712.0,3840.0
9.3875,-14272.0,-3712.0,3840.0
9.39,-14208.0,-3712.0,3776.0
9.3925,-14208.0,-3648.0,3904.0
9.395,-14208.0,-3712.0,3904.0
9.3975,-14144.0,-3712.0,3968.0
9.4,-14144.0,-3712.0,3968.0
9.4025,-14080.0,-3712.0,3968.0
9.405,-14016.0,-3712.0,3968.0
9.4075,-14016.0,-3712.0,3968.0
9.41,-14016.0,-3712.0,3840.0
9.4125,-13952.0,-3712.0,3904.0
9.415,-13888.0,-3776.0,3904.0
9.4175,-13824.0,-3776.0,3904.0
9.42,-13824.0,-3712.0,3904.0
9.4225,-13824.0,-3776.0,3840.0
9.425,-13824.0,-3776.0,3904.0
9.4275,-13824.0,-3840.0,3904.0
9.43,-13760.0,-3776.0,3904.0
9.4325,-13760.0,-3776.0,3968.0
9.435,-13760.0,-3840.0,3904.0
9.4375,-13824.0,-3840.0,3968.0
9.44,-13824.0,-3904.0,3904.0
9.4425,-13888.0,-3904.0,3904.0
9.445,-13824.0,-3968.0,3968.0
9.4475,-13824.0,-3968.0,3904.0
9.45,-13760.0,-3968.0,3904.0
9.4525,-13760.0,-4032.0,3712.0
9.455,-13760.0,-4032.0,3712.0
9.4575,-13696.0,-4032.0,3712.0
9.46,-13632.0,-4032.0,3712.0
9.4625,-13632.0,-4032.0,3712.0
9.465,-13632.0,-3968.0,3648.0
9.4675,-13568.0,-4032.0,3712.0
9.47,-13568.0,-4032.0,3712.0
9.4725,-13568.0,-4032.0,3840.0
9.475,-13504.0,-4032.0,3840.0
9.4775,-13504.0,-4032.0,3904.0
9.48,-13504.0,-4096.0,3904.0
9.4825,-13504.0,-4096.0,3904.0
9.485,-13504.0,-4160.0,4032.0
9.4875,-13440.0,-4160.0,4032.0
9.49,-13440.0,-4224.0,4096.0
9.4925,-13440.0,-4224.0,4160.0
9.495,-13504.0,-4224.0,4160.0
9.4975,-13440.0,-4288.0,4160.0
9.5,-13376.0,-4288.0,4160.0
9.5025,-13376.0,-4288.0,4096.0
9.505,-13312.0,-4288.0,4160.0
9.5075,-13312.0,-4288.0,4032.0
9.51,-13248.0,-4224.0,3968.0
9.5125,-13184.0,-4224.0,3968.0
9.515,-13120.0,-4224.0,3968.0
9.5175,-13056.0,-4224.0,4032.0
9.52,-13056.0,-4224.0,4032.0
9.5225,-13056.0,-4288.0,4096.0
9.525,-13056.0,-4352.0,4032.0
9.5275,-12992.0,-4352.0,4032.0
9.53,-13056.0,-4416.0,4032.0
9.5325,-13056.0,-4352.0,4032.0
9.535,-13120.0,-4416.0,4096.0
9.5375,-13184.0,-4416.0,4224.0
9.54,-13312.0,-4416.0,4160.0
9.5425,-13312.0,-4480.0,4160.0
9.545,-13376.0,-4416.0,4160.0
9.5475,-13440.0,-4480.0,4224.0
9.55,-13568.0,-4544.0,4160.0
9.5525,-13632.0,-4608.0,4160.0
9.555,-13696.0,-4608.0,4224.0
9.5575,-13760.0,-4608.0,4288.0
9.56,-13824.0,-4672.0,4288.0
9.5625,-13888.0,-4736.0,4224.0
9.565,-13888.0,-4736.0,4288.0
9.5675,-13952.0,-4736.0,4288.0
9.57,-13952.0,-4736.0,4288.0
9.5725,-14016.0,-4800.0,4288.0
9.575,-14016.0,-4864.0,4160.0
9.5775,-14016.0,-4928.0,4224.0
9.58,-14016.0,-4864.0,4224.0
9.5825,-14080.0,-4864.0,4160.0
9.585,-14144.0,-4928.0,4160.0
9.5875,-14144.0,-4992.0,4032.0
9.59,-14272.0,-4992.0,3968.0
9.5925,-14208.0,-5120.0,3968.0
9.595,-14336.0,-5120.0,3904.0
9.5975,-14336.0,-5184.0,3968.0
9.6,-14400.0,-5248.0,4032.0
9.6025,-14400.0,-5248.0,3968.0
9.605,-14400.0,-5312.0,3904.0
9.6075,-14464.0,-5312.0,3968.0
9.61,-14464.0,-5312.0,4032.0
9.6125,-14528.0,-5312.0,4096.0
9.615,-14464.0,-5376.0,4160.0
9.6175,-14592.0,-5376.0,4160.0
9.62,-14592.0,-5376.0,4160.0
9.6225,-14592.0,-5312.0,4160.0
9.625,-14592.0,-5376.0,4160.0
9.6275,-14592.0,-5312.0,4160.0
9.63,-14592.0,-5312.0,4096.0
9.6325,-14656.0,-5312.0,4096.0
9.635,-14656.0,-5312.0,4160.0
9.6375,-14720.0,-5248.0,4096.0
9.64,-14784.0,-5312.0,4160.0
9.6425,-14848.0,-5312.0,4160.0
9.645,-14976.0,-5312.0,4160.0
9.6475,-15040.0,-5312.0,4160.0
9.65,-15168.0,-5440.0,4096.0
9.6525,-15232.0,-5440.0,4160.0
9.655,-15360.0,-5440.0,4160.0
9.6575,-15552.0,-5504.0,4224.0
9.66,-15616.0,-5440.0,4160.0
9.6625,-15744.0,-5504.0,4288.0
9.665,-15872.0,-5504.0,4224.0
9.6675,-16000.0,-5568.0,4224.0
9.67,-16064.0,-5632.0,4288.0
9.6725,-16128.0,-5568.0,4288.0
9.675,-16128.0,-5568.0,4352.0
9.6775,-16192.0,-5504.0,4352.0
9.68,-16320.0,-5504.0,4480.0
9.6825,-16320.0,-5504.0,4544.0
9.685,-16384.0,-5504.0,4480.0
9.6875,-16384.0,-5504.0,4544.0
9.69,-16448.0,-5504.0,4480.0
9.6925,-16384.0,-5504.0,4544.0
9.695,-16512.0,-5504.0,4480.0
9.6975,-16448.0,-5440.0,4480.0
9.7,-16512.0,-5440.0,4480.0
9.7025,-16384.0,-5376.0,4416.0
9.705,-16384.0,-5312.0,4288.0
9.7075,-16320.0,-5376.0,4416.0
9.71,-16256.0,-5376.0,4416.0
9.7125,-16320.0,-5376.0,4352.0
9.715,-16256.0,-5376.0,4288.0
9.7175,-16256.0,-5376.0,4288.0
9.72,-16192.0,-5376.0,4224.0
9.7225,-16192.0,-5376.0,4288.0
9.725,-16128.0,-5376.0,4288.0
9.7275,-16064.0,-5312.0,4224.0
9.73,-16064.0,-5312.0,4160.0
9.7325,-16064.0,-5248.0,4224.0
9.735,-16000.0,-5248.0,4224.0
9.7375,-15936.0,-5248.0,4160.0
9.74,-15936.0,-5184.0,4096.0
9.7425,-15936.0,-5120.0,4160.0
9.745,-15936.0,-5056.0,4160.0
9.7475,-15936.0,-5056.0,4096.0
9.75,-16000.0,-5056.0,4096.0
9.7525,-16000.0,-4992.0,4160.0
9.755,-16064.0,-4928.0,4160.0
9.7575,-16064.0,-4864.0,4160.0
9.76,-16128.0,-4800.0,4160.0
9.7625,-16192.0,-4800.0,4160.0
9.765,-16320.0,-4736.0,4160.0
9.7675,-16320.0,-4672.0,4096.0
9.77,-16320.0,-4608.0,4096.0
9.7725,-16320.0,-4608.0,4096.0
9.775,-16448.0,-4608.0,4032.0
9.7775,-16512.0,-4608.0,3968.0
9.78,-16512.0,-4544.0,3968.0
9.7825,-16576.0,-4480.0,4096.0
9.785,-16576.0,-4480.0,4032.0
9.7875,-16640.0,-4416.0,4032.0
9.79,-16640.0,-4352.0,4096.0
9.7925,-16704.0,-4352.0,4032.0
9.795,-16768.0,-4288.0,4032.0
9.7975,-16768.0,-4352.0,3904.0
9.8,-16768.0,-4288.0,3968.0
9.8025,-16768.0,-4288.0,3904.0
9.805,-16832.0,-4288.0,3840.0
9.8075,-16832.0,-4352.0,3904.0
9.81,-16832.0,-4352.0,3904.0
9.8125,-16832.0,-4288.0,3968.0
9.815,-16896.0,-4288.0,3968.0
9.8175,-16896.0,-4224.0,3968.0
9.82,-16832.0,-4224.0,3968.0
9.8225,-16896.0,-4224.0,4032.0
9.825,-16896.0,-4224.0,3968.0
9.8275,-16896.0,-4224.0,4032.0
9.83,-16896.0,-4288.0,3968.0
9.8325,-16896.0,-4224.0,4096.0
9.835,-16832.0,-4096.0,4096.0
9.8375,-16768.0,-4096.0,4096.0
9.84,-16768.0,-4032.0,4032.0
9.8425,-16832.0,-4032.0,4032.0
9.845,-16832.0,-4032.0,4032.0
9.8475,-16832.0,-4096.0,4032.0
9.85,-16832.0,-4160.0,4096.0
9.8525,-16832.0,-4160.0,4096.0
9.855,-16896.0,-4160.0,4160.0
9.8575,-16832.0,-4224.0,4224.0
9.86,-16768.0,-4224.0,4160.0
9.8625,-16768.0,-4288.0,4096.0
