time_stamp,acc_x,acc_y,acc_z
0.0,-15936.0,-3904.0,2304.0
0.0025,-15936.0,-3904.0,2368.0
0.005,-15872.0,-3840.0,2368.0
0.0075,-15872.0,-3904.0,2432.0
0.01,-15936.0,-3968.0,2496.0
0.0125,-15872.0,-3904.0,2432.0
0.015,-15808.0,-3904.0,2496.0
0.0175,-15808.0,-3840.0,2432.0
0.02,-15808.0,-3840.0,2368.0
0.0225,-15872.0,-3840.0,2496.0
0.025,-15872.0,-3840.0,2496.0
0.0275,-15808.0,-3840.0,2560.0
0.03,-15872.0,-3840.0,2496.0
0.0325,-15808.0,-3840.0,2432.0
0.035,-15808.0,-3904.0,2432.0
0.0375,-15872.0,-3840.0,2368.0
0.04,-15808.0,-3904.0,2368.0
0.0425,-15808.0,-3840.0,2368.0
0.045,-15872.0,-3840.0,2432.0
0.0475,-15744.0,-3840.0,2368.0
0.05,-15808.0,-3904.0,2496.0
0.0525,-15872.0,-3840.0,2432.0
0.055,-15872.0,-3904.0,2496.0
0.0575,-15872.0,-3840.0,2496.0
0.06,-15808.0,-3840.0,2432.0
0.0625,-15808.0,-3840.0,2432.0
0.065,-15808.0,-3776.0,2496.0
0.0675,-15808.0,-3840.0,2496.0
0.07,-15872.0,-3840.0,2560.0
0.0725,-15872.0,-3840.0,2560.0
0.075,-15872.0,-3840.0,2560.0
0.0775,-15872.0,-3776.0,2496.0
0.08,-15872.0,-3712.0,2496.0
0.0825,-15872.0,-3776.0,2432.0
0.085,-15936.0,-3776.0,2496.0
0.0875,-15872.0,-3840.0,2432.0
0.09,-15872.0,-3840.0,2432.0
0.0925,-15936.0,-3840.0,2432.0
0.095,-15936.0,-3840.0,2496.0
0.0975,-15936.0,-3840.0,2496.0
0.1,-15936.0,-3840.0,2560.0
0.1025,-15936.0,-3840.0,2496.0
0.105,-16000.0,-3776.0,2496.0
0.1075,-16000.0,-3840.0,2496.0
0.11,-15936.0,-3840.0,2496.0
0.1125,-15936.0,-3840.0,2560.0
0.115,-16000.0,-3840.0,2560.0
0.1175,-15936.0,-3840.0,2560.0
0.12,-16000.0,-3904.0,2496.0
0.1225,-16000.0,-3904.0,2496.0
0.125,-16000.0,-3904.0,2496.0
0.1275,-16000.0,-3904.0,2496.0
0.13,-16064.0,-3840.0,2432.0
0.1325,-16000.0,-3840.0,2496.0
0.135,-16000.0,-3904.0,2496.0
0.1375,-16000.0,-3840.0,2496.0
0.14,-16000.0,-3840.0,2432.0
0.1425,-16064.0,-3840.0,2496.0
0.145,-16000.0,-3840.0,2496.0
0.1475,-16000.0,-3840.0,2496.0
0.15,-16000.0,-3840.0,2496.0
0.1525,-16000.0,-3840.0,2432.0
0.155,-15936.0,-3840.0,2432.0
0.1575,-16000.0,-3776.0,2432.0
0.16,-16000.0,-3904.0,2432.0
0.1625,-16000.0,-3904.0,2368.0
0.165,-16000.0,-3840.0,2432.0
0.1675,-16064.0,-3904.0,2368.0
0.17,-16000.0,-3904.0,2368.0
0.1725,-16000.0,-3840.0,2432.0
0.175,-16064.0,-3904.0,2432.0
0.1775,-16000.0,-3840.0,2432.0
0.18,-16000.0,-3840.0,2496.0
0.1825,-15936.0,-3904.0,2496.0
0.185,-16000.0,-3904.0,2432.0
0.1875,-16000.0,-3968.0,2496.0
0.19,-16000.0,-3968.0,2560.0
0.1925,-15936.0,-3904.0,2496.0
0.195,-15936.0,-3904.0,2560.0
0.1975,-16000.0,-3904.0,2560.0
0.2,-15936.0,-3904.0,2496.0
0.2025,-15936.0,-3904.0,2624.0
0.205,-15872.0,-3904.0,2560.0
0.2075,-15872.0,-3904.0,2560.0
0.21,-15872.0,-3904.0,2560.0
0.2125,-15872.0,-3968.0,2496.0
0.215,-15872.0,-3904.0,2560.0
0.2175,-15872.0,-3904.0,2560.0
0.22,-15872.0,-3904.0,2496.0
0.2225,-15808.0,-3904.0,2560.0
0.225,-15808.0,-3904.0,2560.0
0.2275,-15808.0,-3968.0,2496.0
0.23,-15744.0,-3904.0,2560.0
0.2325,-15808.0,-3840.0,2560.0
0.235,-15872.0,-3840.0,2560.0
0.2375,-15872.0,-3904.0,2560.0
0.24,-15808.0,-3840.0,2560.0
0.2425,-15808.0,-3840.0,2560.0
0.245,-15808.0,-3968.0,2496.0
0.2475,-15808.0,-3840.0,2560.0
0.25,-15808.0,-3904.0,2496.0
0.2525,-15744.0,-3840.0,2496.0
0.255,-15808.0,-3840.0,2496.0
0.2575,-15872.0,-3776.0,2560.0
0.26,-15872.0,-3840.0,2560.0
0.2625,-15872.0,-3840.0,2560.0
0.265,-15872.0,-3840.0,2560.0
0.2675,-15936.0,-3840.0,2560.0
0.27,-15872.0,-3840.0,2496.0
0.2725,-15936.0,-3776.0,2496.0
0.275,-15872.0,-3840.0,2432.0
0.2775,-15936.0,-3840.0,2496.0
0.28,-15936.0,-3776.0,2496.0
0.2825,-15936.0,-3840.0,2496.0
0.285,-16000.0,-3840.0,2496.0
0.2875,-16000.0,-3840.0,2496.0
0.29,-16064.0,-3840.0,2496.0
0.2925,-16000.0,-3904.0,2496.0
0.295,-16000.0,-3904.0,2560.0
0.2975,-16064.0,-3968.0,2560.0
0.3,-16064.0,-3904.0,2496.0
0.3025,-16000.0,-3904.0,2496.0
0.305,-15936.0,-3904.0,2496.0
0.3075,-15936.0,-3904.0,2496.0
0.31,-16000.0,-3904.0,2432.0
0.3125,-15936.0,-3904.0,2496.0
0.315,-15936.0,-3840.0,2496.0
0.3175,-15936.0,-3904.0,2560.0
0.32,-15936.0,-3904.0,2496.0
0.3225,-15936.0,-3904.0,2432.0
0.325,-15872.0,-3840.0,2368.0
0.3275,-15936.0,-3840.0,2432.0
0.33,-15936.0,-3904.0,2496.0
0.3325,-16000.0,-3904.0,2496.0
0.335,-16000.0,-3904.0,2432.0
0.3375,-15936.0,-3904.0,2368.0
0.34,-15936.0,-3968.0,2368.0
0.3425,-15936.0,-3904.0,2368.0
0.345,-15872.0,-3840.0,2432.0
0.3475,-15872.0,-3840.0,2432.0
0.35,-15872.0,-3840.0,2368.0
0.3525,-15872.0,-3840.0,2368.0
0.355,-15936.0,-3904.0,2368.0
0.3575,-15872.0,-3840.0,2368.0
0.36,-15872.0,-3840.0,2304.0
0.3625,-15872.0,-3904.0,2368.0
0.365,-15936.0,-3904.0,2368.0
0.3675,-15936.0,-3840.0,2432.0
0.37,-15872.0,-3840.0,2496.0
0.3725,-15872.0,-3904.0,2496.0
0.375,-15936.0,-3840.0,2432.0
0.3775,-15936.0,-3840.0,2432.0
0.38,-15936.0,-3904.0,2368.0
0.3825,-15936.0,-3840.0,2432.0
0.385,-15872.0,-3776.0,2432.0
0.3875,-15936.0,-3904.0,2432.0
0.39,-16000.0,-3904.0,2496.0
0.3925,-15936.0,-3904.0,2496.0
0.395,-15936.0,-3904.0,2368.0
0.3975,-15936.0,-3904.0,2368.0
0.4,-15936.0,-3840.0,2496.0
0.4025,-15936.0,-3840.0,2432.0
0.405,-15872.0,-3904.0,2432.0
0.4075,-15808.0,-3840.0,2304.0
0.41,-15936.0,-3904.0,2432.0
0.4125,-15936.0,-3904.0,2368.0
0.415,-15936.0,-3840.0,2432.0
0.4175,-15936.0,-3840.0,2496.0
0.42,-15872.0,-3904.0,2432.0
0.4225,-15936.0,-3904.0,2496.0
0.425,-15936.0,-3904.0,2368.0
0.4275,-15936.0,-3904.0,2368.0
0.43,-15936.0,-3904.0,2304.0
0.4325,-15936.0,-3904.0,2304.0
0.435,-15936.0,-3904.0,2368.0
0.4375,-15872.0,-3840.0,2432.0
0.44,-15872.0,-3776.0,2368.0
0.4425,-15936.0,-3840.0,2304.0
0.445,-15936.0,-3776.0,2432.0
0.4475,-15872.0,-3840.0,2368.0
0.45,-15872.0,-3840.0,2368.0
0.4525,-15872.0,-3904.0,2432.0
0.455,-15872.0,-3904.0,2368.0
0.4575,-15936.0,-3904.0,2304.0
0.46,-15936.0,-3904.0,2240.0
0.4625,-15808.0,-3904.0,2304.0
0.465,-15872.0,-3904.0,2368.0
0.4675,-15872.0,-3904.0,2368.0
0.47,-15872.0,-3840.0,2368.0
0.4725,-15872.0,-3904.0,2304.0
0.475,-15808.0,-3904.0,2304.0
0.4775,-15808.0,-3904.0,2368.0
0.48,-15808.0,-3904.0,2368.0
0.4825,-15808.0,-3904.0,2368.0
0.485,-15872.0,-3904.0,2432.0
0.4875,-15872.0,-3904.0,2368.0
0.49,-15872.0,-3904.0,2432.0
0.4925,-15872.0,-3904.0,2368.0
0.495,-15872.0,-3904.0,2432.0
0.4975,-15872.0,-3904.0,2432.0
0.5,-15872.0,-3904.0,2432.0
0.5025,-15872.0,-3840.0,2304.0
0.505,-15808.0,-3904.0,2240.0
0.5075,-15808.0,-3840.0,2368.0
0.51,-15872.0,-3840.0,2368.0
0.5125,-15872.0,-3840.0,2304.0
0.515,-15872.0,-3904.0,2368.0
0.5175,-15872.0,-3840.0,2368.0
0.52,-15872.0,-3840.0,2368.0
0.5225,-15936.0,-3904.0,2432.0
0.525,-15872.0,-3904.0,2432.0
0.5275,-15872.0,-3840.0,2432.0
0.53,-15936.0,-3904.0,2432.0
0.5325,-15936.0,-3840.0,2496.0
0.535,-15936.0,-3840.0,2432.0
0.5375,-15936.0,-3904.0,2496.0
0.54,-15936.0,-3840.0,2496.0
0.5425,-15936.0,-3904.0,2496.0
0.545,-15936.0,-3840.0,2432.0
0.5475,-15936.0,-3840.0,2432.0
0.55,-15936.0,-3776.0,2496.0
0.5525,-15936.0,-3840.0,2432.0
0.555,-16000.0,-3968.0,2432.0
0.5575,-16000.0,-3904.0,2432.0
0.56,-15936.0,-3840.0,2432.0
0.5625,-15936.0,-3840.0,2432.0
0.565,-15872.0,-3840.0,2432.0
0.5675,-15872.0,-3840.0,2432.0
0.57,-15936.0,-3840.0,2432.0
0.5725,-15872.0,-3840.0,2432.0
0.575,-15936.0,-3840.0,2432.0
0.5775,-15872.0,-3904.0,2432.0
0.58,-15872.0,-3840.0,2496.0
0.5825,-15936.0,-3840.0,2432.0
0.585,-15936.0,-3840.0,2496.0
0.5875,-16000.0,-3840.0,2496.0
0.59,-16000.0,-3840.0,2496.0
0.5925,-16000.0,-3840.0,2496.0
0.595,-16000.0,-3840.0,2496.0
0.5975,-15936.0,-3840.0,2496.0
0.6,-15936.0,-3840.0,2432.0
0.6025,-15936.0,-3840.0,2560.0
0.605,-15872.0,-3904.0,2560.0
0.6075,-15936.0,-3904.0,2560.0
0.61,-15936.0,-3904.0,2560.0
0.6125,-15936.0,-3904.0,2560.0
0.615,-15872.0,-3904.0,2496.0
0.6175,-15872.0,-3840.0,2496.0
0.62,-15872.0,-3904.0,2496.0
0.6225,-15872.0,-3904.0,2496.0
0.625,-15872.0,-3904.0,2560.0
0.6275,-15872.0,-3840.0,2496.0
0.63,-15872.0,-3840.0,2496.0
0.6325,-15872.0,-3904.0,2368.0
0.635,-15872.0,-3904.0,2368.0
0.6375,-15808.0,-3904.0,2368.0
0.64,-15872.0,-3904.0,2496.0
0.6425,-15872.0,-3904.0,2368.0
0.645,-15808.0,-3904.0,2496.0
0.6475,-15808.0,-3904.0,2496.0
0.65,-15744.0,-3904.0,2496.0
0.6525,-15744.0,-3904.0,2496.0
0.655,-15744.0,-3840.0,2496.0
0.6575,-15744.0,-3904.0,2432.0
0.66,-15744.0,-3840.0,2496.0
0.6625,-15808.0,-3904.0,2496.0
0.665,-15744.0,-3840.0,2560.0
0.6675,-15808.0,-3840.0,2560.0
0.67,-15744.0,-3904.0,2560.0
0.6725,-15808.0,-3904.0,2560.0
0.675,-15808.0,-3904.0,2496.0
0.6775,-15808.0,-3904.0,2496.0
0.68,-15808.0,-3904.0,2560.0
0.6825,-15808.0,-3904.0,2496.0
0.685,-15808.0,-3904.0,2560.0
0.6875,-15872.0,-3904.0,2496.0
0.69,-15872.0,-3904.0,2496.0
0.6925,-15936.0,-3968.0,2496.0
0.695,-15872.0,-3904.0,2496.0
0.6975,-15936.0,-3904.0,2560.0
0.7,-15936.0,-3904.0,2560.0
0.7025,-15936.0,-3904.0,2560.0
0.705,-15936.0,-3968.0,2496.0
0.7075,-15936.0,-3904.0,2560.0
0.71,-15936.0,-3904.0,2624.0
0.7125,-15936.0,-3904.0,2560.0
0.715,-15936.0,-3904.0,2560.0
0.7175,-15936.0,-3904.0,2560.0
0.72,-16000.0,-3968.0,2496.0
0.7225,-16064.0,-3904.0,2560.0
0.725,-16064.0,-3904.0,2560.0
0.7275,-16000.0,-3904.0,2560.0
0.73,-16000.0,-3904.0,2496.0
0.7325,-16000.0,-3968.0,2560.0
0.735,-15936.0,-3968.0,2496.0
0.7375,-15936.0,-3968.0,2560.0
0.74,-15936.0,-3968.0,2432.0
0.7425,-15936.0,-3968.0,2432.0
0.745,-16000.0,-3968.0,2496.0
0.7475,-16000.0,-4032.0,2432.0
0.75,-15936.0,-4032.0,2432.0
0.7525,-15936.0,-3968.0,2560.0
0.755,-15936.0,-3968.0,2560.0
0.7575,-16000.0,-3968.0,2496.0
0.76,-16000.0,-3968.0,2496.0
0.7625,-16000.0,-3968.0,2496.0
0.765,-16000.0,-4032.0,2432.0
0.7675,-15936.0,-4096.0,2496.0
0.77,-16000.0,-4032.0,2496.0
0.7725,-16000.0,-4032.0,2624.0
0.775,-16000.0,-4032.0,2624.0
0.7775,-15936.0,-3968.0,2624.0
0.78,-15936.0,-3968.0,2624.0
0.7825,-15936.0,-3968.0,2560.0
0.785,-15936.0,-3968.0,2624.0
0.7875,-15872.0,-4032.0,2624.0
0.79,-15872.0,-4096.0,2624.0
0.7925,-15872.0,-4096.0,2560.0
0.795,-15872.0,-4160.0,2496.0
0.7975,-15936.0,-4224.0,2496.0
0.8,-15936.0,-4096.0,2560.0
0.8025,-15872.0,-4032.0,2560.0
0.805,-15936.0,-4032.0,2560.0
0.8075,-15872.0,-4032.0,2496.0
0.81,-15808.0,-4032.0,2560.0
0.8125,-15872.0,-4032.0,2688.0
0.815,-15808.0,-4032.0,2560.0
0.8175,-15808.0,-4032.0,2560.0
0.82,-15808.0,-4032.0,2560.0
0.8225,-15872.0,-4032.0,2496.0
0.825,-15872.0,-4032.0,2560.0
0.8275,-15808.0,-4032.0,2560.0
0.83,-15872.0,-3968.0,2560.0
0.8325,-15808.0,-4032.0,2432.0
0.835,-15808.0,-4032.0,2496.0
0.8375,-15872.0,-4032.0,2432.0
0.84,-15872.0,-4096.0,2496.0
0.8425,-15872.0,-4032.0,2560.0
0.845,-15808.0,-3968.0,2496.0
0.8475,-15872.0,-4032.0,2496.0
0.85,-15872.0,-3968.0,2560.0
0.8525,-15872.0,-3968.0,2496.0
0.855,-15872.0,-4032.0,2496.0
0.8575,-15872.0,-4032.0,2496.0
0.86,-15872.0,-4032.0,2496.0
0.8625,-15872.0,-4032.0,2560.0
0.865,-15936.0,-4096.0,2496.0
0.8675,-15936.0,-4032.0,2496.0
0.87,-15936.0,-4032.0,2496.0
0.8725,-15936.0,-4096.0,2432.0
0.875,-15936.0,-4032.0,2496.0
0.8775,-15936.0,-4032.0,2496.0
0.88,-15936.0,-4032.0,2496.0
0.8825,-15936.0,-4032.0,2432.0
0.885,-15936.0,-4032.0,2432.0
0.8875,-16000.0,-4032.0,2496.0
0.89,-16000.0,-4032.0,2496.0
0.8925,-15936.0,-4032.0,2496.0
0.895,-15936.0,-4032.0,2432.0
0.8975,-15872.0,-4032.0,2432.0
0.9,-15936.0,-4032.0,2560.0
0.9025,-15872.0,-4032.0,2560.0
0.905,-15872.0,-4032.0,2560.0
0.9075,-15936.0,-4096.0,2560.0
0.91,-15936.0,-4096.0,2560.0
0.9125,-15936.0,-4032.0,2496.0
0.915,-15872.0,-4032.0,2432.0
0.9175,-15936.0,-4032.0,2560.0
0.92,-16000.0,-4096.0,2496.0
0.9225,-15936.0,-4032.0,2496.0
0.925,-15936.0,-4032.0,2432.0
0.9275,-16000.0,-4032.0,2496.0
0.93,-15936.0,-4032.0,2432.0
0.9325,-15936.0,-4032.0,2496.0
0.935,-15936.0,-4032.0,2496.0
0.9375,-15936.0,-4096.0,2496.0
0.94,-15936.0,-4032.0,2496.0
0.9425,-15936.0,-4032.0,2496.0
0.945,-15872.0,-4032.0,2560.0
0.9475,-16000.0,-3968.0,2496.0
0.95,-16000.0,-3968.0,2432.0
0.9525,-16000.0,-3968.0,2560.0
0.955,-15936.0,-4032.0,2560.0
0.9575,-15936.0,-3968.0,2560.0
0.96,-15936.0,-3968.0,2560.0
0.9625,-15936.0,-3968.0,2496.0
0.965,-15936.0,-4032.0,2496.0
0.9675,-15936.0,-3968.0,2432.0
0.97,-15936.0,-3968.0,2496.0
0.9725,-15936.0,-4032.0,2496.0
0.975,-15936.0,-3968.0,2560.0
0.9775,-15936.0,-3968.0,2624.0
0.98,-15872.0,-4032.0,2496.0
0.9825,-15872.0,-4032.0,2496.0
0.985,-15872.0,-4032.0,2496.0
0.9875,-15872.0,-3968.0,2432.0
0.99,-15872.0,-4096.0,2496.0
0.9925,-15872.0,-4032.0,2560.0
0.995,-15872.0,-3968.0,2496.0
0.9975,-15872.0,-3968.0,2496.0
1.0,-15872.0,-3968.0,2496.0
1.0025,-15872.0,-3968.0,2496.0
1.005,-15872.0,-3968.0,2432.0
1.0075,-15872.0,-3968.0,2496.0
1.01,-15872.0,-3904.0,2496.0
1.0125,-15808.0,-3904.0,2560.0
1.015,-15808.0,-3904.0,2496.0
1.0175,-15808.0,-3968.0,2496.0
1.02,-15808.0,-3968.0,2560.0
1.0225,-15872.0,-3904.0,2496.0
1.025,-15872.0,-3904.0,2624.0
1.0275,-15808.0,-3904.0,2560.0
1.03,-15872.0,-3968.0,2560.0
1.0325,-15808.0,-3968.0,2560.0
1.035,-15808.0,-3968.0,2688.0
1.0375,-15808.0,-3968.0,2688.0
1.04,-15808.0,-3904.0,2688.0
1.0425,-15808.0,-3904.0,2624.0
1.045,-15808.0,-3968.0,2560.0
1.0475,-15744.0,-4032.0,2624.0
1.05,-15808.0,-4032.0,2624.0
1.0525,-15872.0,-3968.0,2624.0
1.055,-15808.0,-4032.0,2624.0
1.0575,-15808.0,-4032.0,2688.0
1.06,-15808.0,-4032.0,2624.0
1.0625,-15808.0,-3968.0,2624.0
1.065,-15808.0,-4032.0,2624.0
1.0675,-15744.0,-3968.0,2560.0
1.07,-15744.0,-3968.0,2496.0
1.0725,-15744.0,-4032.0,2560.0
1.075,-15744.0,-4032.0,2624.0
1.0775,-15744.0,-4032.0,2560.0
1.08,-15744.0,-3968.0,2560.0
1.0825,-15680.0,-3968.0,2560.0
1.085,-15680.0,-3968.0,2560.0
1.0875,-15680.0,-4032.0,2624.0
1.09,-15744.0,-3968.0,2624.0
1.0925,-15744.0,-3968.0,2624.0
1.095,-15744.0,-3968.0,2624.0
1.0975,-15744.0,-4032.0,2560.0
1.1,-15680.0,-4032.0,2560.0
1.1025,-15744.0,-4032.0,2560.0
1.105,-15744.0,-4032.0,2560.0
1.1075,-15744.0,-4032.0,2560.0
1.11,-15744.0,-4032.0,2496.0
1.1125,-15744.0,-3968.0,2560.0
1.115,-15744.0,-3968.0,2624.0
1.1175,-15744.0,-4032.0,2560.0
1.12,-15680.0,-4032.0,2752.0
1.1225,-15744.0,-3968.0,2624.0
1.125,-15744.0,-3968.0,2688.0
1.1275,-15744.0,-3904.0,2624.0
1.13,-15680.0,-3968.0,2624.0
1.1325,-15680.0,-4032.0,2688.0
1.135,-15744.0,-4032.0,2624.0
1.1375,-15744.0,-4032.0,2560.0
1.14,-15744.0,-4096.0,2624.0
1.1425,-15808.0,-4032.0,2624.0
1.145,-15744.0,-4032.0,2560.0
1.1475,-15808.0,-4032.0,2624.0
1.15,-15808.0,-4032.0,2624.0
1.1525,-15872.0,-4032.0,2560.0
1.155,-15872.0,-4096.0,2624.0
1.1575,-15808.0,-4096.0,2688.0
1.16,-15872.0,-4032.0,2624.0
1.1625,-15872.0,-4096.0,2560.0
1.165,-15872.0,-4096.0,2496.0
1.1675,-15808.0,-4032.0,2560.0
1.17,-15808.0,-4032.0,2496.0
1.1725,-15808.0,-4032.0,2560.0
1.175,-15808.0,-4032.0,2560.0
1.1775,-15808.0,-4032.0,2560.0
1.18,-15872.0,-4032.0,2496.0
1.1825,-15872.0,-4096.0,2432.0
1.185,-15936.0,-4160.0,2432.0
1.1875,-15872.0,-4096.0,2368.0
1.19,-15872.0,-4160.0,2368.0
1.1925,-15936.0,-4160.0,2432.0
1.195,-16000.0,-4160.0,2432.0
1.1975,-16000.0,-4096.0,2432.0
1.2,-15936.0,-4160.0,2432.0
1.2025,-15936.0,-4096.0,2368.0
1.205,-15872.0,-4096.0,2368.0
1.2075,-15872.0,-4096.0,2432.0
1.21,-15872.0,-4160.0,2432.0
1.2125,-15936.0,-4160.0,2496.0
1.215,-15872.0,-4160.0,2496.0
1.2175,-15872.0,-4160.0,2432.0
1.22,-15872.0,-4160.0,2496.0
1.2225,-15936.0,-4160.0,2496.0
1.225,-15872.0,-4096.0,2496.0
1.2275,-15872.0,-4096.0,2560.0
1.23,-15872.0,-4096.0,2496.0
1.2325,-15872.0,-4160.0,2432.0
1.235,-15872.0,-4096.0,2432.0
1.2375,-15872.0,-4160.0,2432.0
1.24,-15872.0,-4096.0,2432.0
1.2425,-15872.0,-4160.0,2368.0
1.245,-15872.0,-4096.0,2432.0
1.2475,-15808.0,-4096.0,2368.0
1.25,-15808.0,-4096.0,2368.0
1.2525,-15808.0,-4096.0,2368.0
1.255,-15872.0,-4096.0,2304.0
1.2575,-15872.0,-4096.0,2304.0
1.26,-15744.0,-4096.0,2368.0
1.2625,-15744.0,-4032.0,2368.0
1.265,-15744.0,-4032.0,2368.0
1.2675,-15808.0,-4032.0,2368.0
1.27,-15808.0,-4032.0,2368.0
1.2725,-15808.0,-4096.0,2432.0
1.275,-15808.0,-4096.0,2304.0
1.2775,-15872.0,-4032.0,2368.0
1.28,-15808.0,-4032.0,2304.0
1.2825,-15808.0,-4032.0,2368.0
1.285,-15808.0,-4096.0,2368.0
1.2875,-15808.0,-4096.0,2304.0
1.29,-15808.0,-4032.0,2368.0
1.2925,-15808.0,-4032.0,2304.0
1.295,-15872.0,-4032.0,2368.0
1.2975,-15808.0,-4096.0,2240.0
1.3,-15872.0,-4096.0,2368.0
1.3025,-15872.0,-4096.0,2432.0
1.305,-15872.0,-4032.0,2368.0
1.3075,-15872.0,-4032.0,2304.0
1.31,-15872.0,-4032.0,2304.0
1.3125,-15872.0,-4096.0,2240.0
1.315,-15872.0,-4096.0,2240.0
1.3175,-15872.0,-4032.0,2368.0
1.32,-15936.0,-4096.0,2432.0
1.3225,-15936.0,-4032.0,2368.0
1.325,-15872.0,-4096.0,2240.0
1.3275,-15936.0,-4096.0,2304.0
1.33,-15936.0,-4096.0,2304.0
1.3325,-15936.0,-4096.0,2304.0
1.335,-15936.0,-4096.0,2304.0
1.3375,-15936.0,-4160.0,2304.0
1.34,-15936.0,-4096.0,2304.0
1.3425,-15872.0,-4096.0,2368.0
1.345,-15936.0,-4096.0,2368.0
1.3475,-15872.0,-4096.0,2432.0
1.35,-15872.0,-4096.0,2432.0
1.3525,-15872.0,-4096.0,2368.0
1.355,-15872.0,-4096.0,2368.0
1.3575,-15872.0,-4096.0,2368.0
1.36,-15808.0,-4096.0,2304.0
1.3625,-15808.0,-4096.0,2304.0
1.365,-15808.0,-4096.0,2304.0
1.3675,-15808.0,-4160.0,2240.0
1.37,-15808.0,-4096.0,2304.0
1.3725,-15872.0,-4032.0,2304.0
1.375,-15872.0,-4032.0,2304.0
1.3775,-15872.0,-4096.0,2368.0
1.38,-15872.0,-4160.0,2368.0
1.3825,-15872.0,-4160.0,2368.0
1.385,-15808.0,-4096.0,2368.0
1.3875,-15808.0,-4032.0,2304.0
1.39,-15872.0,-4096.0,2432.0
1.3925,-15808.0,-4032.0,2368.0
1.395,-15808.0,-4032.0,2304.0
1.3975,-15872.0,-4096.0,2304.0
1.4,-15872.0,-4032.0,2368.0
1.4025,-15872.0,-4032.0,2432.0
1.405,-15872.0,-4096.0,2368.0
1.4075,-15872.0,-4096.0,2368.0
1.41,-15808.0,-4032.0,2368.0
1.4125,-15872.0,-4096.0,2304.0
1.415,-15872.0,-4096.0,2368.0
1.4175,-15808.0,-4096.0,2368.0
1.42,-15872.0,-4096.0,2304.0
1.4225,-15872.0,-4160.0,2304.0
1.425,-15872.0,-4160.0,2304.0
1.4275,-15808.0,-4096.0,2304.0
1.43,-15872.0,-4096.0,2432.0
1.4325,-15872.0,-4160.0,2432.0
1.435,-15808.0,-4096.0,2432.0
1.4375,-15808.0,-4096.0,2432.0
1.44,-15808.0,-4096.0,2432.0
1.4425,-15808.0,-4096.0,2432.0
1.445,-15808.0,-3968.0,2368.0
1.4475,-15744.0,-4032.0,2432.0
1.45,-15744.0,-4032.0,2496.0
1.4525,-15744.0,-4032.0,2496.0
1.455,-15808.0,-4032.0,2432.0
1.4575,-15744.0,-4096.0,2432.0
1.46,-15744.0,-4096.0,2432.0
1.4625,-15808.0,-4096.0,2368.0
1.465,-15808.0,-4096.0,2368.0
1.4675,-15808.0,-4096.0,2368.0
1.47,-15808.0,-4096.0,2368.0
1.4725,-15808.0,-4032.0,2304.0
1.475,-15872.0,-4032.0,2368.0
1.4775,-15872.0,-3968.0,2432.0
1.48,-15872.0,-4032.0,2496.0
1.4825,-15872.0,-4032.0,2432.0
1.485,-15808.0,-4032.0,2432.0
1.4875,-15808.0,-4096.0,2432.0
1.49,-15872.0,-4096.0,2368.0
1.4925,-15808.0,-4096.0,2368.0
1.495,-15808.0,-4032.0,2432.0
1.4975,-15872.0,-4032.0,2432.0
1.5,-15872.0,-4096.0,2368.0
1.5025,-15872.0,-4032.0,2496.0
1.505,-15872.0,-3968.0,2496.0
1.5075,-15936.0,-3968.0,2496.0
1.51,-15936.0,-4032.0,2496.0
1.5125,-15872.0,-4032.0,2496.0
1.515,-15872.0,-4032.0,2496.0
1.5175,-15936.0,-4032.0,2432.0
1.52,-15936.0,-4096.0,2432.0
1.5225,-16000.0,-4096.0,2496.0
1.525,-15936.0,-4032.0,2496.0
1.5275,-15936.0,-4096.0,2496.0
1.53,-16000.0,-4096.0,2496.0
1.5325,-16000.0,-4032.0,2432.0
1.535,-15936.0,-4096.0,2432.0
1.5375,-16000.0,-4032.0,2432.0
1.54,-16000.0,-4032.0,2432.0
1.5425,-15936.0,-4032.0,2368.0
1.545,-15936.0,-4032.0,2496.0
1.5475,-15872.0,-4032.0,2368.0
1.55,-15872.0,-4032.0,2432.0
1.5525,-15936.0,-4032.0,2432.0
1.555,-15936.0,-4096.0,2432.0
1.5575,-15936.0,-4096.0,2432.0
1.56,-15936.0,-4096.0,2432.0
1.5625,-15936.0,-4096.0,2496.0
1.565,-15936.0,-4096.0,2496.0
1.5675,-15936.0,-4096.0,2496.0
1.57,-15936.0,-4032.0,2496.0
1.5725,-15872.0,-4032.0,2560.0
1.575,-15936.0,-3968.0,2560.0
1.5775,-15936.0,-3968.0,2560.0
1.58,-15936.0,-3968.0,2560.0
1.5825,-15872.0,-3904.0,2624.0
1.585,-15936.0,-3968.0,2496.0
1.5875,-15872.0,-3968.0,2560.0
1.59,-15872.0,-3968.0,2624.0
1.5925,-15872.0,-3968.0,2496.0
1.595,-15872.0,-3968.0,2496.0
1.5975,-15872.0,-4032.0,2496.0
1.6,-15872.0,-4032.0,2304.0
1.6025,-15872.0,-4032.0,2432.0
1.605,-15936.0,-4032.0,2496.0
1.6075,-15936.0,-4032.0,2496.0
1.61,-15936.0,-4032.0,2432.0
1.6125,-15872.0,-3968.0,2432.0
1.615,-15872.0,-4032.0,2368.0
1.6175,-15808.0,-3968.0,2496.0
1.62,-15808.0,-4032.0,2368.0
1.6225,-15808.0,-4032.0,2432.0
1.625,-15808.0,-4032.0,2496.0
1.6275,-15808.0,-3968.0,2432.0
1.63,-15808.0,-3968.0,2496.0
1.6325,-15872.0,-3968.0,2496.0
1.635,-15808.0,-3968.0,2496.0
1.6375,-15808.0,-3904.0,2560.0
1.64,-15872.0,-3904.0,2560.0
1.6425,-15936.0,-3968.0,2496.0
1.645,-15872.0,-3968.0,2496.0
1.6475,-15872.0,-3968.0,2496.0
1.65,-15808.0,-3968.0,2560.0
1.6525,-15808.0,-3968.0,2432.0
1.655,-15808.0,-4032.0,2496.0
1.6575,-15872.0,-3968.0,2432.0
1.66,-15872.0,-4032.0,2432.0
1.6625,-15872.0,-3968.0,2496.0
1.665,-15872.0,-3968.0,2496.0
1.6675,-15936.0,-3968.0,2432.0
1.67,-15936.0,-3968.0,2432.0
1.6725,-15936.0,-4032.0,2432.0
1.675,-16000.0,-3968.0,2496.0
1.6775,-16000.0,-4032.0,2496.0
1.68,-15872.0,-4032.0,2496.0
1.6825,-15936.0,-3904.0,2496.0
1.685,-15872.0,-3968.0,2496.0
1.6875,-15872.0,-3968.0,2496.0
1.69,-15872.0,-3968.0,2496.0
1.6925,-15936.0,-3968.0,2432.0
1.695,-15872.0,-4032.0,2432.0
1.6975,-15872.0,-3904.0,2368.0
1.7,-15936.0,-3968.0,2368.0
1.7025,-15872.0,-3968.0,2496.0
1.705,-15872.0,-4032.0,2432.0
1.7075,-15872.0,-4032.0,2432.0
1.71,-15872.0,-3968.0,2432.0
1.7125,-15872.0,-3968.0,2432.0
1.715,-15872.0,-3968.0,2496.0
1.7175,-15808.0,-3968.0,2432.0
1.72,-15808.0,-3968.0,2432.0
1.7225,-15872.0,-3968.0,2432.0
1.725,-15872.0,-4032.0,2432.0
1.7275,-15872.0,-3968.0,2432.0
1.73,-15808.0,-3968.0,2496.0
1.7325,-15808.0,-3968.0,2432.0
1.735,-15808.0,-3968.0,2432.0
1.7375,-15808.0,-3968.0,2368.0
1.74,-15872.0,-3968.0,2368.0
1.7425,-15808.0,-3968.0,2368.0
1.745,-15872.0,-3968.0,2304.0
1.7475,-15872.0,-4032.0,2432.0
1.75,-15872.0,-4032.0,2304.0
1.7525,-15872.0,-3968.0,2240.0
1.755,-15872.0,-3968.0,2368.0
1.7575,-15936.0,-3968.0,2432.0
1.76,-15872.0,-3968.0,2496.0
1.7625,-15936.0,-3968.0,2368.0
1.765,-15936.0,-4032.0,2368.0
1.7675,-15936.0,-3968.0,2432.0
1.77,-16000.0,-3968.0,2368.0
1.7725,-15936.0,-3968.0,2368.0
1.775,-15936.0,-3968.0,2368.0
1.7775,-15936.0,-3968.0,2368.0
1.78,-15936.0,-3904.0,2432.0
1.7825,-16000.0,-3968.0,2368.0
1.785,-15936.0,-3968.0,2432.0
1.7875,-15936.0,-4032.0,2304.0
1.79,-15936.0,-3904.0,2368.0
1.7925,-16000.0,-3968.0,2368.0
1.795,-16000.0,-3968.0,2304.0
1.7975,-15936.0,-4032.0,2368.0
1.8,-16000.0,-3968.0,2304.0
1.8025,-15936.0,-3968.0,2304.0
1.805,-16000.0,-3968.0,2240.0
1.8075,-16000.0,-3968.0,2240.0
1.81,-15936.0,-4032.0,2240.0
1.8125,-15936.0,-3968.0,2240.0
1.815,-15936.0,-4032.0,2304.0
1.8175,-15872.0,-4032.0,2240.0
1.82,-15872.0,-4096.0,2240.0
1.8225,-15936.0,-4032.0,2368.0
1.825,-15936.0,-4032.0,2368.0
1.8275,-16000.0,-4032.0,2368.0
1.83,-15936.0,-3968.0,2432.0
1.8325,-15936.0,-3968.0,2432.0
1.835,-15936.0,-3968.0,2368.0
1.8375,-15936.0,-4032.0,2368.0
1.84,-15872.0,-4032.0,2368.0
1.8425,-15872.0,-4096.0,2368.0
1.845,-15808.0,-4032.0,2304.0
1.8475,-15872.0,-4032.0,2304.0
1.85,-15872.0,-4096.0,2304.0
1.8525,-15872.0,-4032.0,2368.0
1.855,-15872.0,-4032.0,2432.0
1.8575,-15808.0,-4032.0,2432.0
1.86,-15808.0,-4032.0,2432.0
1.8625,-15744.0,-4032.0,2432.0
1.865,-15808.0,-4032.0,2432.0
1.8675,-15872.0,-4032.0,2432.0
1.87,-15808.0,-4032.0,2432.0
1.8725,-15808.0,-4096.0,2368.0
1.875,-15808.0,-4032.0,2368.0
1.8775,-15872.0,-4096.0,2240.0
1.88,-15872.0,-4032.0,2304.0
1.8825,-15872.0,-4032.0,2304.0
1.885,-15808.0,-4032.0,2304.0
1.8875,-15808.0,-4032.0,2304.0
1.89,-15872.0,-4032.0,2304.0
1.8925,-15808.0,-4032.0,2304.0
1.895,-15808.0,-3968.0,2304.0
1.8975,-15872.0,-3968.0,2240.0
1.9,-15872.0,-4032.0,2304.0
1.9025,-15936.0,-3968.0,2304.0
1.905,-15872.0,-3968.0,2304.0
1.9075,-15872.0,-3968.0,2240.0
1.91,-15872.0,-3968.0,2240.0
1.9125,-15936.0,-3968.0,2304.0
1.915,-15936.0,-3968.0,2240.0
1.9175,-16000.0,-3904.0,2304.0
1.92,-16000.0,-3968.0,2304.0
1.9225,-16000.0,-3904.0,2304.0
1.925,-16064.0,-3904.0,2304.0
1.9275,-16000.0,-3968.0,2240.0
1.93,-16000.0,-3968.0,2240.0
1.9325,-16000.0,-3904.0,2304.0
1.935,-16064.0,-3904.0,2304.0
1.9375,-15936.0,-3904.0,2304.0
1.94,-16000.0,-3904.0,2304.0
1.9425,-15936.0,-3968.0,2304.0
1.945,-15936.0,-4032.0,2304.0
1.9475,-16000.0,-3968.0,2176.0
1.95,-16000.0,-3968.0,2304.0
1.9525,-16064.0,-3968.0,2304.0
1.955,-16064.0,-3968.0,2304.0
1.9575,-16000.0,-3968.0,2304.0
1.96,-16000.0,-3904.0,2368.0
1.9625,-16064.0,-3968.0,2240.0
1.965,-16000.0,-3968.0,2304.0
1.9675,-16064.0,-3968.0,2304.0
1.97,-16000.0,-3968.0,2368.0
1.9725,-15936.0,-4032.0,2368.0
1.975,-15936.0,-3968.0,2368.0
1.9775,-15936.0,-3968.0,2368.0
1.98,-15936.0,-3968.0,2368.0
1.9825,-15936.0,-3968.0,2368.0
1.985,-15936.0,-3968.0,2368.0
1.9875,-15872.0,-3968.0,2496.0
1.99,-15872.0,-3968.0,2496.0
1.9925,-15936.0,-3968.0,2432.0
1.995,-15936.0,-3968.0,2432.0
1.9975,-15936.0,-3904.0,2496.0
2.0,-15936.0,-3840.0,2368.0
2.0025,-15936.0,-3904.0,2496.0
2.005,-15936.0,-3904.0,2368.0
2.0075,-15872.0,-3904.0,2432.0
2.01,-15936.0,-3904.0,2432.0
2.0125,-15872.0,-3904.0,2496.0
2.015,-15872.0,-3904.0,2496.0
2.0175,-15872.0,-3904.0,2432.0
2.02,-15872.0,-3904.0,2432.0
2.0225,-15872.0,-3968.0,2368.0
2.025,-15872.0,-3968.0,2432.0
2.0275,-15872.0,-3904.0,2368.0
2.03,-15872.0,-3968.0,2304.0
2.0325,-15872.0,-3904.0,2368.0
2.035,-15872.0,-3904.0,2368.0
2.0375,-15872.0,-3904.0,2432.0
2.04,-15872.0,-3904.0,2432.0
2.0425,-15936.0,-3904.0,2496.0
2.045,-15936.0,-3904.0,2496.0
2.0475,-15936.0,-3904.0,2560.0
2.05,-15936.0,-3904.0,2496.0
2.0525,-15872.0,-3904.0,2496.0
2.055,-15936.0,-3904.0,2496.0
2.0575,-15872.0,-3904.0,2496.0
2.06,-15808.0,-3840.0,2432.0
2.0625,-15872.0,-3840.0,2496.0
2.065,-15872.0,-3840.0,2496.0
2.0675,-15872.0,-3840.0,2496.0
2.07,-15872.0,-3840.0,2432.0
2.0725,-15872.0,-3840.0,2496.0
2.075,-15872.0,-3840.0,2560.0
2.0775,-15936.0,-3904.0,2496.0
2.08,-15872.0,-3904.0,2496.0
2.0825,-15936.0,-3904.0,2432.0
2.085,-15936.0,-3904.0,2432.0
2.0875,-15936.0,-3904.0,2432.0
2.09,-15872.0,-3904.0,2368.0
2.0925,-15936.0,-3904.0,2432.0
2.095,-15936.0,-3904.0,2432.0
2.0975,-15936.0,-3904.0,2624.0
2.1,-16000.0,-3840.0,2560.0
2.1025,-15936.0,-3904.0,2432.0
2.105,-15936.0,-3904.0,2496.0
2.1075,-15936.0,-3904.0,2496.0
2.11,-15936.0,-3904.0,2560.0
2.1125,-15872.0,-3968.0,2560.0
2.115,-15808.0,-3904.0,2496.0
2.1175,-15872.0,-3904.0,2496.0
2.12,-15872.0,-3968.0,2432.0
2.1225,-15872.0,-3904.0,2560.0
2.125,-15936.0,-3904.0,2496.0
2.1275,-15936.0,-3968.0,2496.0
2.13,-15936.0,-3904.0,2432.0
2.1325,-15936.0,-3904.0,2432.0
2.135,-15872.0,-4032.0,2432.0
2.1375,-15872.0,-4032.0,2368.0
2.14,-15872.0,-4032.0,2432.0
2.1425,-15872.0,-3968.0,2368.0
2.145,-15872.0,-3968.0,2368.0
2.1475,-15872.0,-3968.0,2496.0
2.15,-15872.0,-3968.0,2368.0
2.1525,-15936.0,-3968.0,2432.0
2.155,-15872.0,-3968.0,2432.0
2.1575,-15872.0,-3904.0,2432.0
2.16,-15808.0,-3968.0,2432.0
2.1625,-15872.0,-3968.0,2432.0
2.165,-15872.0,-3904.0,2432.0
2.1675,-15872.0,-3968.0,2368.0
2.17,-15872.0,-3968.0,2304.0
2.1725,-15872.0,-3968.0,2368.0
2.175,-15808.0,-3968.0,2432.0
2.1775,-15808.0,-3968.0,2432.0
2.18,-15808.0,-3904.0,2368.0
2.1825,-15808.0,-3904.0,2368.0
2.185,-15808.0,-3968.0,2432.0
2.1875,-15872.0,-3968.0,2368.0
2.19,-15872.0,-3968.0,2368.0
2.1925,-15808.0,-3968.0,2432.0
2.195,-15808.0,-3968.0,2368.0
2.1975,-15808.0,-3968.0,2304.0
2.2,-15808.0,-3904.0,2368.0
2.2025,-15872.0,-3968.0,2368.0
2.205,-15872.0,-4032.0,2368.0
2.2075,-15872.0,-4032.0,2368.0
2.21,-15872.0,-4032.0,2304.0
2.2125,-15808.0,-4032.0,2304.0
2.215,-15872.0,-3904.0,2368.0
2.2175,-15872.0,-3968.0,2304.0
2.22,-15808.0,-3968.0,2304.0
2.2225,-15808.0,-3904.0,2240.0
2.225,-15808.0,-3904.0,2304.0
2.2275,-15808.0,-3904.0,2240.0
2.23,-15808.0,-3904.0,2240.0
2.2325,-15808.0,-3968.0,2368.0
2.235,-15808.0,-3968.0,2368.0
2.2375,-15808.0,-3904.0,2304.0
2.24,-15808.0,-3968.0,2368.0
2.2425,-15808.0,-4032.0,2304.0
2.245,-15808.0,-4032.0,2240.0
2.2475,-15872.0,-4096.0,2240.0
2.25,-15872.0,-4032.0,2240.0
2.2525,-15808.0,-4096.0,2240.0
2.255,-15872.0,-4032.0,2240.0
2.2575,-15872.0,-4032.0,2240.0
2.26,-15872.0,-4096.0,2304.0
2.2625,-15872.0,-4032.0,2368.0
2.265,-15872.0,-3968.0,2304.0
2.2675,-15872.0,-3968.0,2304.0
2.27,-15936.0,-3968.0,2368.0
2.2725,-16000.0,-3968.0,2368.0
2.275,-15936.0,-3968.0,2304.0
2.2775,-15936.0,-3968.0,2304.0
2.28,-15936.0,-4032.0,2304.0
2.2825,-15936.0,-3968.0,2304.0
2.285,-15936.0,-3968.0,2240.0
2.2875,-16000.0,-4032.0,2240.0
2.29,-15936.0,-4032.0,2240.0
2.2925,-16000.0,-4032.0,2240.0
2.295,-16000.0,-4032.0,2368.0
2.2975,-16000.0,-4032.0,2304.0
2.3,-16000.0,-4032.0,2304.0
2.3025,-16000.0,-3968.0,2304.0
2.305,-16000.0,-3904.0,2304.0
2.3075,-16000.0,-3968.0,2304.0
2.31,-16000.0,-4032.0,2368.0
2.3125,-16000.0,-3968.0,2368.0
2.315,-16000.0,-4032.0,2368.0
2.3175,-15936.0,-4032.0,2304.0
2.32,-16000.0,-4032.0,2240.0
2.3225,-16000.0,-3968.0,2304.0
2.325,-16000.0,-4032.0,2240.0
2.3275,-16000.0,-3968.0,2240.0
2.33,-16000.0,-3968.0,2240.0
2.3325,-16000.0,-3968.0,2304.0
2.335,-15936.0,-3968.0,2304.0
2.3375,-15936.0,-3968.0,2304.0
2.34,-15936.0,-3968.0,2304.0
2.3425,-15936.0,-3904.0,2240.0
2.345,-15936.0,-3968.0,2304.0
2.3475,-15936.0,-3904.0,2304.0
2.35,-15936.0,-3968.0,2304.0
2.3525,-15936.0,-3904.0,2432.0
2.355,-15936.0,-3904.0,2432.0
2.3575,-16000.0,-3904.0,2368.0
2.36,-15936.0,-3904.0,2304.0
2.3625,-15936.0,-3904.0,2368.0
2.365,-15936.0,-3904.0,2368.0
2.3675,-15936.0,-3840.0,2368.0
2.37,-15936.0,-3904.0,2368.0
2.3725,-15936.0,-3904.0,2368.0
2.375,-15936.0,-3904.0,2368.0
2.3775,-15936.0,-3904.0,2368.0
2.38,-15936.0,-3904.0,2432.0
2.3825,-15872.0,-3904.0,2368.0
2.385,-15936.0,-3904.0,2304.0
2.3875,-15872.0,-3904.0,2368.0
2.39,-15872.0,-3968.0,2432.0
2.3925,-15872.0,-3968.0,2368.0
2.395,-15872.0,-3968.0,2368.0
2.3975,-15936.0,-3904.0,2240.0
2.4,-15808.0,-3904.0,2304.0
2.4025,-15872.0,-3904.0,2368.0
2.405,-15872.0,-3904.0,2368.0
2.4075,-15872.0,-3840.0,2368.0
2.41,-15936.0,-3840.0,2368.0
2.4125,-15936.0,-3840.0,2304.0
2.415,-15872.0,-3776.0,2432.0
2.4175,-15872.0,-3840.0,2432.0
2.42,-15936.0,-3776.0,2432.0
2.4225,-16000.0,-3840.0,2432.0
2.425,-15936.0,-3840.0,2432.0
2.4275,-16000.0,-3840.0,2432.0
2.43,-16000.0,-3776.0,2432.0
2.4325,-15936.0,-3776.0,2432.0
2.435,-15936.0,-3776.0,2496.0
2.4375,-15936.0,-3776.0,2496.0
2.44,-15936.0,-3776.0,2432.0
2.4425,-15936.0,-3840.0,2432.0
2.445,-15936.0,-3840.0,2368.0
2.4475,-16000.0,-3776.0,2368.0
2.45,-16000.0,-3776.0,2432.0
2.4525,-16000.0,-3776.0,2496.0
2.455,-16000.0,-3776.0,2368.0
2.4575,-16000.0,-3776.0,2368.0
2.46,-16000.0,-3776.0,2432.0
2.4625,-15936.0,-3840.0,2432.0
2.465,-16000.0,-3840.0,2432.0
2.4675,-16000.0,-3776.0,2496.0
2.47,-16000.0,-3840.0,2432.0
2.4725,-16064.0,-3776.0,2496.0
2.475,-16000.0,-3840.0,2432.0
2.4775,-16000.0,-3840.0,2432.0
2.48,-16064.0,-3776.0,2496.0
2.4825,-16064.0,-3776.0,2560.0
2.485,-16064.0,-3776.0,2560.0
2.4875,-16064.0,-3776.0,2624.0
2.49,-16064.0,-3776.0,2624.0
2.4925,-16000.0,-3776.0,2624.0
2.495,-16000.0,-3776.0,2624.0
2.4975,-16064.0,-3776.0,2624.0
2.5,-16000.0,-3776.0,2624.0
2.5025,-16000.0,-3840.0,2688.0
2.505,-15936.0,-3776.0,2688.0
2.5075,-15936.0,-3840.0,2816.0
2.51,-16000.0,-3776.0,2752.0
2.5125,-15936.0,-3776.0,2688.0
2.515,-16000.0,-3840.0,2752.0
2.5175,-16064.0,-3840.0,2752.0
2.52,-16128.0,-3840.0,2752.0
2.5225,-16064.0,-3904.0,2688.0
2.525,-16064.0,-3904.0,2688.0
2.5275,-16000.0,-3904.0,2624.0
2.53,-16064.0,-3904.0,2624.0
2.5325,-16000.0,-3968.0,2688.0
2.535,-16000.0,-3968.0,2752.0
2.5375,-16000.0,-3968.0,2624.0
2.54,-16000.0,-3904.0,2688.0
2.5425,-16000.0,-3968.0,2688.0
2.545,-16000.0,-3904.0,2688.0
2.5475,-16000.0,-3968.0,2688.0
2.55,-15936.0,-3968.0,2688.0
2.5525,-16000.0,-3968.0,2624.0
2.555,-16000.0,-3968.0,2624.0
2.5575,-16000.0,-3968.0,2688.0
2.56,-16000.0,-3968.0,2688.0
2.5625,-16000.0,-3968.0,2688.0
2.565,-16000.0,-3904.0,2688.0
2.5675,-15936.0,-3968.0,2688.0
2.57,-15936.0,-4032.0,2624.0
2.5725,-15936.0,-3968.0,2624.0
2.575,-15872.0,-3968.0,2624.0
2.5775,-15872.0,-3968.0,2624.0
2.58,-15936.0,-3968.0,2688.0
2.5825,-15936.0,-3968.0,2624.0
2.585,-15936.0,-3968.0,2688.0
2.5875,-15936.0,-3968.0,2688.0
2.59,-15936.0,-3968.0,2688.0
2.5925,-15936.0,-3968.0,2688.0
2.595,-16000.0,-3968.0,2752.0
2.5975,-16000.0,-3968.0,2688.0
2.6,-16000.0,-3968.0,2752.0
2.6025,-15936.0,-3968.0,2752.0
2.605,-15936.0,-4032.0,2752.0
2.6075,-15936.0,-3968.0,2752.0
2.61,-16000.0,-3968.0,2688.0
2.6125,-15936.0,-3968.0,2688.0
2.615,-16000.0,-3968.0,2624.0
2.6175,-15936.0,-3968.0,2688.0
2.62,-16000.0,-4032.0,2624.0
2.6225,-16000.0,-3968.0,2688.0
2.625,-16000.0,-3968.0,2624.0
2.6275,-16000.0,-3968.0,2624.0
2.63,-16000.0,-3968.0,2560.0
2.6325,-16000.0,-3968.0,2624.0
2.635,-16000.0,-3904.0,2624.0
2.6375,-15936.0,-4032.0,2496.0
2.64,-16000.0,-4096.0,2432.0
2.6425,-16000.0,-4032.0,2496.0
2.645,-16000.0,-4096.0,2496.0
2.6475,-16000.0,-4032.0,2432.0
2.65,-16000.0,-4032.0,2432.0
2.6525,-16000.0,-4032.0,2432.0
2.655,-16000.0,-4096.0,2560.0
2.6575,-16064.0,-4096.0,2432.0
2.66,-16000.0,-4160.0,2432.0
2.6625,-16000.0,-4160.0,2368.0
2.665,-16064.0,-4224.0,2432.0
2.6675,-16064.0,-4224.0,2368.0
2.67,-16128.0,-4224.0,2304.0
2.6725,-16064.0,-4224.0,2432.0
2.675,-16000.0,-4224.0,2496.0
2.6775,-16000.0,-4224.0,2432.0
2.68,-16000.0,-4160.0,2432.0
2.6825,-16064.0,-4160.0,2496.0
2.685,-16064.0,-4160.0,2560.0
2.6875,-16000.0,-4160.0,2560.0
2.69,-16000.0,-4160.0,2560.0
2.6925,-16000.0,-4096.0,2496.0
2.695,-16000.0,-4160.0,2496.0
2.6975,-15936.0,-4160.0,2496.0
2.7,-15936.0,-4224.0,2496.0
2.7025,-15936.0,-4160.0,2496.0
2.705,-15936.0,-4224.0,2496.0
2.7075,-15936.0,-4288.0,2560.0
2.71,-16000.0,-4224.0,2496.0
2.7125,-15872.0,-4224.0,2368.0
2.715,-15872.0,-4160.0,2432.0
2.7175,-15936.0,-4224.0,2496.0
2.72,-15872.0,-4288.0,2496.0
2.7225,-15872.0,-4224.0,2432.0
2.725,-15808.0,-4224.0,2432.0
2.7275,-15872.0,-4288.0,2496.0
2.73,-15808.0,-4224.0,2432.0
2.7325,-15872.0,-4224.0,2496.0
2.735,-15808.0,-4224.0,2496.0
2.7375,-15872.0,-4288.0,2496.0
2.74,-15872.0,-4224.0,2432.0
2.7425,-15872.0,-4288.0,2496.0
2.745,-15872.0,-4288.0,2432.0
2.7475,-15872.0,-4288.0,2432.0
2.75,-15872.0,-4288.0,2432.0
2.7525,-15808.0,-4288.0,2432.0
2.755,-15808.0,-4288.0,2432.0
2.7575,-15872.0,-4352.0,2368.0
2.76,-15936.0,-4352.0,2368.0
2.7625,-15808.0,-4352.0,2432.0
2.765,-15872.0,-4352.0,2432.0
2.7675,-15872.0,-4416.0,2496.0
2.77,-15872.0,-4416.0,2496.0
2.7725,-15936.0,-4416.0,2432.0
2.775,-15936.0,-4480.0,2432.0
2.7775,-15872.0,-4416.0,2368.0
2.78,-15872.0,-4416.0,2368.0
2.7825,-15872.0,-4416.0,2496.0
2.785,-15872.0,-4352.0,2432.0
2.7875,-15872.0,-4352.0,2368.0
2.79,-15808.0,-4352.0,2368.0
2.7925,-15808.0,-4352.0,2368.0
2.795,-15808.0,-4352.0,2368.0
2.7975,-15808.0,-4352.0,2432.0
2.8,-15808.0,-4480.0,2304.0
2.8025,-15872.0,-4416.0,2368.0
2.805,-15808.0,-4416.0,2304.0
2.8075,-15808.0,-4416.0,2432.0
2.81,-15808.0,-4416.0,2368.0
2.8125,-15744.0,-4416.0,2432.0
2.815,-15744.0,-4544.0,2432.0
2.8175,-15680.0,-4480.0,2368.0
2.82,-15616.0,-4480.0,2368.0
2.8225,-15680.0,-4480.0,2432.0
2.825,-15680.0,-4480.0,2432.0
2.8275,-15744.0,-4416.0,2432.0
2.83,-15680.0,-4480.0,2432.0
2.8325,-15680.0,-4416.0,2432.0
2.835,-15680.0,-4480.0,2368.0
2.8375,-15680.0,-4416.0,2304.0
2.84,-15616.0,-4416.0,2368.0
2.8425,-15680.0,-4416.0,2304.0
2.845,-15616.0,-4416.0,2304.0
2.8475,-15552.0,-4480.0,2304.0
2.85,-15552.0,-4480.0,2304.0
2.8525,-15616.0,-4480.0,2304.0
2.855,-15616.0,-4480.0,2368.0
2.8575,-15552.0,-4480.0,2368.0
2.86,-15552.0,-4480.0,2368.0
2.8625,-15488.0,-4480.0,2304.0
2.865,-15488.0,-4480.0,2304.0
2.8675,-15488.0,-4480.0,2304.0
2.87,-15488.0,-4544.0,2304.0
2.8725,-15424.0,-4544.0,2432.0
2.875,-15424.0,-4544.0,2432.0
2.8775,-15424.0,-4480.0,2368.0
2.88,-15360.0,-4480.0,2432.0
2.8825,-15360.0,-4480.0,2368.0
2.885,-15424.0,-4416.0,2432.0
2.8875,-15488.0,-4416.0,2496.0
2.89,-15424.0,-4416.0,2560.0
2.8925,-15424.0,-4416.0,2560.0
2.895,-15424.0,-4416.0,2432.0
2.8975,-15424.0,-4416.0,2496.0
2.9,-15360.0,-4416.0,2560.0
2.9025,-15360.0,-4352.0,2496.0
2.905,-15360.0,-4416.0,2624.0
2.9075,-15360.0,-4416.0,2624.0
2.91,-15360.0,-4416.0,2560.0
2.9125,-15360.0,-4480.0,2560.0
2.915,-15360.0,-4416.0,2560.0
2.9175,-15360.0,-4480.0,2560.0
2.92,-15296.0,-4480.0,2560.0
2.9225,-15232.0,-4480.0,2688.0
2.925,-15296.0,-4480.0,2816.0
2.9275,-15232.0,-4480.0,2944.0
2.93,-15232.0,-4416.0,2944.0
2.9325,-15232.0,-4416.0,3008.0
2.935,-15232.0,-4416.0,3008.0
2.9375,-15232.0,-4416.0,3136.0
2.94,-15168.0,-4352.0,3136.0
2.9425,-15168.0,-4416.0,3200.0
2.945,-15168.0,-4480.0,3200.0
2.9475,-15104.0,-4416.0,3264.0
2.95,-15168.0,-4416.0,3264.0
2.9525,-15104.0,-4480.0,3264.0
2.955,-15104.0,-4480.0,3264.0
2.9575,-15168.0,-4416.0,3328.0
2.96,-15168.0,-4416.0,3264.0
2.9625,-15168.0,-4480.0,3264.0
2.965,-15168.0,-4480.0,3200.0
2.9675,-15104.0,-4480.0,3264.0
2.97,-15104.0,-4544.0,3392.0
2.9725,-15104.0,-4544.0,3392.0
2.975,-15040.0,-4608.0,3392.0
2.9775,-15040.0,-4608.0,3456.0
2.98,-15040.0,-4672.0,3520.0
2.9825,-15040.0,-4672.0,3456.0
2.985,-15040.0,-4736.0,3456.0
2.9875,-14976.0,-4736.0,3520.0
2.99,-14976.0,-4800.0,3648.0
2.9925,-14848.0,-4864.0,3712.0
2.995,-14848.0,-4864.0,3712.0
2.9975,-14848.0,-4992.0,3776.0
3.0,-14848.0,-5056.0,3776.0
3.0025,-14912.0,-5056.0,3776.0
3.005,-14912.0,-5056.0,3776.0
3.0075,-14976.0,-5056.0,3776.0
3.01,-15104.0,-5120.0,3712.0
3.0125,-15168.0,-5184.0,3712.0
3.015,-15232.0,-5184.0,3712.0
3.0175,-15296.0,-5184.0,3776.0
3.02,-15360.0,-5184.0,3712.0
3.0225,-15424.0,-5248.0,3712.0
3.025,-15488.0,-5376.0,3712.0
3.0275,-15552.0,-5312.0,3648.0
3.03,-15616.0,-5248.0,3712.0
3.0325,-15744.0,-5248.0,3712.0
3.035,-15744.0,-5248.0,3776.0
3.0375,-15808.0,-5312.0,3776.0
3.04,-15872.0,-5376.0,3840.0
3.0425,-15872.0,-5376.0,3840.0
3.045,-15936.0,-5440.0,3840.0
3.0475,-16000.0,-5504.0,3904.0
3.05,-16064.0,-5504.0,3904.0
3.0525,-16000.0,-5504.0,3904.0
3.055,-15936.0,-5504.0,3968.0
3.0575,-16000.0,-5504.0,3968.0
3.06,-16000.0,-5504.0,4032.0
3.0625,-15936.0,-5504.0,4032.0
3.065,-15872.0,-5504.0,3968.0
3.0675,-15872.0,-5504.0,4032.0
3.07,-15872.0,-5440.0,4032.0
3.0725,-15744.0,-5440.0,3968.0
3.075,-15744.0,-5440.0,3968.0
3.0775,-15680.0,-5376.0,3968.0
3.08,-15616.0,-5376.0,3840.0
3.0825,-15616.0,-5440.0,3904.0
3.085,-15552.0,-5440.0,3904.0
3.0875,-15488.0,-5440.0,3904.0
3.09,-15488.0,-5440.0,3904.0
3.0925,-15424.0,-5440.0,3904.0
3.095,-15360.0,-5504.0,3904.0
3.0975,-15360.0,-5504.0,3904.0
3.1,-15232.0,-5504.0,3904.0
3.1025,-15232.0,-5440.0,3840.0
3.105,-15296.0,-5440.0,3904.0
3.1075,-15232.0,-5440.0,3840.0
3.11,-15168.0,-5440.0,3840.0
3.1125,-15104.0,-5440.0,3840.0
3.115,-15104.0,-5504.0,3712.0
3.1175,-15104.0,-5504.0,3712.0
3.12,-15104.0,-5440.0,3648.0
3.1225,-15104.0,-5440.0,3584.0
3.125,-15104.0,-5504.0,3584.0
3.1275,-15168.0,-5440.0,3584.0
3.13,-15168.0,-5440.0,3520.0
3.1325,-15168.0,-5504.0,3520.0
3.135,-15168.0,-5504.0,3520.0
3.1375,-15104.0,-5568.0,3584.0
3.14,-15104.0,-5568.0,3520.0
3.1425,-15104.0,-5568.0,3520.0
3.145,-15040.0,-5568.0,3584.0
3.1475,-15040.0,-5504.0,3456.0
3.15,-15040.0,-5568.0,3520.0
3.1525,-14976.0,-5504.0,3520.0
3.155,-14976.0,-5504.0,3584.0
3.1575,-14976.0,-5568.0,3520.0
3.16,-14976.0,-5568.0,3584.0
3.1625,-14976.0,-5504.0,3584.0
3.165,-14976.0,-5504.0,3584.0
3.1675,-14976.0,-5504.0,3520.0
3.17,-14976.0,-5504.0,3456.0
3.1725,-14976.0,-5440.0,3456.0
3.175,-14976.0,-5440.0,3456.0
3.1775,-14912.0,-5440.0,3328.0
3.18,-14912.0,-5440.0,3392.0
3.1825,-14912.0,-5440.0,3328.0
3.185,-14848.0,-5440.0,3328.0
3.1875,-14848.0,-5504.0,3264.0
3.19,-14848.0,-5504.0,3264.0
3.1925,-14784.0,-5504.0,3264.0
3.195,-14784.0,-5568.0,3264.0
3.1975,-14720.0,-5568.0,3328.0
3.2,-14720.0,-5440.0,3392.0
3.2025,-14720.0,-5504.0,3392.0
3.205,-14656.0,-5440.0,3392.0
3.2075,-14656.0,-5440.0,3392.0
3.21,-14592.0,-5376.0,3328.0
3.2125,-14592.0,-5376.0,3328.0
3.215,-14592.0,-5504.0,3328.0
3.2175,-14592.0,-5568.0,3264.0
3.22,-14528.0,-5568.0,3328.0
3.2225,-14592.0,-5504.0,3328.0
3.225,-14528.0,-5504.0,3392.0
3.2275,-14528.0,-5568.0,3264.0
3.23,-14528.0,-5568.0,3264.0
3.2325,-14528.0,-5568.0,3328.0
3.235,-14592.0,-5504.0,3328.0
3.2375,-14592.0,-5568.0,3392.0
3.24,-14656.0,-5568.0,3392.0
3.2425,-14656.0,-5504.0,3392.0
3.245,-14656.0,-5440.0,3328.0
3.2475,-14656.0,-5440.0,3392.0
3.25,-14656.0,-5504.0,3328.0
3.2525,-14656.0,-5504.0,3392.0
3.255,-14656.0,-5568.0,3328.0
3.2575,-14656.0,-5568.0,3392.0
3.26,-14656.0,-5568.0,3392.0
3.2625,-14720.0,-5568.0,3328.0
3.265,-14656.0,-5568.0,3328.0
3.2675,-14656.0,-5504.0,3328.0
3.27,-14656.0,-5504.0,3200.0
3.2725,-14784.0,-5504.0,3264.0
3.275,-14784.0,-5568.0,3264.0
3.2775,-14784.0,-5696.0,3328.0
3.28,-14720.0,-5504.0,3264.0
3.2825,-14784.0,-5504.0,3264.0
3.285,-14784.0,-5504.0,3264.0
3.2875,-14720.0,-5568.0,3328.0
3.29,-14720.0,-5504.0,3328.0
3.2925,-14784.0,-5504.0,3328.0
3.295,-14784.0,-5568.0,3264.0
3.2975,-14784.0,-5568.0,3264.0
3.3,-14784.0,-5568.0,3264.0
3.3025,-14720.0,-5504.0,3264.0
3.305,-14720.0,-5504.0,3264.0
3.3075,-14720.0,-5440.0,3200.0
3.31,-14784.0,-5440.0,3200.0
3.3125,-14912.0,-5440.0,3264.0
3.315,-14976.0,-5440.0,3328.0
3.3175,-15040.0,-5440.0,3264.0
3.32,-15168.0,-5440.0,3200.0
3.3225,-15232.0,-5440.0,3200.0
3.325,-15296.0,-5440.0,3200.0
3.3275,-15488.0,-5504.0,3264.0
3.33,-15680.0,-5504.0,3200.0
3.3325,-15744.0,-5568.0,3264.0
3.335,-15936.0,-5568.0,3200.0
3.3375,-16128.0,-5632.0,3200.0
3.34,-16192.0,-5568.0,3264.0
3.3425,-16384.0,-5632.0,3264.0
3.345,-16512.0,-5568.0,3328.0
3.3475,-16640.0,-5696.0,3328.0
3.35,-16704.0,-5696.0,3264.0
3.3525,-16704.0,-5632.0,3264.0
3.355,-16832.0,-5632.0,3328.0
3.3575,-16896.0,-5568.0,3392.0
3.36,-16960.0,-5568.0,3392.0
3.3625,-17024.0,-5568.0,3328.0
3.365,-17024.0,-5568.0,3328.0
3.3675,-16960.0,-5568.0,3264.0
3.37,-16896.0,-5568.0,3136.0
3.3725,-16832.0,-5504.0,3200.0
3.375,-16896.0,-5568.0,3200.0
3.3775,-16832.0,-5504.0,3136.0
3.38,-16704.0,-5568.0,3136.0
3.3825,-16704.0,-5504.0,3072.0
3.385,-16512.0,-5504.0,2944.0
3.3875,-16448.0,-5440.0,3008.0
3.39,-16384.0,-5440.0,2944.0
3.3925,-16192.0,-5376.0,2880.0
3.395,-16128.0,-5312.0,2816.0
3.3975,-15936.0,-5248.0,2688.0
3.4,-15744.0,-5184.0,2688.0
3.4025,-15616.0,-5120.0,2688.0
3.405,-15488.0,-4992.0,2624.0
3.4075,-15296.0,-4864.0,2560.0
3.41,-15168.0,-4800.0,2688.0
3.4125,-15040.0,-4736.0,2624.0
3.415,-14976.0,-4608.0,2560.0
3.4175,-14784.0,-4544.0,2560.0
3.42,-14720.0,-4480.0,2560.0
3.4225,-14720.0,-4480.0,2496.0
3.425,-14656.0,-4416.0,2432.0
3.4275,-14592.0,-4416.0,2432.0
3.43,-14656.0,-4416.0,2432.0
3.4325,-14592.0,-4352.0,2496.0
3.435,-14592.0,-4352.0,2496.0
3.4375,-14656.0,-4352.0,2496.0
3.44,-14720.0,-4160.0,2496.0
3.4425,-14720.0,-4096.0,2368.0
3.445,-14784.0,-4096.0,2368.0
3.4475,-14784.0,-4096.0,2368.0
3.45,-14848.0,-3968.0,2368.0
3.4525,-14848.0,-3968.0,2240.0
3.455,-14848.0,-3968.0,2304.0
3.4575,-14976.0,-3968.0,2368.0
3.46,-14976.0,-3904.0,2432.0
3.4625,-14976.0,-3904.0,2368.0
3.465,-15104.0,-3904.0,2432.0
3.4675,-15168.0,-3968.0,2368.0
3.47,-15232.0,-3968.0,2304.0
3.4725,-15360.0,-3968.0,2240.0
3.475,-15360.0,-4032.0,2240.0
3.4775,-15424.0,-4032.0,2176.0
3.48,-15488.0,-4160.0,2112.0
3.4825,-15616.0,-4224.0,1920.0
3.485,-15744.0,-4224.0,1984.0
3.4875,-15808.0,-4288.0,1920.0
3.49,-15936.0,-4352.0,1856.0
3.4925,-16000.0,-4416.0,1792.0
3.495,-16064.0,-4480.0,1792.0
3.4975,-16192.0,-4544.0,1664.0
3.5,-16192.0,-4544.0,1600.0
3.5025,-16256.0,-4544.0,1600.0
3.505,-16320.0,-4544.0,1536.0
3.5075,-16384.0,-4608.0,1536.0
3.51,-16448.0,-4672.0,1664.0
3.5125,-16448.0,-4736.0,1664.0
3.515,-16448.0,-4800.0,1728.0
3.5175,-16512.0,-4736.0,1728.0
3.52,-16576.0,-4800.0,1856.0
3.5225,-16576.0,-4736.0,1856.0
3.525,-16640.0,-4736.0,1792.0
3.5275,-16640.0,-4736.0,1856.0
3.53,-16640.0,-4672.0,1856.0
3.5325,-16640.0,-4672.0,1856.0
3.535,-16704.0,-4544.0,1792.0
3.5375,-16640.0,-4480.0,1792.0
3.54,-16704.0,-4416.0,1856.0
3.5425,-16704.0,-4352.0,1984.0
3.545,-16704.0,-4352.0,2048.0
3.5475,-16768.0,-4288.0,2176.0
3.55,-16704.0,-4288.0,2176.0
3.5525,-16640.0,-4288.0,2240.0
3.555,-16704.0,-4224.0,2240.0
3.5575,-16704.0,-4224.0,2304.0
3.56,-16640.0,-4160.0,2368.0
3.5625,-16704.0,-4224.0,2304.0
3.565,-16704.0,-4224.0,2368.0
3.5675,-16640.0,-4288.0,2432.0
3.57,-16576.0,-4224.0,2496.0
3.5725,-16576.0,-4160.0,2496.0
3.575,-16512.0,-4160.0,2496.0
3.5775,-16448.0,-4160.0,2560.0
3.58,-16384.0,-4160.0,2560.0
3.5825,-16384.0,-4096.0,2624.0
3.585,-16320.0,-4096.0,2624.0
3.5875,-16256.0,-4160.0,2688.0
3.59,-16192.0,-4160.0,2688.0
3.5925,-16128.0,-4160.0,2688.0
3.595,-16128.0,-4288.0,2688.0
3.5975,-16064.0,-4160.0,2752.0
3.6,-16064.0,-4160.0,2816.0
3.6025,-16000.0,-4224.0,2688.0
3.605,-15936.0,-4160.0,2816.0
3.6075,-15936.0,-4224.0,2752.0
3.61,-15936.0,-4160.0,2688.0
3.6125,-15872.0,-4096.0,2816.0
3.615,-15936.0,-4096.0,2816.0
3.6175,-15872.0,-4160.0,2816.0
3.62,-15872.0,-4160.0,2816.0
3.6225,-15872.0,-4160.0,2816.0
3.625,-15936.0,-4224.0,2752.0
3.6275,-15936.0,-4224.0,2752.0
3.63,-15872.0,-4288.0,2752.0
3.6325,-15936.0,-4288.0,2816.0
3.635,-15936.0,-4288.0,2752.0
3.6375,-15872.0,-4288.0,2816.0
3.64,-15936.0,-4352.0,2752.0
3.6425,-15872.0,-4416.0,2816.0
3.645,-15872.0,-4352.0,2880.0
3.6475,-15936.0,-4416.0,2816.0
3.65,-15936.0,-4480.0,2816.0
3.6525,-15872.0,-4416.0,2816.0
3.655,-15872.0,-4416.0,2880.0
3.6575,-15872.0,-4416.0,2880.0
3.66,-15808.0,-4416.0,2880.0
3.6625,-15744.0,-4480.0,2880.0
3.665,-15744.0,-4480.0,2880.0
3.6675,-15744.0,-4480.0,2816.0
3.67,-15744.0,-4480.0,2816.0
3.6725,-15680.0,-4608.0,2880.0
3.675,-15680.0,-4544.0,2880.0
3.6775,-15616.0,-4608.0,2880.0
3.68,-15616.0,-4608.0,2944.0
3.6825,-15616.0,-4672.0,2944.0
3.685,-15616.0,-4672.0,2944.0
3.6875,-15552.0,-4672.0,2944.0
3.69,-15488.0,-4736.0,2944.0
3.6925,-15552.0,-4736.0,2816.0
3.695,-15488.0,-4736.0,2816.0
3.6975,-15424.0,-4736.0,2816.0
3.7,-15424.0,-4800.0,2752.0
3.7025,-15424.0,-4736.0,2816.0
3.705,-15424.0,-4800.0,2816.0
3.7075,-15488.0,-4800.0,2752.0
3.71,-15488.0,-4800.0,2752.0
3.7125,-15424.0,-4800.0,2752.0
3.715,-15488.0,-4864.0,2688.0
3.7175,-15488.0,-4800.0,2688.0
3.72,-15424.0,-4864.0,2752.0
3.7225,-15488.0,-4864.0,2752.0
3.725,-15424.0,-4864.0,2752.0
3.7275,-15424.0,-4800.0,2816.0
3.73,-15424.0,-4736.0,2752.0
3.7325,-15424.0,-4736.0,2816.0
3.735,-15424.0,-4672.0,2816.0
3.7375,-15424.0,-4800.0,2816.0
3.74,-15424.0,-4800.0,2816.0
3.7425,-15424.0,-4736.0,2752.0
3.745,-15488.0,-4736.0,2816.0
3.7475,-15488.0,-4800.0,2816.0
3.75,-15488.0,-4800.0,2816.0
3.7525,-15552.0,-4800.0,2752.0
3.755,-15488.0,-4800.0,2752.0
3.7575,-15552.0,-4800.0,2752.0
3.76,-15552.0,-4928.0,2752.0
3.7625,-15616.0,-4864.0,2816.0
3.765,-15552.0,-4800.0,2752.0
3.7675,-15552.0,-4864.0,2816.0
3.77,-15552.0,-4864.0,2816.0
3.7725,-15552.0,-4864.0,2816.0
3.775,-15488.0,-4864.0,2880.0
3.7775,-15424.0,-4864.0,2816.0
3.78,-15424.0,-4928.0,2880.0
3.7825,-15424.0,-4928.0,2880.0
3.785,-15424.0,-4928.0,2816.0
3.7875,-15424.0,-4928.0,2880.0
3.79,-15424.0,-4864.0,2816.0
3.7925,-15360.0,-4928.0,2752.0
3.795,-15360.0,-4928.0,2752.0
3.7975,-15360.0,-4928.0,2752.0
3.8,-15360.0,-4992.0,2688.0
3.8025,-15360.0,-4992.0,2624.0
3.805,-15360.0,-5056.0,2624.0
3.8075,-15424.0,-5056.0,2560.0
3.81,-15424.0,-4992.0,2624.0
3.8125,-15424.0,-4992.0,2560.0
3.815,-15424.0,-4992.0,2560.0
3.8175,-15424.0,-5056.0,2624.0
3.82,-15360.0,-4992.0,2560.0
3.8225,-15424.0,-4928.0,2560.0
3.825,-15424.0,-4992.0,2624.0
3.8275,-15488.0,-5056.0,2624.0
3.83,-15488.0,-5056.0,2624.0
3.8325,-15552.0,-5120.0,2624.0
3.835,-15552.0,-5056.0,2624.0
3.8375,-15552.0,-5056.0,2688.0
3.84,-15488.0,-5120.0,2688.0
3.8425,-15424.0,-5120.0,2688.0
3.845,-15488.0,-5184.0,2624.0
3.8475,-15488.0,-5120.0,2560.0
3.85,-15424.0,-5184.0,2560.0
3.8525,-15552.0,-5184.0,2560.0
3.855,-15552.0,-5184.0,2560.0
3.8575,-15616.0,-5184.0,2496.0
3.86,-15552.0,-5184.0,2496.0
3.8625,-15552.0,-5120.0,2496.0
3.865,-15488.0,-5120.0,2496.0
3.8675,-15552.0,-5056.0,2432.0
3.87,-15552.0,-5056.0,2496.0
3.8725,-15488.0,-5056.0,2496.0
3.875,-15552.0,-5120.0,2496.0
3.8775,-15616.0,-5120.0,2496.0
3.88,-15616.0,-5120.0,2496.0
3.8825,-15616.0,-5120.0,2496.0
3.885,-15680.0,-5120.0,2496.0
3.8875,-15744.0,-5120.0,2368.0
3.89,-15808.0,-5120.0,2368.0
3.8925,-15808.0,-5184.0,2496.0
3.895,-15872.0,-5184.0,2432.0
3.8975,-15936.0,-5184.0,2496.0
3.9,-15936.0,-5184.0,2496.0
3.9025,-15936.0,-5248.0,2560.0
3.905,-15936.0,-5184.0,2496.0
3.9075,-16000.0,-5184.0,2496.0
3.91,-16128.0,-5248.0,2496.0
3.9125,-16128.0,-5248.0,2496.0
3.915,-16128.0,-5248.0,2496.0
3.9175,-16128.0,-5248.0,2496.0
3.92,-16192.0,-5376.0,2496.0
3.9225,-16320.0,-5376.0,2560.0
3.925,-16320.0,-5376.0,2496.0
3.9275,-16384.0,-5440.0,2496.0
3.93,-16384.0,-5440.0,2496.0
3.9325,-16512.0,-5440.0,2432.0
3.935,-16512.0,-5504.0,2432.0
3.9375,-16512.0,-5504.0,2368.0
3.94,-16576.0,-5568.0,2432.0
3.9425,-16576.0,-5504.0,2304.0
3.945,-16576.0,-5504.0,2304.0
3.9475,-16640.0,-5568.0,2304.0
3.95,-16640.0,-5568.0,2304.0
3.9525,-16640.0,-5632.0,2368.0
3.955,-16704.0,-5632.0,2368.0
3.9575,-16768.0,-5632.0,2368.0
3.96,-16768.0,-5568.0,2304.0
3.9625,-16768.0,-5632.0,2304.0
3.965,-16832.0,-5568.0,2304.0
3.9675,-16832.0,-5632.0,2432.0
3.97,-16768.0,-5632.0,2432.0
3.9725,-16704.0,-5568.0,2368.0
3.975,-16768.0,-5632.0,2432.0
3.9775,-16704.0,-5632.0,2496.0
3.98,-16768.0,-5632.0,2560.0
3.9825,-16768.0,-5696.0,2496.0
3.985,-16768.0,-5696.0,2496.0
3.9875,-16768.0,-5760.0,2624.0
3.99,-16832.0,-5696.0,2560.0
3.9925,-16768.0,-5696.0,2560.0
3.995,-16768.0,-5696.0,2560.0
3.9975,-16768.0,-5632.0,2560.0
4.0,-16768.0,-5632.0,2624.0
4.0025,-16768.0,-5632.0,2560.0
4.005,-16704.0,-5568.0,2560.0
4.0075,-16640.0,-5568.0,2624.0
4.01,-16640.0,-5568.0,2624.0
4.0125,-16640.0,-5504.0,2688.0
4.015,-16640.0,-5568.0,2624.0
4.0175,-16512.0,-5568.0,2752.0
4.02,-16448.0,-5568.0,2752.0
4.0225,-16384.0,-5632.0,2688.0
4.025,-16320.0,-5568.0,2688.0
4.0275,-16256.0,-5504.0,2624.0
4.03,-16192.0,-5568.0,2624.0
4.0325,-16064.0,-5568.0,2624.0
4.035,-16064.0,-5568.0,2496.0
4.0375,-16000.0,-5568.0,2496.0
4.04,-15936.0,-5568.0,2496.0
4.0425,-15808.0,-5504.0,2496.0
4.045,-15808.0,-5504.0,2496.0
4.0475,-15680.0,-5504.0,2496.0
4.05,-15680.0,-5440.0,2368.0
4.0525,-15552.0,-5440.0,2432.0
4.055,-15488.0,-5440.0,2368.0
4.0575,-15488.0,-5440.0,2368.0
4.06,-15424.0,-5440.0,2368.0
4.0625,-15360.0,-5440.0,2368.0
4.065,-15296.0,-5376.0,2368.0
4.0675,-15296.0,-5440.0,2368.0
4.07,-15168.0,-5376.0,2496.0
4.0725,-15168.0,-5312.0,2496.0
4.075,-15168.0,-5312.0,2496.0
4.0775,-15104.0,-5312.0,2432.0
4.08,-14976.0,-5376.0,2496.0
4.0825,-15040.0,-5376.0,2560.0
4.085,-14976.0,-5312.0,2432.0
4.0875,-14912.0,-5312.0,2560.0
4.09,-14912.0,-5312.0,2496.0
4.0925,-14848.0,-5312.0,2560.0
4.095,-14784.0,-5312.0,2560.0
4.0975,-14784.0,-5312.0,2624.0
4.1,-14720.0,-5312.0,2624.0
4.1025,-14720.0,-5248.0,2560.0
4.105,-14720.0,-5248.0,2624.0
4.1075,-14720.0,-5312.0,2688.0
4.11,-14656.0,-5248.0,2560.0
4.1125,-14720.0,-5248.0,2624.0
4.115,-14656.0,-5312.0,2560.0
4.1175,-14656.0,-5312.0,2560.0
4.12,-14656.0,-5312.0,2624.0
4.1225,-14656.0,-5312.0,2688.0
4.125,-14720.0,-5312.0,2624.0
4.1275,-14720.0,-5376.0,2688.0
4.13,-14656.0,-5248.0,2688.0
4.1325,-14656.0,-5248.0,2752.0
4.135,-14720.0,-5248.0,2816.0
4.1375,-14784.0,-5248.0,2816.0
4.14,-14720.0,-5248.0,2752.0
4.1425,-14784.0,-5248.0,2752.0
4.145,-14784.0,-5248.0,2816.0
4.1475,-14784.0,-5248.0,2816.0
4.15,-14784.0,-5248.0,2816.0
4.1525,-14720.0,-5248.0,2816.0
4.155,-14720.0,-5312.0,2880.0
4.1575,-14656.0,-5312.0,2880.0
4.16,-14656.0,-5248.0,2880.0
4.1625,-14592.0,-5248.0,2752.0
4.165,-14592.0,-5248.0,2880.0
4.1675,-14656.0,-5248.0,2880.0
4.17,-14656.0,-5312.0,2816.0
4.1725,-14592.0,-5312.0,2816.0
4.175,-14592.0,-5312.0,2816.0
4.1775,-14528.0,-5312.0,2816.0
4.18,-14528.0,-5312.0,2752.0
4.1825,-14592.0,-5248.0,2752.0
4.185,-14592.0,-5312.0,2752.0
4.1875,-14528.0,-5248.0,2752.0
4.19,-14464.0,-5248.0,2816.0
4.1925,-14528.0,-5248.0,2816.0
4.195,-14592.0,-5248.0,2752.0
4.1975,-14528.0,-5248.0,2688.0
4.2,-14528.0,-5248.0,2752.0
4.2025,-14592.0,-5312.0,2752.0
4.205,-14656.0,-5376.0,2752.0
4.2075,-14720.0,-5376.0,2752.0
4.21,-14784.0,-5376.0,2688.0
4.2125,-14784.0,-5440.0,2752.0
4.215,-14848.0,-5440.0,2624.0
4.2175,-14912.0,-5440.0,2752.0
4.22,-14976.0,-5376.0,2688.0
4.2225,-15040.0,-5376.0,2816.0
4.225,-15040.0,-5376.0,2688.0
4.2275,-15104.0,-5376.0,2752.0
4.23,-15168.0,-5376.0,2688.0
4.2325,-15168.0,-5440.0,2688.0
4.235,-15232.0,-5440.0,2624.0
4.2375,-15296.0,-5440.0,2624.0
4.24,-15424.0,-5440.0,2560.0
4.2425,-15424.0,-5440.0,2624.0
4.245,-15424.0,-5504.0,2560.0
4.2475,-15488.0,-5312.0,2432.0
4.25,-15552.0,-5312.0,2432.0
4.2525,-15552.0,-5312.0,2496.0
4.255,-15552.0,-5440.0,2496.0
4.2575,-15552.0,-5504.0,2560.0
4.26,-15616.0,-5568.0,2432.0
4.2625,-15616.0,-5504.0,2432.0
4.265,-15744.0,-5504.0,2560.0
4.2675,-15744.0,-5440.0,2560.0
4.27,-15744.0,-5376.0,2624.0
4.2725,-15744.0,-5312.0,2752.0
4.275,-15744.0,-5312.0,2624.0
4.2775,-15744.0,-5504.0,2624.0
4.28,-15808.0,-5568.0,2560.0
4.2825,-15936.0,-5568.0,2560.0
4.285,-16000.0,-5504.0,2624.0
4.2875,-16000.0,-5504.0,2560.0
4.29,-15936.0,-5504.0,2624.0
4.2925,-15936.0,-5440.0,2624.0
4.295,-15936.0,-5440.0,2560.0
4.2975,-15872.0,-5440.0,2560.0
4.3,-15808.0,-5440.0,2560.0
4.3025,-15808.0,-5440.0,2560.0
4.305,-15744.0,-5440.0,2496.0
4.3075,-15680.0,-5440.0,2432.0
4.31,-15616.0,-5440.0,2496.0
4.3125,-15616.0,-5568.0,2432.0
4.315,-15616.0,-5568.0,2560.0
4.3175,-15552.0,-5504.0,2624.0
4.32,-15424.0,-5376.0,2752.0
4.3225,-15424.0,-5376.0,2688.0
4.325,-15296.0,-5376.0,2752.0
4.3275,-15232.0,-5312.0,2752.0
4.33,-15104.0,-5312.0,2752.0
4.3325,-15104.0,-5248.0,2816.0
4.335,-15040.0,-5248.0,2880.0
4.3375,-15040.0,-5248.0,2944.0
4.34,-14912.0,-5248.0,2944.0
4.3425,-14912.0,-5248.0,2944.0
4.345,-14912.0,-5248.0,2880.0
4.3475,-14784.0,-5184.0,2816.0
4.35,-14720.0,-5184.0,2944.0
4.3525,-14720.0,-5184.0,2944.0
4.355,-14720.0,-5184.0,2944.0
4.3575,-14720.0,-5120.0,3008.0
4.36,-14720.0,-5056.0,2880.0
4.3625,-14656.0,-5056.0,2880.0
4.365,-14656.0,-5120.0,2944.0
4.3675,-14592.0,-5120.0,3008.0
4.37,-14592.0,-5120.0,2880.0
4.3725,-14592.0,-5184.0,2880.0
4.375,-14656.0,-5120.0,2944.0
4.3775,-14720.0,-5184.0,2944.0
4.38,-14720.0,-5184.0,3008.0
4.3825,-14784.0,-5184.0,3072.0
4.385,-14912.0,-5184.0,3072.0
4.3875,-14912.0,-5184.0,3072.0
4.39,-14976.0,-5184.0,3072.0
4.3925,-15040.0,-5184.0,3072.0
4.395,-15104.0,-5248.0,3072.0
4.3975,-15104.0,-5312.0,3072.0
4.4,-15232.0,-5376.0,3200.0
4.4025,-15360.0,-5376.0,3264.0
4.405,-15360.0,-5376.0,3200.0
4.4075,-15488.0,-5376.0,3264.0
4.41,-15552.0,-5440.0,3328.0
4.4125,-15552.0,-5376.0,3392.0
4.415,-15552.0,-5184.0,3456.0
4.4175,-15616.0,-5056.0,3520.0
4.42,-15616.0,-5184.0,3648.0
4.4225,-15616.0,-5312.0,3520.0
4.425,-15808.0,-5440.0,3584.0
4.4275,-15872.0,-5376.0,3584.0
4.43,-15936.0,-5312.0,3712.0
4.4325,-15872.0,-5248.0,3776.0
4.435,-15872.0,-5184.0,3904.0
4.4375,-15936.0,-5056.0,3968.0
4.44,-16000.0,-5056.0,3968.0
4.4425,-16000.0,-4992.0,4096.0
4.445,-15936.0,-4992.0,4160.0
4.4475,-15936.0,-5120.0,4224.0
4.45,-15936.0,-5120.0,4096.0
4.4525,-15936.0,-5120.0,4096.0
4.455,-16000.0,-5184.0,4096.0
4.4575,-16064.0,-5120.0,4096.0
4.46,-16000.0,-5120.0,4032.0
4.4625,-16064.0,-4992.0,4032.0
4.465,-16128.0,-4928.0,4096.0
4.4675,-16064.0,-4928.0,4096.0
4.47,-16064.0,-4864.0,4096.0
4.4725,-16128.0,-4864.0,4096.0
4.475,-16192.0,-4928.0,4032.0
4.4775,-16256.0,-4992.0,4032.0
4.48,-16512.0,-5248.0,3968.0
4.4825,-16576.0,-5184.0,3968.0
4.485,-16640.0,-5184.0,3904.0
4.4875,-16640.0,-5120.0,3968.0
4.49,-16768.0,-5056.0,4032.0
4.4925,-16832.0,-4928.0,4032.0
4.495,-16832.0,-4928.0,3968.0
4.4975,-16896.0,-5056.0,3968.0
4.5,-17024.0,-5184.0,3904.0
4.5025,-17152.0,-5248.0,3776.0
4.505,-17344.0,-5184.0,3776.0
4.5075,-17408.0,-5120.0,3776.0
4.51,-17536.0,-5184.0,3712.0
4.5125,-17664.0,-5120.0,3712.0
4.515,-17792.0,-5120.0,3584.0
4.5175,-18048.0,-5056.0,3520.0
4.52,-18176.0,-5120.0,3584.0
4.5225,-18368.0,-5120.0,3456.0
4.525,-18624.0,-5184.0,3456.0
4.5275,-18816.0,-5248.0,3328.0
4.53,-18944.0,-5248.0,3264.0
4.5325,-19072.0,-5248.0,3264.0
4.535,-19200.0,-5248.0,3264.0
4.5375,-19264.0,-5184.0,3200.0
4.54,-19328.0,-5120.0,3200.0
4.5425,-19392.0,-5120.0,3200.0
4.545,-19392.0,-5056.0,3008.0
4.5475,-19392.0,-4992.0,3072.0
4.55,-19456.0,-4928.0,3008.0
4.5525,-19392.0,-4928.0,3008.0
4.555,-19392.0,-4864.0,3072.0
4.5575,-19392.0,-4736.0,3072.0
4.56,-19328.0,-4608.0,3136.0
4.5625,-19264.0,-4480.0,3136.0
4.565,-19200.0,-4416.0,3136.0
4.5675,-19136.0,-4352.0,3264.0
4.57,-19072.0,-4352.0,3264.0
4.5725,-19008.0,-4224.0,3328.0
4.575,-18944.0,-4096.0,3328.0
4.5775,-18816.0,-4096.0,3328.0
4.58,-18816.0,-4032.0,3328.0
4.5825,-18752.0,-3968.0,3328.0
4.585,-18688.0,-3968.0,3328.0
4.5875,-18624.0,-3840.0,3456.0
4.59,-18496.0,-3776.0,3456.0
4.5925,-18368.0,-3648.0,3392.0
4.595,-18176.0,-3584.0,3392.0
4.5975,-18176.0,-3520.0,3328.0
4.6,-18048.0,-3520.0,3200.0
4.6025,-18048.0,-3456.0,3200.0
4.605,-17920.0,-3456.0,3008.0
4.6075,-17856.0,-3392.0,3008.0
4.61,-17792.0,-3392.0,3008.0
4.6125,-17664.0,-3328.0,3008.0
4.615,-17600.0,-3328.0,2944.0
4.6175,-17536.0,-3264.0,2944.0
4.62,-17472.0,-3264.0,2880.0
4.6225,-17344.0,-3264.0,2880.0
4.625,-17344.0,-3200.0,2880.0
4.6275,-17280.0,-3136.0,2880.0
4.63,-17280.0,-3136.0,2880.0
4.6325,-17152.0,-3136.0,2944.0
4.635,-17152.0,-2944.0,3008.0
4.6375,-17088.0,-2944.0,3008.0
4.64,-17024.0,-2944.0,2880.0
4.6425,-16960.0,-2880.0,2752.0
4.645,-16896.0,-2816.0,2816.0
4.6475,-16704.0,-2688.0,2816.0
4.65,-16640.0,-2688.0,2752.0
4.6525,-16576.0,-2752.0,2816.0
4.655,-16576.0,-2752.0,2880.0
4.6575,-16512.0,-2688.0,2816.0
4.66,-16384.0,-2624.0,2880.0
4.6625,-16320.0,-2624.0,2880.0
4.665,-16256.0,-2624.0,2944.0
4.6675,-16256.0,-2496.0,3008.0
4.67,-16128.0,-2496.0,3072.0
4.6725,-16064.0,-2496.0,3072.0
4.675,-16064.0,-2432.0,3136.0
4.6775,-16000.0,-2368.0,3200.0
4.68,-15936.0,-2304.0,3328.0
4.6825,-15872.0,-2304.0,3392.0
4.685,-15872.0,-2304.0,3456.0
4.6875,-15872.0,-2176.0,3456.0
4.69,-15872.0,-2112.0,3392.0
4.6925,-15808.0,-2048.0,3392.0
4.695,-15744.0,-1984.0,3520.0
4.6975,-15680.0,-1984.0,3520.0
4.7,-15680.0,-1856.0,3456.0
4.7025,-15744.0,-1792.0,3456.0
4.705,-15744.0,-1792.0,3456.0
4.7075,-15744.0,-1728.0,3328.0
4.71,-15744.0,-1664.0,3264.0
4.7125,-15808.0,-1728.0,3264.0
4.715,-15808.0,-1664.0,3264.0
4.7175,-15808.0,-1600.0,3200.0
4.72,-15872.0,-1600.0,3200.0
4.7225,-15872.0,-1600.0,3072.0
4.725,-15872.0,-1536.0,3072.0
4.7275,-15872.0,-1536.0,3072.0
4.73,-15936.0,-1408.0,3072.0
4.7325,-16000.0,-1408.0,3136.0
4.735,-16000.0,-1408.0,3200.0
4.7375,-16000.0,-1472.0,3200.0
4.74,-16128.0,-1472.0,3328.0
4.7425,-16128.0,-1472.0,3392.0
4.745,-16192.0,-1408.0,3392.0
4.7475,-16320.0,-1472.0,3264.0
4.75,-16384.0,-1472.0,3392.0
4.7525,-16448.0,-1408.0,3456.0
4.755,-16576.0,-1472.0,3456.0
4.7575,-16640.0,-1408.0,3392.0
4.76,-16640.0,-1408.0,3456.0
4.7625,-16704.0,-1408.0,3520.0
4.765,-16768.0,-1536.0,3584.0
4.7675,-16768.0,-1536.0,3520.0
4.77,-16768.0,-1600.0,3456.0
4.7725,-16896.0,-1600.0,3456.0
4.775,-16896.0,-1600.0,3456.0
4.7775,-16960.0,-1664.0,3392.0
4.78,-16960.0,-1728.0,3392.0
4.7825,-17024.0,-1664.0,3456.0
4.785,-17024.0,-1664.0,3520.0
4.7875,-16960.0,-1664.0,3328.0
4.79,-16960.0,-1664.0,3392.0
4.7925,-16960.0,-1664.0,3392.0
4.795,-17024.0,-1728.0,3456.0
4.7975,-16960.0,-1728.0,3456.0
4.8,-16832.0,-1664.0,3392.0
4.8025,-16768.0,-1664.0,3456.0
4.805,-16704.0,-1664.0,3520.0
4.8075,-16640.0,-1600.0,3584.0
4.81,-16576.0,-1536.0,3584.0
4.8125,-16512.0,-1600.0,3648.0
4.815,-16448.0,-1536.0,3648.0
4.8175,-16384.0,-1472.0,3840.0
4.82,-16384.0,-1472.0,3776.0
4.8225,-16320.0,-1408.0,3904.0
4.825,-16320.0,-1472.0,3904.0
4.8275,-16256.0,-1408.0,3968.0
4.83,-16256.0,-1472.0,3904.0
4.8325,-16256.0,-1472.0,3968.0
4.835,-16192.0,-1408.0,3968.0
4.8375,-16128.0,-1408.0,3904.0
4.84,-16128.0,-1408.0,3968.0
4.8425,-16128.0,-1344.0,3904.0
4.845,-16064.0,-1344.0,3968.0
4.8475,-16064.0,-1344.0,3968.0
4.85,-16000.0,-1280.0,3840.0
4.8525,-15936.0,-1216.0,3776.0
4.855,-15808.0,-1216.0,3712.0
4.8575,-15808.0,-1216.0,3712.0
4.86,-15744.0,-1152.0,3712.0
4.8625,-15616.0,-1152.0,3776.0
4.865,-15552.0,-1152.0,3840.0
4.8675,-15488.0,-1152.0,3776.0
4.87,-15424.0,-1152.0,3712.0
4.8725,-15296.0,-1152.0,3776.0
4.875,-15296.0,-1152.0,3776.0
4.8775,-15232.0,-1088.0,3776.0
4.88,-15104.0,-1216.0,3904.0
4.8825,-15040.0,-1216.0,3904.0
4.885,-15104.0,-1216.0,3968.0
4.8875,-14976.0,-1280.0,4032.0
4.89,-14976.0,-1344.0,4160.0
4.8925,-14976.0,-1280.0,4160.0
4.895,-15040.0,-1280.0,4160.0
4.8975,-15040.0,-1280.0,4224.0
4.9,-14976.0,-1408.0,4224.0
4.9025,-15104.0,-1472.0,4160.0
4.905,-15104.0,-1472.0,4224.0
4.9075,-15168.0,-1536.0,4160.0
4.91,-15232.0,-1600.0,4160.0
4.9125,-15232.0,-1600.0,4160.0
4.915,-15296.0,-1728.0,4032.0
4.9175,-15424.0,-1792.0,4032.0
4.92,-15488.0,-1792.0,4032.0
4.9225,-15488.0,-1792.0,4032.0
4.925,-15488.0,-1792.0,3968.0
4.9275,-15424.0,-1728.0,3968.0
4.93,-15488.0,-1728.0,3840.0
4.9325,-15424.0,-1664.0,3904.0
4.935,-15424.0,-1728.0,3904.0
4.9375,-15360.0,-1728.0,3968.0
4.94,-15296.0,-1664.0,3968.0
4.9425,-15296.0,-1600.0,3968.0
4.945,-15296.0,-1728.0,3968.0
4.9475,-15296.0,-1728.0,3968.0
4.95,-15296.0,-1792.0,3968.0
4.9525,-15232.0,-1856.0,4032.0
4.955,-15168.0,-1920.0,4096.0
4.9575,-15168.0,-1856.0,4096.0
4.96,-15104.0,-1792.0,4160.0
4.9625,-15040.0,-1856.0,4096.0
4.965,-14976.0,-1792.0,4096.0
4.9675,-14912.0,-1856.0,4160.0
4.97,-14848.0,-1856.0,4160.0
4.9725,-14848.0,-1856.0,4160.0
4.975,-14784.0,-1856.0,4160.0
4.9775,-14720.0,-1856.0,4160.0
4.98,-14848.0,-1920.0,4160.0
4.9825,-14848.0,-1856.0,4096.0
4.985,-14784.0,-1792.0,4160.0
4.9875,-14784.0,-1792.0,4160.0
4.99,-14720.0,-1856.0,4160.0
4.9925,-14784.0,-1792.0,4096.0
4.995,-14720.0,-1792.0,3968.0
4.9975,-14720.0,-1792.0,4032.0
5.0,-14720.0,-1792.0,3968.0
5.0025,-14720.0,-1792.0,4032.0
5.005,-14720.0,-1856.0,4032.0
5.0075,-14720.0,-1856.0,4032.0
5.01,-14720.0,-1920.0,3968.0
5.0125,-14720.0,-1920.0,3968.0
5.015,-14720.0,-1920.0,3968.0
5.0175,-14784.0,-1984.0,3968.0
5.02,-14720.0,-1984.0,3968.0
5.0225,-14784.0,-1920.0,3904.0
5.025,-14784.0,-1920.0,3904.0
5.0275,-14720.0,-1920.0,3776.0
5.03,-14720.0,-1920.0,3840.0
5.0325,-14720.0,-1920.0,3904.0
5.035,-14720.0,-1984.0,3840.0
5.0375,-14848.0,-1984.0,3840.0
5.04,-14912.0,-1984.0,3904.0
5.0425,-14912.0,-2048.0,3840.0
5.045,-14912.0,-2048.0,3840.0
5.0475,-14912.0,-2112.0,3904.0
5.05,-14912.0,-2112.0,3840.0
5.0525,-14912.0,-2048.0,3776.0
5.055,-14912.0,-1984.0,3776.0
5.0575,-14912.0,-1984.0,3776.0
5.06,-14912.0,-1920.0,3776.0
5.0625,-14912.0,-1920.0,3840.0
5.065,-14848.0,-1920.0,3840.0
5.0675,-14848.0,-1856.0,3776.0
5.07,-14784.0,-1920.0,3648.0
5.0725,-14784.0,-1920.0,3712.0
5.075,-14784.0,-1856.0,3712.0
5.0775,-14784.0,-1920.0,3712.0
5.08,-14720.0,-1792.0,3712.0
5.0825,-14720.0,-1792.0,3648.0
5.085,-14656.0,-1792.0,3648.0
5.0875,-14656.0,-1792.0,3648.0
5.09,-14592.0,-1792.0,3648.0
5.0925,-14528.0,-1792.0,3712.0
5.095,-14464.0,-1792.0,3712.0
5.0975,-14464.0,-1792.0,3712.0
5.1,-14400.0,-1728.0,3840.0
5.1025,-14336.0,-1792.0,3840.0
5.105,-14336.0,-1792.0,3840.0
5.1075,-14336.0,-1856.0,3904.0
5.11,-14208.0,-1792.0,3840.0
5.1125,-14208.0,-1792.0,3840.0
5.115,-14208.0,-1792.0,3840.0
5.1175,-14208.0,-1728.0,3840.0
5.12,-14144.0,-1728.0,3840.0
5.1225,-14080.0,-1792.0,3840.0
5.125,-14016.0,-1792.0,3776.0
5.1275,-14080.0,-1792.0,3776.0
5.13,-14016.0,-1792.0,3712.0
5.1325,-14016.0,-1792.0,3776.0
5.135,-14016.0,-1792.0,3712.0
5.1375,-14016.0,-1856.0,3776.0
5.14,-14016.0,-1856.0,3840.0
5.1425,-14016.0,-1856.0,3776.0
5.145,-14016.0,-1856.0,3840.0
5.1475,-13952.0,-1920.0,3840.0
5.15,-13952.0,-1920.0,3840.0
5.1525,-14016.0,-1984.0,3840.0
5.155,-14080.0,-1984.0,3776.0
5.1575,-14144.0,-2048.0,3776.0
5.16,-14144.0,-2048.0,3776.0
5.1625,-14144.0,-2048.0,3840.0
5.165,-14080.0,-2048.0,3840.0
5.1675,-14080.0,-2048.0,3904.0
5.17,-14144.0,-2176.0,3840.0
5.1725,-14144.0,-2112.0,3840.0
5.175,-14208.0,-2112.0,3776.0
5.1775,-14272.0,-2112.0,3776.0
5.18,-14272.0,-2112.0,3840.0
5.1825,-14272.0,-2048.0,3776.0
5.185,-14336.0,-2048.0,3776.0
5.1875,-14400.0,-2112.0,3776.0
5.19,-14464.0,-2112.0,3776.0
5.1925,-14464.0,-2112.0,3776.0
5.195,-14528.0,-2112.0,3776.0
5.1975,-14464.0,-2176.0,3840.0
5.2,-14528.0,-2176.0,3776.0
5.2025,-14592.0,-2176.0,3776.0
5.205,-14592.0,-2176.0,3904.0
5.2075,-14592.0,-2240.0,3840.0
5.21,-14592.0,-2304.0,3776.0
5.2125,-14720.0,-2304.0,3776.0
5.215,-14656.0,-2304.0,3840.0
5.2175,-14720.0,-2304.0,3840.0
5.22,-14656.0,-2304.0,3840.0
5.2225,-14656.0,-2368.0,3904.0
5.225,-14720.0,-2304.0,3840.0
5.2275,-14784.0,-2368.0,3840.0
5.23,-14784.0,-2368.0,3776.0
5.2325,-14848.0,-2368.0,3840.0
5.235,-14848.0,-2368.0,3840.0
5.2375,-14912.0,-2304.0,3840.0
5.24,-14912.0,-2368.0,3840.0
5.2425,-14976.0,-2368.0,3840.0
5.245,-15040.0,-2304.0,3840.0
5.2475,-15040.0,-2304.0,3904.0
5.25,-15104.0,-2304.0,3904.0
5.2525,-15168.0,-2368.0,3904.0
5.255,-15232.0,-2368.0,3904.0
5.2575,-15296.0,-2432.0,3840.0
5.26,-15360.0,-2432.0,3904.0
5.2625,-15424.0,-2432.0,3968.0
5.265,-15488.0,-2432.0,3904.0
5.2675,-15552.0,-2496.0,3968.0
5.27,-15680.0,-2368.0,4032.0
5.2725,-15680.0,-2368.0,3968.0
5.275,-15680.0,-2368.0,3968.0
5.2775,-15744.0,-2368.0,3968.0
5.28,-15744.0,-2304.0,3968.0
5.2825,-15808.0,-2368.0,3840.0
5.285,-15872.0,-2368.0,3776.0
5.2875,-15872.0,-2368.0,3840.0
5.29,-15872.0,-2432.0,3840.0
5.2925,-15936.0,-2368.0,3968.0
5.295,-15872.0,-2368.0,3968.0
5.2975,-15872.0,-2368.0,3968.0
5.3,-15872.0,-2368.0,3968.0
5.3025,-15808.0,-2432.0,4032.0
5.305,-15808.0,-2496.0,4096.0
5.3075,-15872.0,-2432.0,4096.0
5.31,-15936.0,-2496.0,4032.0
5.3125,-15808.0,-2496.0,4096.0
5.315,-15808.0,-2496.0,4096.0
5.3175,-15808.0,-2432.0,4096.0
5.32,-15808.0,-2496.0,4096.0
5.3225,-15744.0,-2496.0,4160.0
5.325,-15744.0,-2496.0,4224.0
5.3275,-15744.0,-2432.0,4224.0
5.33,-15680.0,-2432.0,4224.0
5.3325,-15744.0,-2432.0,4224.0
5.335,-15808.0,-2368.0,4224.0
5.3375,-15872.0,-2368.0,4288.0
5.34,-15808.0,-2304.0,4288.0
5.3425,-15808.0,-2304.0,4224.0
5.345,-15808.0,-2304.0,4160.0
5.3475,-15808.0,-2304.0,4096.0
5.35,-15808.0,-2304.0,4032.0
5.3525,-15808.0,-2304.0,4032.0
5.355,-15872.0,-2304.0,4032.0
5.3575,-15872.0,-2304.0,3968.0
5.36,-15872.0,-2304.0,4032.0
5.3625,-15808.0,-2240.0,3904.0
5.365,-15744.0,-2304.0,3968.0
5.3675,-15744.0,-2240.0,4032.0
5.37,-15680.0,-2176.0,3904.0
5.3725,-15616.0,-2240.0,4032.0
5.375,-15616.0,-2112.0,3968.0
5.3775,-15552.0,-2112.0,4032.0
5.38,-15488.0,-2112.0,4032.0
5.3825,-15488.0,-2176.0,4032.0
5.385,-15424.0,-2176.0,4096.0
5.3875,-15360.0,-2112.0,4096.0
5.39,-15360.0,-2112.0,4160.0
5.3925,-15360.0,-2048.0,4096.0
5.395,-15360.0,-2112.0,4160.0
5.3975,-15360.0,-2176.0,4160.0
5.4,-15296.0,-2176.0,4096.0
5.4025,-15296.0,-2176.0,4096.0
5.405,-15232.0,-2176.0,4160.0
5.4075,-15168.0,-2112.0,4160.0
5.41,-15168.0,-2112.0,4160.0
5.4125,-15232.0,-2112.0,4160.0
5.415,-15232.0,-2112.0,4160.0
5.4175,-15168.0,-2112.0,4160.0
5.42,-15104.0,-2112.0,4160.0
5.4225,-15168.0,-2112.0,4096.0
5.425,-15104.0,-2112.0,4096.0
5.4275,-15168.0,-2112.0,4096.0
5.43,-15168.0,-2176.0,4160.0
5.4325,-15232.0,-2176.0,4096.0
5.435,-15168.0,-2176.0,4032.0
5.4375,-15232.0,-2240.0,4032.0
5.44,-15168.0,-2240.0,3968.0
5.4425,-15168.0,-2240.0,4032.0
5.445,-15232.0,-2240.0,4032.0
5.4475,-15168.0,-2240.0,4032.0
5.45,-15232.0,-2240.0,4032.0
5.4525,-15168.0,-2240.0,3904.0
5.455,-15232.0,-2240.0,3904.0
5.4575,-15232.0,-2240.0,3904.0
5.46,-15232.0,-2304.0,3904.0
5.4625,-15296.0,-2304.0,3904.0
5.465,-15296.0,-2368.0,3904.0
5.4675,-15296.0,-2368.0,3904.0
5.47,-15296.0,-2304.0,3904.0
5.4725,-15424.0,-2304.0,3904.0
5.475,-15424.0,-2432.0,3904.0
5.4775,-15488.0,-2496.0,3840.0
5.48,-15552.0,-2496.0,3776.0
5.4825,-15616.0,-2560.0,3776.0
5.485,-15744.0,-2496.0,3840.0
5.4875,-15808.0,-2560.0,3840.0
5.49,-15808.0,-2624.0,3776.0
5.4925,-15872.0,-2624.0,3840.0
5.495,-15872.0,-2624.0,3840.0
5.4975,-15936.0,-2624.0,3904.0
5.5,-16000.0,-2624.0,3904.0
5.5025,-16000.0,-2560.0,3840.0
5.505,-16000.0,-2560.0,3840.0
5.5075,-16000.0,-2560.0,3904.0
5.51,-15936.0,-2560.0,3904.0
5.5125,-15936.0,-2496.0,3904.0
5.515,-15808.0,-2560.0,3904.0
5.5175,-15808.0,-2560.0,3840.0
5.52,-15744.0,-2496.0,3776.0
5.5225,-15680.0,-2496.0,3712.0
5.525,-15680.0,-2432.0,3648.0
5.5275,-15680.0,-2496.0,3648.0
5.53,-15680.0,-2496.0,3648.0
5.5325,-15680.0,-2496.0,3648.0
5.535,-15680.0,-2496.0,3584.0
5.5375,-15744.0,-2560.0,3584.0
5.54,-15808.0,-2560.0,3520.0
5.5425,-15808.0,-2624.0,3520.0
5.545,-15808.0,-2624.0,3520.0
5.5475,-15808.0,-2752.0,3520.0
5.55,-15808.0,-2688.0,3520.0
5.5525,-15872.0,-2688.0,3456.0
5.555,-15872.0,-2624.0,3520.0
5.5575,-15872.0,-2624.0,3584.0
5.56,-15936.0,-2624.0,3584.0
5.5625,-15936.0,-2560.0,3456.0
5.565,-15936.0,-2560.0,3392.0
5.5675,-15936.0,-2496.0,3392.0
5.57,-15936.0,-2496.0,3392.0
5.5725,-16000.0,-2496.0,3328.0
5.575,-15936.0,-2496.0,3200.0
5.5775,-16000.0,-2432.0,3136.0
5.58,-15936.0,-2496.0,3072.0
5.5825,-15936.0,-2560.0,3200.0
5.585,-15936.0,-2560.0,3264.0
5.5875,-15872.0,-2560.0,3200.0
5.59,-15936.0,-2624.0,3136.0
5.5925,-15936.0,-2624.0,3136.0
5.595,-15872.0,-2624.0,3136.0
5.5975,-15936.0,-2688.0,3072.0
5.6,-16000.0,-2688.0,3072.0
5.6025,-15936.0,-2624.0,3008.0
5.605,-15936.0,-2560.0,3008.0
5.6075,-16000.0,-2624.0,3072.0
5.61,-16064.0,-2560.0,3008.0
5.6125,-16128.0,-2560.0,3008.0
5.615,-16128.0,-2560.0,3008.0
5.6175,-16064.0,-2560.0,3008.0
5.62,-16000.0,-2560.0,3072.0
5.6225,-16000.0,-2496.0,3008.0
5.625,-16000.0,-2560.0,3008.0
5.6275,-15936.0,-2560.0,2944.0
5.63,-15936.0,-2496.0,2944.0
5.6325,-15808.0,-2432.0,3008.0
5.635,-15808.0,-2432.0,3008.0
5.6375,-15744.0,-2432.0,3008.0
5.64,-15680.0,-2432.0,3136.0
5.6425,-15616.0,-2432.0,3136.0
5.645,-15488.0,-2432.0,3200.0
5.6475,-15488.0,-2368.0,3200.0
5.65,-15424.0,-2432.0,3200.0
5.6525,-15424.0,-2432.0,3264.0
5.655,-15424.0,-2496.0,3328.0
5.6575,-15424.0,-2496.0,3392.0
5.66,-15360.0,-2560.0,3392.0
5.6625,-15424.0,-2560.0,3392.0
5.665,-15488.0,-2624.0,3392.0
5.6675,-15552.0,-2688.0,3392.0
5.67,-15616.0,-2752.0,3392.0
5.6725,-15616.0,-2688.0,3264.0
5.675,-15616.0,-2688.0,3264.0
5.6775,-15616.0,-2688.0,3264.0
5.68,-15680.0,-2816.0,3264.0
5.6825,-15808.0,-2816.0,3200.0
5.685,-15808.0,-2816.0,3200.0
5.6875,-15872.0,-2880.0,3200.0
5.69,-15936.0,-2944.0,3200.0
5.6925,-16000.0,-2944.0,3136.0
5.695,-16064.0,-3008.0,3072.0
5.6975,-16128.0,-3072.0,3200.0
5.7,-16192.0,-3072.0,3264.0
5.7025,-16192.0,-3136.0,3200.0
5.705,-16256.0,-3200.0,3200.0
5.7075,-16320.0,-3264.0,3136.0
5.71,-16448.0,-3264.0,3136.0
5.7125,-16448.0,-3264.0,3072.0
5.715,-16448.0,-3264.0,3136.0
5.7175,-16448.0,-3264.0,3200.0
5.72,-16448.0,-3264.0,3136.0
5.7225,-16512.0,-3328.0,3072.0
5.725,-16512.0,-3328.0,3136.0
5.7275,-16512.0,-3328.0,3008.0
5.73,-16512.0,-3328.0,3008.0
5.7325,-16512.0,-3264.0,3072.0
5.735,-16384.0,-3264.0,3008.0
5.7375,-16320.0,-3264.0,3008.0
5.74,-16256.0,-3200.0,3008.0
5.7425,-16256.0,-3200.0,3008.0
5.745,-16192.0,-3200.0,3008.0
5.7475,-16192.0,-3136.0,3008.0
5.75,-16192.0,-3136.0,2944.0
5.7525,-16128.0,-3136.0,2880.0
5.755,-16128.0,-3072.0,2944.0
5.7575,-16064.0,-3072.0,3008.0
5.76,-15936.0,-3008.0,3008.0
5.7625,-15936.0,-3008.0,2944.0
5.765,-15872.0,-2944.0,2944.0
5.7675,-15872.0,-2944.0,3008.0
5.77,-15872.0,-2880.0,3072.0
5.7725,-15872.0,-2880.0,3008.0
5.775,-15872.0,-2816.0,3008.0
5.7775,-15808.0,-2816.0,3008.0
5.78,-15808.0,-2752.0,3136.0
5.7825,-15872.0,-2752.0,3136.0
5.785,-15808.0,-2752.0,3072.0
5.7875,-15808.0,-2688.0,3072.0
5.79,-15744.0,-2688.0,3136.0
5.7925,-15744.0,-2624.0,3136.0
5.795,-15680.0,-2624.0,3136.0
5.7975,-15680.0,-2624.0,3136.0
5.8,-15680.0,-2560.0,3072.0
5.8025,-15680.0,-2560.0,3072.0
5.805,-15616.0,-2560.0,3008.0
5.8075,-15552.0,-2496.0,3072.0
5.81,-15552.0,-2432.0,2944.0
5.8125,-15552.0,-2432.0,2880.0
5.815,-15552.0,-2496.0,2880.0
5.8175,-15488.0,-2432.0,2816.0
5.82,-15488.0,-2432.0,2816.0
5.8225,-15488.0,-2496.0,2816.0
5.825,-15552.0,-2496.0,2752.0
5.8275,-15488.0,-2560.0,2752.0
5.83,-15552.0,-2560.0,2688.0
5.8325,-15488.0,-2560.0,2816.0
5.835,-15488.0,-2560.0,2752.0
5.8375,-15552.0,-2560.0,2752.0
5.84,-15488.0,-2624.0,2816.0
5.8425,-15488.0,-2560.0,2816.0
5.845,-15424.0,-2496.0,2752.0
5.8475,-15360.0,-2560.0,2752.0
5.85,-15360.0,-2560.0,2752.0
5.8525,-15488.0,-2560.0,2816.0
5.855,-15424.0,-2560.0,2816.0
5.8575,-15488.0,-2624.0,2816.0
5.86,-15488.0,-2624.0,2816.0
5.8625,-15488.0,-2624.0,2816.0
5.865,-15552.0,-2624.0,2752.0
5.8675,-15616.0,-2624.0,2752.0
5.87,-15616.0,-2624.0,2752.0
5.8725,-15616.0,-2624.0,2752.0
5.875,-15616.0,-2688.0,2752.0
5.8775,-15552.0,-2624.0,2752.0
5.88,-15552.0,-2688.0,2752.0
5.8825,-15616.0,-2624.0,2688.0
5.885,-15552.0,-2624.0,2624.0
5.8875,-15552.0,-2624.0,2624.0
5.89,-15552.0,-2560.0,2624.0
5.8925,-15552.0,-2560.0,2688.0
5.895,-15488.0,-2560.0,2624.0
5.8975,-15488.0,-2496.0,2560.0
5.9,-15488.0,-2560.0,2624.0
5.9025,-15424.0,-2560.0,2688.0
5.905,-15488.0,-2560.0,2624.0
5.9075,-15488.0,-2560.0,2624.0
5.91,-15488.0,-2624.0,2688.0
5.9125,-15488.0,-2688.0,2688.0
5.915,-15488.0,-2688.0,2688.0
5.9175,-15552.0,-2624.0,2752.0
5.92,-15616.0,-2624.0,2752.0
5.9225,-15616.0,-2688.0,2816.0
5.925,-15680.0,-2624.0,2688.0
5.9275,-15744.0,-2688.0,2816.0
5.93,-15808.0,-2752.0,2816.0
5.9325,-15872.0,-2752.0,2816.0
5.935,-16000.0,-2816.0,2880.0
5.9375,-16000.0,-2816.0,2944.0
5.94,-16128.0,-2880.0,2816.0
5.9425,-16320.0,-2816.0,2880.0
5.945,-16384.0,-2880.0,2880.0
5.9475,-16512.0,-2880.0,2880.0
5.95,-16576.0,-2816.0,2816.0
5.9525,-16640.0,-2880.0,2816.0
5.955,-16768.0,-2880.0,2816.0
5.9575,-16704.0,-3008.0,2880.0
5.96,-16768.0,-3008.0,2880.0
5.9625,-16768.0,-3008.0,2816.0
5.965,-16768.0,-3072.0,2880.0
5.9675,-16768.0,-3072.0,3008.0
5.97,-16704.0,-3136.0,3008.0
5.9725,-16704.0,-3072.0,3008.0
5.975,-16576.0,-3072.0,3072.0
5.9775,-16576.0,-3072.0,3072.0
5.98,-16512.0,-3072.0,3008.0
5.9825,-16384.0,-3008.0,3072.0
5.985,-16320.0,-3008.0,3072.0
5.9875,-16256.0,-3008.0,3136.0
5.99,-16128.0,-3008.0,3136.0
5.9925,-16128.0,-3008.0,3200.0
5.995,-16000.0,-3072.0,3200.0
5.9975,-15872.0,-3136.0,3264.0
6.0,-15744.0,-3136.0,3328.0
6.0025,-15616.0,-3136.0,3264.0
6.005,-15616.0,-3072.0,3200.0
6.0075,-15552.0,-3072.0,3264.0
6.01,-15488.0,-3136.0,3264.0
6.0125,-15424.0,-3136.0,3328.0
6.015,-15424.0,-3136.0,3328.0
6.0175,-15296.0,-3136.0,3392.0
6.02,-15296.0,-3072.0,3328.0
6.0225,-15232.0,-3072.0,3392.0
6.025,-15296.0,-3136.0,3520.0
6.0275,-15232.0,-3200.0,3392.0
6.03,-15168.0,-3136.0,3392.0
6.0325,-15168.0,-3136.0,3456.0
6.035,-15168.0,-3136.0,3456.0
6.0375,-15104.0,-3136.0,3520.0
6.04,-15040.0,-3072.0,3584.0
6.0425,-15040.0,-3072.0,3584.0
6.045,-15040.0,-3136.0,3648.0
6.0475,-15040.0,-3136.0,3520.0
6.05,-15040.0,-3200.0,3584.0
6.0525,-15040.0,-3264.0,3520.0
6.055,-15040.0,-3264.0,3584.0
6.0575,-15040.0,-3264.0,3712.0
6.06,-15040.0,-3328.0,3712.0
6.0625,-15104.0,-3392.0,3648.0
6.065,-15104.0,-3456.0,3648.0
6.0675,-15040.0,-3520.0,3648.0
6.07,-15104.0,-3584.0,3648.0
6.0725,-15040.0,-3584.0,3648.0
6.075,-15040.0,-3584.0,3648.0
6.0775,-15040.0,-3648.0,3648.0
6.08,-15104.0,-3712.0,3584.0
6.0825,-15168.0,-3712.0,3584.0
6.085,-15168.0,-3648.0,3456.0
6.0875,-15104.0,-3648.0,3456.0
6.09,-15168.0,-3712.0,3392.0
6.0925,-15168.0,-3712.0,3456.0
6.095,-15232.0,-3712.0,3456.0
6.0975,-15296.0,-3712.0,3520.0
6.1,-15232.0,-3712.0,3520.0
6.1025,-15232.0,-3712.0,3584.0
6.105,-15232.0,-3712.0,3520.0
6.1075,-15168.0,-3712.0,3520.0
6.11,-15168.0,-3712.0,3520.0
6.1125,-15104.0,-3712.0,3520.0
6.115,-15104.0,-3776.0,3456.0
6.1175,-15104.0,-3776.0,3520.0
6.12,-15040.0,-3712.0,3520.0
6.1225,-15040.0,-3648.0,3584.0
6.125,-14976.0,-3648.0,3584.0
6.1275,-14912.0,-3584.0,3648.0
6.13,-14784.0,-3456.0,3648.0
6.1325,-14784.0,-3520.0,3648.0
6.135,-14720.0,-3392.0,3584.0
6.1375,-14720.0,-3392.0,3648.0
6.14,-14592.0,-3392.0,3648.0
6.1425,-14528.0,-3392.0,3648.0
6.145,-14528.0,-3392.0,3712.0
6.1475,-14464.0,-3392.0,3648.0
6.15,-14464.0,-3328.0,3648.0
6.1525,-14400.0,-3328.0,3712.0
6.155,-14336.0,-3392.0,3584.0
6.1575,-14336.0,-3392.0,3520.0
6.16,-14336.0,-3392.0,3520.0
6.1625,-14272.0,-3392.0,3456.0
6.165,-14208.0,-3392.0,3456.0
6.1675,-14208.0,-3456.0,3456.0
6.17,-14144.0,-3392.0,3520.0
6.1725,-14144.0,-3456.0,3456.0
6.175,-14208.0,-3392.0,3392.0
6.1775,-14144.0,-3392.0,3392.0
6.18,-14144.0,-3392.0,3392.0
6.1825,-14144.0,-3392.0,3392.0
6.185,-14144.0,-3392.0,3456.0
6.1875,-14144.0,-3392.0,3392.0
6.19,-14144.0,-3328.0,3456.0
6.1925,-14144.0,-3328.0,3456.0
6.195,-14080.0,-3328.0,3456.0
6.1975,-14144.0,-3328.0,3520.0
6.2,-14080.0,-3328.0,3584.0
6.2025,-14144.0,-3328.0,3584.0
6.205,-14144.0,-3392.0,3520.0
6.2075,-14208.0,-3328.0,3584.0
6.21,-14208.0,-3392.0,3584.0
6.2125,-14144.0,-3392.0,3520.0
6.215,-14208.0,-3392.0,3584.0
6.2175,-14208.0,-3392.0,3520.0
6.22,-14208.0,-3456.0,3584.0
6.2225,-14208.0,-3392.0,3520.0
6.225,-14144.0,-3392.0,3520.0
6.2275,-14208.0,-3456.0,3520.0
6.23,-14272.0,-3520.0,3520.0
6.2325,-14336.0,-3456.0,3520.0
6.235,-14336.0,-3456.0,3520.0
6.2375,-14336.0,-3520.0,3520.0
6.24,-14464.0,-3584.0,3520.0
6.2425,-14528.0,-3648.0,3584.0
6.245,-14528.0,-3712.0,3456.0
6.2475,-14464.0,-3648.0,3392.0
6.25,-14464.0,-3648.0,3392.0
6.2525,-14464.0,-3648.0,3392.0
6.255,-14528.0,-3648.0,3392.0
6.2575,-14528.0,-3648.0,3392.0
6.26,-14656.0,-3712.0,3456.0
6.2625,-14592.0,-3712.0,3520.0
6.265,-14592.0,-3648.0,3520.0
6.2675,-14656.0,-3648.0,3456.0
6.27,-14656.0,-3712.0,3392.0
6.2725,-14784.0,-3776.0,3392.0
6.275,-14784.0,-3840.0,3456.0
6.2775,-14784.0,-3904.0,3520.0
6.28,-14848.0,-3968.0,3456.0
6.2825,-14848.0,-4032.0,3584.0
6.285,-14912.0,-4032.0,3584.0
6.2875,-14976.0,-4032.0,3584.0
6.29,-14976.0,-4096.0,3584.0
6.2925,-15040.0,-4096.0,3520.0
6.295,-15104.0,-4096.0,3520.0
6.2975,-15104.0,-4032.0,3584.0
6.3,-15104.0,-4032.0,3584.0
6.3025,-15168.0,-4096.0,3648.0
6.305,-15168.0,-4096.0,3584.0
6.3075,-15296.0,-4032.0,3648.0
6.31,-15296.0,-4096.0,3584.0
6.3125,-15424.0,-4160.0,3648.0
6.315,-15424.0,-4160.0,3648.0
6.3175,-15488.0,-4224.0,3648.0
6.32,-15680.0,-4288.0,3712.0
6.3225,-15808.0,-4288.0,3712.0
6.325,-15872.0,-4352.0,3712.0
6.3275,-15936.0,-4288.0,3712.0
6.33,-16000.0,-4352.0,3648.0
6.3325,-16128.0,-4352.0,3584.0
6.335,-16192.0,-4352.0,3520.0
6.3375,-16256.0,-4352.0,3520.0
6.34,-16384.0,-4288.0,3520.0
6.3425,-16448.0,-4352.0,3520.0
6.345,-16448.0,-4352.0,3648.0
6.3475,-16448.0,-4352.0,3584.0
6.35,-16512.0,-4416.0,3648.0
6.3525,-16512.0,-4416.0,3712.0
6.355,-16576.0,-4416.0,3648.0
6.3575,-16576.0,-4416.0,3712.0
6.36,-16576.0,-4288.0,3776.0
6.3625,-16512.0,-4288.0,3840.0
6.365,-16576.0,-4288.0,3840.0
6.3675,-16576.0,-4352.0,3904.0
6.37,-16640.0,-4352.0,3968.0
6.3725,-16640.0,-4352.0,3968.0
6.375,-16640.0,-4416.0,3904.0
6.3775,-16640.0,-4352.0,3904.0
6.38,-16640.0,-4352.0,3904.0
6.3825,-16704.0,-4352.0,3968.0
6.385,-16704.0,-4352.0,3968.0
6.3875,-16704.0,-4288.0,3904.0
6.39,-16640.0,-4288.0,3904.0
6.3925,-16640.0,-4224.0,3904.0
6.395,-16704.0,-4224.0,3968.0
6.3975,-16704.0,-4224.0,3968.0
6.4,-16832.0,-4096.0,4096.0
6.4025,-16768.0,-4096.0,4096.0
6.405,-16896.0,-4032.0,4032.0
6.4075,-16896.0,-4032.0,4096.0
6.41,-16960.0,-4032.0,4224.0
6.4125,-16960.0,-3968.0,4224.0
6.415,-16960.0,-3968.0,4224.0
6.4175,-16960.0,-3968.0,4288.0
6.42,-17024.0,-3968.0,4224.0
6.4225,-17088.0,-3904.0,4352.0
6.425,-17088.0,-3904.0,4352.0
6.4275,-17088.0,-3904.0,4416.0
6.43,-17088.0,-3840.0,4416.0
6.4325,-17152.0,-3840.0,4480.0
6.435,-17152.0,-3840.0,4480.0
6.4375,-17088.0,-3776.0,4416.0
6.44,-17088.0,-3776.0,4480.0
6.4425,-17088.0,-3776.0,4480.0
6.445,-17088.0,-3776.0,4544.0
6.4475,-17024.0,-3776.0,4544.0
6.45,-16960.0,-3712.0,4416.0
6.4525,-16960.0,-3712.0,4352.0
6.455,-16960.0,-3648.0,4480.0
6.4575,-16896.0,-3648.0,4416.0
6.46,-16768.0,-3648.0,4416.0
6.4625,-16768.0,-3712.0,4352.0
6.465,-16768.0,-3648.0,4352.0
6.4675,-16768.0,-3712.0,4352.0
6.47,-16832.0,-3648.0,4416.0
6.4725,-16768.0,-3584.0,4352.0
6.475,-16832.0,-3584.0,4416.0
6.4775,-16768.0,-3584.0,4416.0
6.48,-16704.0,-3520.0,4416.0
6.4825,-16704.0,-3520.0,4416.0
6.485,-16704.0,-3456.0,4416.0
6.4875,-16640.0,-3520.0,4416.0
6.49,-16576.0,-3520.0,4480.0
6.4925,-16512.0,-3584.0,4416.0
6.495,-16512.0,-3520.0,4480.0
6.4975,-16448.0,-3520.0,4480.0
6.5,-16384.0,-3456.0,4416.0
6.5025,-16320.0,-3456.0,4480.0
6.505,-16320.0,-3456.0,4544.0
6.5075,-16256.0,-3392.0,4480.0
6.51,-16256.0,-3392.0,4480.0
6.5125,-16256.0,-3328.0,4544.0
6.515,-16192.0,-3328.0,4544.0
6.5175,-16256.0,-3328.0,4544.0
6.52,-16320.0,-3392.0,4480.0
6.5225,-16448.0,-3392.0,4480.0
6.525,-16512.0,-3392.0,4544.0
6.5275,-16576.0,-3456.0,4544.0
6.53,-16640.0,-3520.0,4544.0
6.5325,-16704.0,-3520.0,4480.0
6.535,-16768.0,-3584.0,4480.0
6.5375,-16896.0,-3648.0,4416.0
6.54,-16960.0,-3712.0,4480.0
6.5425,-17088.0,-3712.0,4544.0
6.545,-17152.0,-3712.0,4608.0
6.5475,-17152.0,-3712.0,4672.0
6.55,-17216.0,-3712.0,4736.0
6.5525,-17280.0,-3712.0,4736.0
6.555,-17280.0,-3776.0,4736.0
6.5575,-17344.0,-3776.0,4736.0
6.56,-17344.0,-3776.0,4800.0
6.5625,-17280.0,-3840.0,4800.0
6.565,-17280.0,-3840.0,4800.0
6.5675,-17344.0,-3840.0,4736.0
6.57,-17280.0,-3840.0,4672.0
6.5725,-17216.0,-3904.0,4736.0
6.575,-17152.0,-3904.0,4672.0
6.5775,-17088.0,-3904.0,4544.0
6.58,-17024.0,-3904.0,4608.0
6.5825,-16896.0,-3968.0,4736.0
6.585,-16768.0,-3904.0,4736.0
6.5875,-16704.0,-3968.0,4800.0
6.59,-16576.0,-3904.0,4864.0
6.5925,-16448.0,-3968.0,4928.0
6.595,-16256.0,-4096.0,5120.0
6.5975,-16192.0,-4160.0,5184.0
6.6,-16064.0,-4224.0,5248.0
6.6025,-15936.0,-4288.0,5376.0
6.605,-15808.0,-4160.0,5504.0
6.6075,-15680.0,-4096.0,5696.0
6.61,-15552.0,-4096.0,5696.0
6.6125,-15552.0,-4224.0,5824.0
6.615,-15552.0,-4160.0,5888.0
6.6175,-15424.0,-4096.0,5952.0
6.62,-15360.0,-4160.0,5824.0
6.6225,-15296.0,-4224.0,5824.0
6.625,-15296.0,-4352.0,5824.0
6.6275,-15360.0,-4480.0,5696.0
6.63,-15360.0,-4480.0,5632.0
6.6325,-15360.0,-4544.0,5632.0
6.635,-15360.0,-4544.0,5632.0
6.6375,-15232.0,-4480.0,5632.0
6.64,-15168.0,-4544.0,5568.0
6.6425,-15232.0,-4544.0,5504.0
6.645,-15168.0,-4544.0,5568.0
6.6475,-15168.0,-4608.0,5568.0
6.65,-15168.0,-4736.0,5504.0
6.6525,-15168.0,-4800.0,5632.0
6.655,-15168.0,-4800.0,5632.0
6.6575,-15168.0,-4864.0,5696.0
6.66,-15104.0,-4928.0,5632.0
6.6625,-15104.0,-4992.0,5632.0
6.665,-15104.0,-4992.0,5568.0
6.6675,-15104.0,-4992.0,5504.0
6.67,-15168.0,-5056.0,5632.0
6.6725,-15104.0,-4928.0,5696.0
6.675,-15040.0,-4992.0,5760.0
6.6775,-15104.0,-5056.0,5760.0
6.68,-15104.0,-5120.0,5824.0
6.6825,-15040.0,-5120.0,5824.0
6.685,-14912.0,-5056.0,5888.0
6.6875,-14848.0,-4992.0,6016.0
6.69,-14784.0,-4992.0,6016.0
6.6925,-14592.0,-4928.0,6080.0
6.695,-14528.0,-4928.0,6144.0
6.6975,-14528.0,-4992.0,6208.0
6.7,-14400.0,-4928.0,6272.0
6.7025,-14336.0,-4928.0,6272.0
6.705,-14272.0,-4928.0,6400.0
6.7075,-14208.0,-4928.0,6336.0
6.71,-14208.0,-4992.0,6400.0
6.7125,-14144.0,-4992.0,6400.0
6.715,-14144.0,-5120.0,6400.0
6.7175,-14144.0,-5184.0,6400.0
6.72,-14144.0,-5312.0,6272.0
6.7225,-14208.0,-5376.0,6208.0
6.725,-14400.0,-5440.0,6208.0
6.7275,-14400.0,-5440.0,6208.0
6.73,-14464.0,-5504.0,6208.0
6.7325,-14592.0,-5568.0,6208.0
6.735,-14656.0,-5568.0,6208.0
6.7375,-14784.0,-5568.0,6080.0
6.74,-14848.0,-5632.0,6080.0
6.7425,-14912.0,-5568.0,6080.0
6.745,-15040.0,-5568.0,5952.0
6.7475,-15104.0,-5568.0,5888.0
6.75,-15104.0,-5568.0,5952.0
6.7525,-15168.0,-5504.0,5888.0
6.755,-15168.0,-5504.0,5888.0
6.7575,-15232.0,-5568.0,5824.0
6.76,-15296.0,-5568.0,5824.0
6.7625,-15360.0,-5504.0,5824.0
6.765,-15360.0,-5504.0,5888.0
6.7675,-15424.0,-5568.0,5824.0
6.77,-15424.0,-5568.0,5760.0
6.7725,-15488.0,-5568.0,5760.0
6.775,-15488.0,-5568.0,5824.0
6.7775,-15552.0,-5632.0,5824.0
6.78,-15488.0,-5632.0,5888.0
6.7825,-15552.0,-5696.0,5888.0
6.785,-15616.0,-5760.0,5952.0
6.7875,-15552.0,-5696.0,5952.0
6.79,-15616.0,-5696.0,5952.0
6.7925,-15680.0,-5824.0,5952.0
6.795,-15680.0,-5824.0,5952.0
6.7975,-15744.0,-5824.0,6016.0
6.8,-15744.0,-5824.0,6080.0
6.8025,-15744.0,-5760.0,6016.0
6.805,-15744.0,-5824.0,6080.0
6.8075,-15744.0,-5760.0,6016.0
6.81,-15744.0,-5760.0,5952.0
6.8125,-15680.0,-5760.0,5952.0
6.815,-15680.0,-5696.0,6016.0
6.8175,-15680.0,-5696.0,6016.0
6.82,-15744.0,-5696.0,6016.0
6.8225,-15680.0,-5632.0,5952.0
6.825,-15680.0,-5632.0,5952.0
6.8275,-15616.0,-5568.0,6016.0
6.83,-15616.0,-5568.0,6016.0
6.8325,-15552.0,-5504.0,6016.0
6.835,-15616.0,-5568.0,6080.0
6.8375,-15552.0,-5568.0,6144.0
6.84,-15616.0,-5568.0,6144.0
6.8425,-15616.0,-5568.0,6208.0
6.845,-15552.0,-5568.0,6208.0
6.8475,-15552.0,-5568.0,6272.0
6.85,-15488.0,-5568.0,6272.0
6.8525,-15488.0,-5632.0,6208.0
6.855,-15424.0,-5632.0,6272.0
6.8575,-15424.0,-5632.0,6144.0
6.86,-15360.0,-5568.0,6080.0
6.8625,-15424.0,-5632.0,5952.0
6.865,-15360.0,-5632.0,6016.0
6.8675,-15232.0,-5568.0,5952.0
6.87,-15232.0,-5632.0,5888.0
6.8725,-15104.0,-5696.0,5952.0
6.875,-15040.0,-5696.0,5952.0
6.8775,-14912.0,-5696.0,5952.0
6.88,-14720.0,-5440.0,6208.0
6.8825,-14656.0,-5376.0,6400.0
6.885,-14464.0,-5376.0,6400.0
6.8875,-14272.0,-5504.0,6464.0
6.89,-14272.0,-5696.0,6336.0
6.8925,-14208.0,-5824.0,6336.0
6.895,-14208.0,-6016.0,6464.0
6.8975,-14208.0,-6144.0,6528.0
6.9,-14208.0,-6080.0,6528.0
6.9025,-14144.0,-6080.0,6720.0
6.905,-14080.0,-6016.0,6720.0
6.9075,-13952.0,-5952.0,6784.0
6.91,-13824.0,-5952.0,6848.0
6.9125,-13760.0,-5952.0,6848.0
6.915,-13760.0,-5952.0,6848.0
6.9175,-13632.0,-5888.0,6912.0
6.92,-13632.0,-5888.0,6912.0
6.9225,-13568.0,-6016.0,6912.0
6.925,-13568.0,-6144.0,6784.0
6.9275,-13568.0,-6272.0,6656.0
6.93,-13632.0,-6336.0,6592.0
6.9325,-13632.0,-6400.0,6592.0
6.935,-13632.0,-6464.0,6656.0
6.9375,-13632.0,-6400.0,6784.0
6.94,-13632.0,-6400.0,6848.0
6.9425,-13504.0,-6336.0,6784.0
6.945,-13568.0,-6464.0,6912.0
6.9475,-13504.0,-6464.0,6976.0
6.95,-13568.0,-6528.0,7040.0
6.9525,-13568.0,-6592.0,7104.0
6.955,-13568.0,-6592.0,7104.0
6.9575,-13632.0,-6656.0,7040.0
6.96,-13504.0,-6720.0,7232.0
6.9625,-13568.0,-6848.0,7424.0
6.965,-13632.0,-6912.0,7360.0
6.9675,-13696.0,-6912.0,7424.0
6.97,-13696.0,-6976.0,7488.0
6.9725,-13696.0,-7104.0,7488.0
6.975,-13696.0,-7104.0,7424.0
6.9775,-13760.0,-7168.0,7424.0
6.98,-13824.0,-7296.0,7424.0
6.9825,-13760.0,-7296.0,7360.0
6.985,-13696.0,-7360.0,7360.0
6.9875,-13760.0,-7360.0,7424.0
6.99,-13760.0,-7360.0,7424.0
6.9925,-13632.0,-7296.0,7424.0
6.995,-13568.0,-7360.0,7488.0
6.9975,-13504.0,-7424.0,7424.0
7.0,-13440.0,-7488.0,7360.0
7.0025,-13376.0,-7552.0,7296.0
7.005,-13312.0,-7616.0,7296.0
7.0075,-13248.0,-7744.0,7232.0
7.01,-13184.0,-7744.0,7360.0
7.0125,-13056.0,-7616.0,7360.0
7.015,-12928.0,-7616.0,7360.0
7.0175,-12800.0,-7552.0,7488.0
7.02,-12672.0,-7616.0,7552.0
7.0225,-12544.0,-7744.0,7488.0
7.025,-12480.0,-7808.0,7424.0
7.0275,-12416.0,-7936.0,7424.0
7.03,-12288.0,-8000.0,7360.0
7.0325,-12288.0,-8128.0,7360.0
7.035,-12224.0,-8064.0,7424.0
7.0375,-12160.0,-8064.0,7552.0
7.04,-12032.0,-8192.0,7552.0
7.0425,-11904.0,-8256.0,7552.0
7.045,-11840.0,-8256.0,7552.0
7.0475,-11840.0,-8192.0,7616.0
7.05,-11776.0,-8192.0,7680.0
7.0525,-11712.0,-8256.0,7616.0
7.055,-11648.0,-8192.0,7744.0
7.0575,-11648.0,-8192.0,7808.0
7.06,-11648.0,-8128.0,7872.0
7.0625,-11520.0,-8064.0,7872.0
7.065,-11456.0,-8064.0,7872.0
7.0675,-11456.0,-8128.0,7872.0
7.07,-11392.0,-8064.0,7744.0
7.0725,-11328.0,-8000.0,7808.0
7.075,-11392.0,-8000.0,7808.0
7.0775,-11264.0,-7936.0,7744.0
7.08,-11264.0,-7936.0,7744.0
7.0825,-11200.0,-7872.0,7680.0
7.085,-11200.0,-7872.0,7680.0
7.0875,-11200.0,-7808.0,7680.0
7.09,-11200.0,-7808.0,7616.0
7.0925,-11200.0,-7808.0,7680.0
7.095,-11200.0,-7744.0,7680.0
7.0975,-11200.0,-7680.0,7680.0
7.1,-11264.0,-7680.0,7616.0
7.1025,-11328.0,-7680.0,7552.0
7.105,-11392.0,-7680.0,7488.0
7.1075,-11456.0,-7680.0,7488.0
7.11,-11520.0,-7680.0,7552.0
7.1125,-11520.0,-7744.0,7552.0
7.115,-11520.0,-7680.0,7552.0
7.1175,-11584.0,-7808.0,7552.0
7.12,-11712.0,-7744.0,7552.0
7.1225,-11776.0,-7808.0,7616.0
7.125,-11840.0,-7808.0,7616.0
7.1275,-11904.0,-7744.0,7616.0
7.13,-11968.0,-7744.0,7552.0
7.1325,-12032.0,-7808.0,7616.0
7.135,-12096.0,-7872.0,7616.0
7.1375,-12160.0,-7808.0,7616.0
7.14,-12288.0,-7808.0,7552.0
7.1425,-12288.0,-7808.0,7616.0
7.145,-12352.0,-7872.0,7616.0
7.1475,-12480.0,-7872.0,7616.0
7.15,-12608.0,-7936.0,7616.0
7.1525,-12672.0,-7936.0,7552.0
7.155,-12736.0,-7872.0,7488.0
7.1575,-12800.0,-7872.0,7488.0
7.16,-12928.0,-7936.0,7488.0
7.1625,-12992.0,-7936.0,7552.0
7.165,-13120.0,-7936.0,7488.0
7.1675,-13184.0,-8000.0,7552.0
7.17,-13248.0,-7936.0,7552.0
7.1725,-13376.0,-7936.0,7552.0
7.175,-13440.0,-7936.0,7616.0
7.1775,-13504.0,-7936.0,7680.0
7.18,-13568.0,-7936.0,7744.0
7.1825,-13632.0,-8064.0,7808.0
7.185,-13632.0,-8000.0,7808.0
7.1875,-13696.0,-8000.0,7808.0
7.19,-13632.0,-8000.0,7808.0
7.1925,-13632.0,-8000.0,7744.0
7.195,-13632.0,-8000.0,7808.0
7.1975,-13632.0,-8000.0,7808.0
7.2,-13568.0,-8000.0,7808.0
7.2025,-13504.0,-7936.0,7808.0
7.205,-13440.0,-7936.0,7680.0
7.2075,-13312.0,-7872.0,7744.0
7.21,-13376.0,-7936.0,7680.0
7.2125,-13312.0,-8000.0,7552.0
7.215,-13312.0,-8000.0,7616.0
7.2175,-13248.0,-8000.0,7616.0
7.22,-13248.0,-8000.0,7552.0
7.2225,-13120.0,-8000.0,7488.0
7.225,-13056.0,-8000.0,7488.0
7.2275,-13056.0,-8000.0,7616.0
7.23,-12992.0,-8000.0,7616.0
7.2325,-12864.0,-8000.0,7552.0
7.235,-12864.0,-8000.0,7552.0
7.2375,-12736.0,-7936.0,7616.0
7.24,-12608.0,-7936.0,7616.0
7.2425,-12544.0,-7936.0,7680.0
7.245,-12480.0,-7936.0,7744.0
7.2475,-12416.0,-7936.0,7744.0
7.25,-12352.0,-7936.0,7680.0
7.2525,-12224.0,-7936.0,7744.0
7.255,-12096.0,-7872.0,7744.0
7.2575,-11968.0,-7808.0,7744.0
7.26,-11904.0,-7744.0,7808.0
7.2625,-11840.0,-7808.0,7872.0
7.265,-11712.0,-7744.0,7872.0
7.2675,-11712.0,-7744.0,7872.0
7.27,-11648.0,-7744.0,7872.0
7.2725,-11648.0,-7616.0,7808.0
7.275,-11520.0,-7616.0,7744.0
7.2775,-11520.0,-7616.0,7744.0
7.28,-11456.0,-7552.0,7808.0
7.2825,-11456.0,-7424.0,7808.0
7.285,-11392.0,-7424.0,7744.0
7.2875,-11328.0,-7424.0,7680.0
7.29,-11328.0,-7360.0,7680.0
7.2925,-11392.0,-7424.0,7616.0
7.295,-11392.0,-7360.0,7616.0
7.2975,-11456.0,-7360.0,7552.0
7.3,-11456.0,-7360.0,7488.0
7.3025,-11456.0,-7360.0,7488.0
7.305,-11520.0,-7360.0,7488.0
7.3075,-11520.0,-7424.0,7488.0
7.31,-11520.0,-7424.0,7424.0
7.3125,-11520.0,-7424.0,7424.0
7.315,-11520.0,-7424.0,7424.0
7.3175,-11520.0,-7424.0,7424.0
7.32,-11520.0,-7360.0,7424.0
7.3225,-11520.0,-7360.0,7424.0
7.325,-11584.0,-7360.0,7424.0
7.3275,-11584.0,-7360.0,7488.0
7.33,-11520.0,-7424.0,7424.0
7.3325,-11520.0,-7360.0,7360.0
7.335,-11584.0,-7360.0,7360.0
7.3375,-11584.0,-7360.0,7424.0
7.34,-11584.0,-7424.0,7360.0
7.3425,-11648.0,-7360.0,7296.0
7.345,-11584.0,-7360.0,7360.0
7.3475,-11584.0,-7360.0,7424.0
7.35,-11648.0,-7360.0,7424.0
7.3525,-11584.0,-7360.0,7488.0
7.355,-11584.0,-7360.0,7488.0
7.3575,-11648.0,-7360.0,7552.0
7.36,-11712.0,-7360.0,7616.0
7.3625,-11648.0,-7360.0,7680.0
7.365,-11648.0,-7360.0,7744.0
7.3675,-11648.0,-7360.0,7680.0
7.37,-11648.0,-7424.0,7744.0
7.3725,-11776.0,-7424.0,7744.0
7.375,-11840.0,-7488.0,7680.0
7.3775,-11840.0,-7424.0,7616.0
7.38,-11840.0,-7488.0,7488.0
7.3825,-11968.0,-7424.0,7488.0
7.385,-11968.0,-7424.0,7552.0
7.3875,-12032.0,-7488.0,7488.0
7.39,-12032.0,-7488.0,7424.0
7.3925,-12096.0,-7488.0,7424.0
7.395,-12160.0,-7488.0,7360.0
7.3975,-12288.0,-7488.0,7424.0
7.4,-12352.0,-7552.0,7360.0
7.4025,-12480.0,-7552.0,7360.0
7.405,-12544.0,-7552.0,7360.0
7.4075,-12608.0,-7552.0,7424.0
7.41,-12672.0,-7552.0,7424.0
7.4125,-12736.0,-7552.0,7424.0
7.415,-12736.0,-7552.0,7488.0
7.4175,-12736.0,-7552.0,7552.0
7.42,-12800.0,-7552.0,7616.0
7.4225,-12800.0,-7680.0,7680.0
7.425,-12864.0,-7680.0,7616.0
7.4275,-12928.0,-7680.0,7680.0
7.43,-12992.0,-7744.0,7616.0
7.4325,-13056.0,-7680.0,7424.0
7.435,-12992.0,-7744.0,7488.0
7.4375,-13056.0,-7680.0,7488.0
7.44,-13120.0,-7680.0,7488.0
7.4425,-13056.0,-7680.0,7488.0
7.445,-13056.0,-7744.0,7552.0
7.4475,-13056.0,-7680.0,7616.0
7.45,-13056.0,-7744.0,7552.0
7.4525,-13056.0,-7744.0,7680.0
7.455,-13056.0,-7680.0,7744.0
7.4575,-13056.0,-7616.0,7680.0
7.46,-12928.0,-7680.0,7744.0
7.4625,-12928.0,-7744.0,7680.0
7.465,-12928.0,-7680.0,7680.0
7.4675,-12864.0,-7680.0,7744.0
7.47,-12736.0,-7744.0,7744.0
7.4725,-12672.0,-7744.0,7744.0
7.475,-12608.0,-7680.0,7744.0
7.4775,-12544.0,-7680.0,7744.0
7.48,-12480.0,-7680.0,7808.0
7.4825,-12352.0,-7616.0,7808.0
7.485,-12288.0,-7552.0,7808.0
7.4875,-12224.0,-7488.0,7808.0
7.49,-12224.0,-7616.0,7808.0
7.4925,-12160.0,-7552.0,7808.0
7.495,-12160.0,-7616.0,7808.0
7.4975,-12096.0,-7616.0,7744.0
7.5,-12096.0,-7552.0,7680.0
7.5025,-12096.0,-7552.0,7744.0
7.505,-12096.0,-7616.0,7680.0
7.5075,-12096.0,-7616.0,7616.0
7.51,-12160.0,-7616.0,7680.0
7.5125,-12224.0,-7488.0,7616.0
7.515,-12288.0,-7488.0,7616.0
7.5175,-12352.0,-7424.0,7680.0
7.52,-12352.0,-7424.0,7680.0
7.5225,-12480.0,-7424.0,7744.0
7.525,-12480.0,-7488.0,7680.0
7.5275,-12544.0,-7552.0,7680.0
7.53,-12672.0,-7616.0,7680.0
7.5325,-12736.0,-7616.0,7680.0
7.535,-12864.0,-7552.0,7616.0
7.5375,-12928.0,-7616.0,7488.0
7.54,-12992.0,-7616.0,7552.0
7.5425,-13120.0,-7680.0,7616.0
7.545,-13120.0,-7680.0,7552.0
7.5475,-13120.0,-7744.0,7552.0
7.55,-13120.0,-7680.0,7616.0
7.5525,-13056.0,-7680.0,7616.0
7.555,-13056.0,-7616.0,7616.0
7.5575,-12992.0,-7616.0,7616.0
7.56,-13056.0,-7616.0,7680.0
7.5625,-12992.0,-7616.0,7616.0
7.565,-12992.0,-7552.0,7680.0
7.5675,-12928.0,-7552.0,7680.0
7.57,-12992.0,-7552.0,7744.0
7.5725,-12864.0,-7552.0,7744.0
7.575,-12800.0,-7616.0,7744.0
7.5775,-12736.0,-7616.0,7808.0
7.58,-12736.0,-7552.0,7744.0
7.5825,-12608.0,-7552.0,7744.0
7.585,-12608.0,-7488.0,7744.0
7.5875,-12544.0,-7488.0,7680.0
7.59,-12416.0,-7424.0,7680.0
7.5925,-12352.0,-7360.0,7616.0
7.595,-12352.0,-7424.0,7616.0
7.5975,-12352.0,-7360.0,7680.0
7.6,-12352.0,-7296.0,7616.0
7.6025,-12352.0,-7296.0,7552.0
7.605,-12352.0,-7360.0,7488.0
7.6075,-12352.0,-7360.0,7424.0
7.61,-12416.0,-7360.0,7360.0
7.6125,-12480.0,-7296.0,7360.0
7.615,-12544.0,-7296.0,7360.0
7.6175,-12544.0,-7296.0,7424.0
7.62,-12608.0,-7296.0,7360.0
7.6225,-12672.0,-7360.0,7360.0
7.625,-12800.0,-7296.0,7424.0
7.6275,-12864.0,-7296.0,7296.0
7.63,-12928.0,-7296.0,7296.0
7.6325,-12928.0,-7296.0,7360.0
7.635,-12992.0,-7360.0,7296.0
7.6375,-13056.0,-7360.0,7296.0
7.64,-13056.0,-7360.0,7360.0
7.6425,-13120.0,-7424.0,7424.0
7.645,-13184.0,-7424.0,7488.0
7.6475,-13248.0,-7424.0,7552.0
7.65,-13312.0,-7424.0,7552.0
7.6525,-13376.0,-7424.0,7616.0
7.655,-13376.0,-7424.0,7552.0
7.6575,-13376.0,-7424.0,7552.0
7.66,-13440.0,-7424.0,7488.0
7.6625,-13504.0,-7424.0,7488.0
7.665,-13504.0,-7424.0,7488.0
7.6675,-13504.0,-7424.0,7424.0
7.67,-13440.0,-7488.0,7424.0
7.6725,-13568.0,-7424.0,7424.0
7.675,-13568.0,-7424.0,7424.0
7.6775,-13504.0,-7488.0,7424.0
7.68,-13504.0,-7488.0,7424.0
7.6825,-13504.0,-7488.0,7424.0
7.685,-13440.0,-7552.0,7488.0
7.6875,-13376.0,-7616.0,7488.0
7.69,-13312.0,-7552.0,7488.0
7.6925,-13312.0,-7552.0,7488.0
7.695,-13184.0,-7616.0,7616.0
7.6975,-13120.0,-7680.0,7616.0
7.7,-13056.0,-7616.0,7680.0
7.7025,-12992.0,-7680.0,7744.0
7.705,-12864.0,-7616.0,7808.0
7.7075,-12864.0,-7616.0,7744.0
7.71,-12736.0,-7680.0,7808.0
7.7125,-12672.0,-7680.0,7872.0
7.715,-12608.0,-7680.0,7936.0
7.7175,-12608.0,-7744.0,7872.0
7.72,-12544.0,-7744.0,7872.0
7.7225,-12480.0,-7744.0,7808.0
7.725,-12480.0,-7744.0,7808.0
7.7275,-12416.0,-7744.0,7872.0
7.73,-12416.0,-7744.0,7808.0
7.7325,-12416.0,-7808.0,7744.0
7.735,-12416.0,-7872.0,7744.0
7.7375,-12416.0,-7808.0,7808.0
7.74,-12416.0,-7872.0,7744.0
7.7425,-12480.0,-7872.0,7744.0
7.745,-12416.0,-7872.0,7808.0
7.7475,-12416.0,-7936.0,7808.0
7.75,-12416.0,-7936.0,7808.0
7.7525,-12416.0,-7936.0,7744.0
7.755,-12416.0,-7872.0,7744.0
7.7575,-12416.0,-7872.0,7808.0
7.76,-12416.0,-7936.0,7872.0
7.7625,-12480.0,-7936.0,7808.0
7.765,-12480.0,-7936.0,7744.0
7.7675,-12416.0,-8000.0,7808.0
7.77,-12416.0,-8000.0,7808.0
7.7725,-12416.0,-8000.0,7808.0
7.775,-12480.0,-8000.0,7744.0
7.7775,-12480.0,-7936.0,7744.0
7.78,-12480.0,-8000.0,7744.0
7.7825,-12480.0,-7936.0,7680.0
7.785,-12608.0,-7936.0,7680.0
7.7875,-12672.0,-7872.0,7744.0
7.79,-12736.0,-7936.0,7616.0
7.7925,-12800.0,-7936.0,7680.0
7.795,-12864.0,-8000.0,7680.0
7.7975,-12928.0,-7936.0,7680.0
7.8,-12800.0,-7936.0,7680.0
7.8025,-12864.0,-7936.0,7680.0
7.805,-12864.0,-7936.0,7744.0
7.8075,-12864.0,-7872.0,7680.0
7.81,-12864.0,-7872.0,7616.0
7.8125,-12864.0,-7808.0,7680.0
7.815,-12864.0,-7808.0,7680.0
7.8175,-12864.0,-7808.0,7680.0
7.82,-12864.0,-7680.0,7680.0
7.8225,-12928.0,-7680.0,7680.0
7.825,-12928.0,-7680.0,7744.0
7.8275,-12928.0,-7680.0,7680.0
7.83,-12992.0,-7680.0,7616.0
7.8325,-13056.0,-7744.0,7680.0
7.835,-13120.0,-7744.0,7552.0
7.8375,-13184.0,-7808.0,7552.0
7.84,-13248.0,-7744.0,7552.0
7.8425,-13248.0,-7744.0,7424.0
7.845,-13312.0,-7744.0,7296.0
7.8475,-13248.0,-7744.0,7296.0
7.85,-13248.0,-7680.0,7296.0
7.8525,-13248.0,-7680.0,7232.0
7.855,-13184.0,-7680.0,7168.0
7.8575,-13184.0,-7616.0,7168.0
7.86,-13120.0,-7616.0,7104.0
7.8625,-13120.0,-7552.0,7232.0
7.865,-13120.0,-7552.0,7232.0
7.8675,-13056.0,-7488.0,7296.0
7.87,-12992.0,-7488.0,7232.0
7.8725,-12928.0,-7488.0,7232.0
7.875,-12928.0,-7552.0,7296.0
7.8775,-12864.0,-7552.0,7232.0
7.88,-12736.0,-7552.0,7296.0
7.8825,-12736.0,-7552.0,7232.0
7.885,-12672.0,-7552.0,7232.0
7.8875,-12672.0,-7552.0,7168.0
7.89,-12608.0,-7552.0,7104.0
7.8925,-12544.0,-7488.0,7168.0
7.895,-12544.0,-7488.0,7104.0
7.8975,-12544.0,-7488.0,7168.0
7.9,-12544.0,-7488.0,7168.0
7.9025,-12480.0,-7488.0,7168.0
7.905,-12480.0,-7488.0,7104.0
7.9075,-12544.0,-7552.0,7104.0
7.91,-12480.0,-7488.0,7104.0
7.9125,-12480.0,-7488.0,7040.0
7.915,-12480.0,-7488.0,7040.0
7.9175,-12480.0,-7488.0,7040.0
7.92,-12608.0,-7424.0,7104.0
7.9225,-12608.0,-7424.0,7168.0
7.925,-12736.0,-7424.0,7168.0
7.9275,-12736.0,-7488.0,7104.0
7.93,-12736.0,-7488.0,7168.0
7.9325,-12800.0,-7552.0,7168.0
7.935,-12864.0,-7552.0,7168.0
7.9375,-12864.0,-7552.0,7040.0
7.94,-12864.0,-7552.0,7040.0
7.9425,-12928.0,-7552.0,7040.0
7.945,-12992.0,-7552.0,7040.0
7.9475,-13056.0,-7488.0,6912.0
7.95,-13120.0,-7488.0,6848.0
7.9525,-13120.0,-7552.0,6784.0
7.955,-13184.0,-7552.0,6784.0
7.9575,-13184.0,-7488.0,6848.0
7.96,-13184.0,-7488.0,6848.0
7.9625,-13184.0,-7488.0,6912.0
7.965,-13248.0,-7552.0,6848.0
7.9675,-13184.0,-7552.0,6848.0
7.97,-13248.0,-7552.0,6848.0
7.9725,-13184.0,-7552.0,6848.0
7.975,-13120.0,-7680.0,6848.0
7.9775,-13120.0,-7616.0,6784.0
7.98,-13120.0,-7680.0,6784.0
7.9825,-13120.0,-7680.0,6784.0
7.985,-13120.0,-7744.0,6720.0
7.9875,-13120.0,-7680.0,6720.0
7.99,-13120.0,-7680.0,6720.0
7.9925,-13120.0,-7680.0,6720.0
7.995,-13120.0,-7680.0,6720.0
7.9975,-13120.0,-7680.0,6784.0
8.0,-13184.0,-7680.0,6848.0
8.0025,-13120.0,-7680.0,6784.0
8.005,-13120.0,-7616.0,6720.0
8.0075,-13120.0,-7616.0,6784.0
8.01,-13120.0,-7680.0,6912.0
8.0125,-13056.0,-7616.0,6912.0
8.015,-13120.0,-7552.0,6976.0
8.0175,-13056.0,-7616.0,6976.0
8.02,-13056.0,-7488.0,6976.0
8.0225,-13056.0,-7488.0,6976.0
8.025,-13056.0,-7488.0,7040.0
8.0275,-13056.0,-7424.0,6912.0
8.03,-12928.0,-7424.0,7040.0
8.0325,-12864.0,-7360.0,6976.0
8.035,-12800.0,-7360.0,6912.0
8.0375,-12736.0,-7360.0,6912.0
8.04,-12736.0,-7360.0,6848.0
8.0425,-12672.0,-7424.0,6848.0
8.045,-12544.0,-7424.0,6784.0
8.0475,-12480.0,-7424.0,6720.0
8.05,-12416.0,-7296.0,6720.0
8.0525,-12288.0,-7360.0,6720.0
8.055,-12288.0,-7360.0,6656.0
8.0575,-12160.0,-7296.0,6784.0
8.06,-12032.0,-7296.0,6784.0
8.0625,-12032.0,-7296.0,6784.0
8.065,-12032.0,-7360.0,6784.0
8.0675,-12032.0,-7424.0,6720.0
8.07,-11968.0,-7360.0,6720.0
8.0725,-11968.0,-7232.0,6656.0
8.075,-11968.0,-7232.0,6656.0
8.0775,-11904.0,-7296.0,6720.0
8.08,-12032.0,-7232.0,6656.0
8.0825,-12096.0,-7296.0,6656.0
8.085,-12224.0,-7296.0,6592.0
8.0875,-12288.0,-7360.0,6656.0
8.09,-12416.0,-7360.0,6656.0
8.0925,-12544.0,-7424.0,6592.0
8.095,-12672.0,-7424.0,6592.0
8.0975,-12864.0,-7424.0,6656.0
8.1,-12992.0,-7488.0,6656.0
8.1025,-13056.0,-7552.0,6592.0
8.105,-13312.0,-7616.0,6656.0
8.1075,-13440.0,-7616.0,6592.0
8.11,-13632.0,-7744.0,6528.0
8.1125,-13824.0,-7744.0,6528.0
8.115,-13952.0,-7872.0,6528.0
8.1175,-14080.0,-7872.0,6528.0
8.12,-14272.0,-7936.0,6464.0
8.1225,-14400.0,-7936.0,6464.0
8.125,-14592.0,-8064.0,6400.0
8.1275,-14656.0,-8064.0,6336.0
8.13,-14720.0,-8064.0,6272.0
8.1325,-14784.0,-8000.0,6336.0
8.135,-14720.0,-8000.0,6400.0
8.1375,-14784.0,-8000.0,6336.0
8.14,-14784.0,-8000.0,6400.0
8.1425,-14784.0,-7936.0,6336.0
8.145,-14720.0,-8000.0,6400.0
8.1475,-14720.0,-8000.0,6336.0
8.15,-14720.0,-8000.0,6464.0
8.1525,-14656.0,-8000.0,6464.0
8.155,-14656.0,-8064.0,6464.0
8.1575,-14592.0,-8064.0,6464.0
8.16,-14528.0,-8064.0,6464.0
8.1625,-14464.0,-8064.0,6528.0
8.165,-14400.0,-8064.0,6528.0
8.1675,-14336.0,-8064.0,6656.0
8.17,-14336.0,-8000.0,6656.0
8.1725,-14336.0,-8000.0,6656.0
8.175,-14272.0,-7936.0,6720.0
8.1775,-14208.0,-7872.0,6720.0
8.18,-14144.0,-7936.0,6784.0
8.1825,-14080.0,-7936.0,6848.0
8.185,-14144.0,-8000.0,6848.0
8.1875,-14080.0,-8000.0,6784.0
8.19,-14080.0,-7936.0,6784.0
8.1925,-14016.0,-7936.0,6784.0
8.195,-13952.0,-7936.0,6784.0
8.1975,-13888.0,-8000.0,6784.0
8.2,-13888.0,-7936.0,6720.0
8.2025,-13824.0,-7936.0,6656.0
8.205,-13760.0,-7936.0,6656.0
8.2075,-13760.0,-8000.0,6592.0
8.21,-13632.0,-7936.0,6592.0
8.2125,-13632.0,-7936.0,6528.0
8.215,-13632.0,-7872.0,6528.0
8.2175,-13504.0,-7872.0,6656.0
8.22,-13504.0,-7872.0,6592.0
8.2225,-13376.0,-7808.0,6592.0
8.225,-13376.0,-7808.0,6528.0
8.2275,-13248.0,-7808.0,6592.0
8.23,-13248.0,-7808.0,6528.0
8.2325,-13184.0,-7744.0,6528.0
8.235,-13120.0,-7744.0,6464.0
8.2375,-13056.0,-7744.0,6528.0
8.24,-12928.0,-7808.0,6592.0
8.2425,-12864.0,-7744.0,6528.0
8.245,-12800.0,-7744.0,6528.0
8.2475,-12800.0,-7680.0,6592.0
8.25,-12864.0,-7616.0,6528.0
8.2525,-12736.0,-7552.0,6528.0
8.255,-12672.0,-7616.0,6528.0
8.2575,-12672.0,-7616.0,6656.0
8.26,-12672.0,-7680.0,6592.0
8.2625,-12608.0,-7616.0,6528.0
8.265,-12608.0,-7552.0,6464.0
8.2675,-12608.0,-7552.0,6400.0
8.27,-12608.0,-7552.0,6464.0
8.2725,-12608.0,-7488.0,6464.0
8.275,-12544.0,-7488.0,6464.0
8.2775,-12544.0,-7552.0,6464.0
8.28,-12608.0,-7552.0,6464.0
8.2825,-12608.0,-7552.0,6464.0
8.285,-12608.0,-7616.0,6464.0
8.2875,-12608.0,-7552.0,6464.0
8.29,-12544.0,-7552.0,6528.0
8.2925,-12544.0,-7488.0,6528.0
8.295,-12608.0,-7488.0,6464.0
8.2975,-12608.0,-7488.0,6464.0
8.3,-12608.0,-7488.0,6400.0
8.3025,-12672.0,-7424.0,6400.0
8.305,-12672.0,-7424.0,6400.0
8.3075,-12672.0,-7424.0,6464.0
8.31,-12672.0,-7424.0,6464.0
8.3125,-12800.0,-7488.0,6464.0
8.315,-12736.0,-7488.0,6400.0
8.3175,-12736.0,-7488.0,6400.0
8.32,-12800.0,-7488.0,6400.0
8.3225,-12736.0,-7488.0,6400.0
8.325,-12736.0,-7488.0,6400.0
8.3275,-12800.0,-7488.0,6336.0
8.33,-12864.0,-7488.0,6400.0
8.3325,-12800.0,-7552.0,6400.0
8.335,-12864.0,-7552.0,6400.0
8.3375,-12864.0,-7488.0,6336.0
8.34,-12864.0,-7552.0,6400.0
8.3425,-12928.0,-7552.0,6336.0
8.345,-12928.0,-7552.0,6400.0
8.3475,-12992.0,-7616.0,6336.0
8.35,-12992.0,-7616.0,6336.0
8.3525,-13056.0,-7680.0,6272.0
8.355,-13056.0,-7680.0,6272.0
8.3575,-13120.0,-7744.0,6272.0
8.36,-13120.0,-7744.0,6208.0
8.3625,-13120.0,-7808.0,6208.0
8.365,-13184.0,-7808.0,6272.0
8.3675,-13184.0,-7872.0,6336.0
8.37,-13248.0,-7872.0,6336.0
8.3725,-13312.0,-7872.0,6336.0
8.375,-13376.0,-7872.0,6400.0
8.3775,-13376.0,-7808.0,6400.0
8.38,-13376.0,-7872.0,6400.0
8.3825,-13376.0,-7936.0,6400.0
8.385,-13440.0,-7872.0,6400.0
8.3875,-13440.0,-7936.0,6400.0
8.39,-13440.0,-8000.0,6336.0
8.3925,-13440.0,-8000.0,6336.0
8.395,-13504.0,-7936.0,6336.0
8.3975,-13504.0,-7936.0,6272.0
8.4,-13440.0,-7936.0,6336.0
8.4025,-13440.0,-7936.0,6336.0
8.405,-13376.0,-7936.0,6400.0
8.4075,-13376.0,-7936.0,6336.0
8.41,-13312.0,-7936.0,6336.0
8.4125,-13312.0,-7872.0,6336.0
8.415,-13248.0,-7872.0,6400.0
8.4175,-13248.0,-7872.0,6400.0
8.42,-13248.0,-7872.0,6336.0
8.4225,-13248.0,-7808.0,6272.0
8.425,-13184.0,-7744.0,6400.0
8.4275,-13120.0,-7744.0,6400.0
8.43,-13120.0,-7680.0,6336.0
8.4325,-13056.0,-7680.0,6272.0
8.435,-13056.0,-7744.0,6336.0
8.4375,-13056.0,-7744.0,6336.0
8.44,-12992.0,-7680.0,6400.0
8.4425,-12992.0,-7680.0,6400.0
8.445,-12992.0,-7616.0,6336.0
8.4475,-12992.0,-7680.0,6400.0
8.45,-12992.0,-7744.0,6528.0
8.4525,-12992.0,-7744.0,6592.0
8.455,-13056.0,-7744.0,6592.0
8.4575,-13056.0,-7680.0,6592.0
8.46,-13056.0,-7744.0,6592.0
8.4625,-13056.0,-7744.0,6528.0
8.465,-13120.0,-7680.0,6528.0
8.4675,-13184.0,-7808.0,6528.0
8.47,-13120.0,-7808.0,6464.0
8.4725,-13120.0,-7808.0,6464.0
8.475,-13120.0,-7808.0,6464.0
8.4775,-13248.0,-7808.0,6400.0
8.48,-13248.0,-7808.0,6336.0
8.4825,-13312.0,-7808.0,6336.0
8.485,-13184.0,-7808.0,6208.0
8.4875,-13248.0,-7744.0,6144.0
8.49,-13248.0,-7744.0,6208.0
8.4925,-13184.0,-7744.0,6144.0
8.495,-13184.0,-7744.0,6144.0
8.4975,-13248.0,-7744.0,6144.0
8.5,-13248.0,-7808.0,6336.0
8.5025,-13120.0,-7744.0,6336.0
8.505,-13184.0,-7744.0,6400.0
8.5075,-13248.0,-7744.0,6336.0
8.51,-13248.0,-7808.0,6336.0
8.5125,-13184.0,-7808.0,6272.0
8.515,-13120.0,-7808.0,6400.0
8.5175,-13056.0,-7872.0,6464.0
8.52,-13120.0,-7808.0,6400.0
8.5225,-13120.0,-7872.0,6464.0
8.525,-13120.0,-7936.0,6528.0
8.5275,-13120.0,-7936.0,6528.0
8.53,-13120.0,-7936.0,6528.0
8.5325,-13120.0,-7936.0,6528.0
8.535,-13120.0,-7936.0,6528.0
8.5375,-13120.0,-7936.0,6528.0
8.54,-13120.0,-7872.0,6464.0
8.5425,-13120.0,-7872.0,6464.0
8.545,-13056.0,-7872.0,6464.0
8.5475,-12992.0,-7872.0,6464.0
8.55,-13056.0,-7872.0,6464.0
8.5525,-13056.0,-7872.0,6464.0
8.555,-13056.0,-7872.0,6464.0
8.5575,-13056.0,-7936.0,6464.0
8.56,-13120.0,-7936.0,6400.0
8.5625,-13056.0,-7936.0,6272.0
8.565,-13120.0,-7872.0,6336.0
8.5675,-13120.0,-7872.0,6400.0
8.57,-13120.0,-7872.0,6272.0
8.5725,-13184.0,-7808.0,6400.0
8.575,-13184.0,-7872.0,6336.0
8.5775,-13184.0,-7808.0,6400.0
8.58,-13248.0,-7808.0,6272.0
8.5825,-13184.0,-7872.0,6336.0
8.585,-13248.0,-7808.0,6400.0
8.5875,-13312.0,-7744.0,6400.0
8.59,-13312.0,-7808.0,6336.0
8.5925,-13312.0,-7744.0,6400.0
8.595,-13248.0,-7744.0,6400.0
8.5975,-13248.0,-7744.0,6400.0
8.6,-13312.0,-7744.0,6400.0
8.6025,-13184.0,-7744.0,6400.0
8.605,-13184.0,-7808.0,6400.0
8.6075,-13248.0,-7808.0,6336.0
8.61,-13248.0,-7872.0,6336.0
8.6125,-13248.0,-7936.0,6336.0
8.615,-13184.0,-7936.0,6272.0
8.6175,-13184.0,-7936.0,6336.0
8.62,-13184.0,-8000.0,6336.0
8.6225,-13184.0,-8000.0,6336.0
8.625,-13248.0,-8000.0,6272.0
8.6275,-13184.0,-8064.0,6272.0
8.63,-13120.0,-8000.0,6336.0
8.6325,-13120.0,-7936.0,6272.0
8.635,-13120.0,-7872.0,6336.0
8.6375,-13120.0,-7808.0,6400.0
8.64,-13056.0,-7808.0,6464.0
8.6425,-13056.0,-7744.0,6528.0
8.645,-12992.0,-7744.0,6528.0
8.6475,-12928.0,-7744.0,6528.0
8.65,-12928.0,-7616.0,6464.0
8.6525,-12928.0,-7488.0,6336.0
8.655,-12864.0,-7424.0,6400.0
8.6575,-12864.0,-7360.0,6464.0
8.66,-12864.0,-7232.0,6400.0
8.6625,-12800.0,-7168.0,6464.0
8.665,-12736.0,-7104.0,6400.0
8.6675,-12736.0,-6976.0,6336.0
8.67,-12672.0,-6976.0,6400.0
8.6725,-12672.0,-6912.0,6464.0
8.675,-12672.0,-6848.0,6400.0
8.6775,-12672.0,-6848.0,6400.0
8.68,-12608.0,-6784.0,6400.0
8.6825,-12608.0,-6784.0,6464.0
8.685,-12608.0,-6784.0,6464.0
8.6875,-12544.0,-6784.0,6464.0
8.69,-12544.0,-6720.0,6400.0
8.6925,-12608.0,-6784.0,6400.0
8.695,-12608.0,-6784.0,6400.0
8.6975,-12608.0,-6848.0,6400.0
8.7,-12672.0,-6848.0,6400.0
8.7025,-12608.0,-6912.0,6528.0
8.705,-12672.0,-6912.0,6464.0
8.7075,-12672.0,-7040.0,6464.0
8.71,-12672.0,-6976.0,6464.0
8.7125,-12672.0,-6976.0,6528.0
8.715,-12672.0,-6976.0,6528.0
8.7175,-12672.0,-6976.0,6528.0
8.72,-12736.0,-7040.0,6528.0
8.7225,-12672.0,-7040.0,6528.0
8.725,-12608.0,-6976.0,6592.0
8.7275,-12672.0,-6976.0,6592.0
8.73,-12608.0,-7040.0,6592.0
8.7325,-12672.0,-7040.0,6720.0
8.735,-12736.0,-7040.0,6656.0
8.7375,-12736.0,-7040.0,6656.0
8.74,-12736.0,-7040.0,6656.0
8.7425,-12736.0,-7040.0,6656.0
8.745,-12736.0,-6976.0,6656.0
8.7475,-12736.0,-6976.0,6656.0
8.75,-12672.0,-6912.0,6656.0
8.7525,-12736.0,-6912.0,6720.0
8.755,-12672.0,-6976.0,6656.0
8.7575,-12672.0,-6976.0,6656.0
8.76,-12608.0,-6976.0,6656.0
8.7625,-12672.0,-6912.0,6592.0
8.765,-12608.0,-6976.0,6592.0
8.7675,-12608.0,-7040.0,6656.0
8.77,-12544.0,-7040.0,6656.0
8.7725,-12544.0,-7168.0,6656.0
8.775,-12544.0,-7168.0,6656.0
8.7775,-12544.0,-7168.0,6656.0
8.78,-12544.0,-7168.0,6656.0
8.7825,-12480.0,-7168.0,6656.0
8.785,-12480.0,-7168.0,6720.0
8.7875,-12416.0,-7104.0,6720.0
8.79,-12352.0,-7104.0,6656.0
8.7925,-12288.0,-7040.0,6656.0
8.795,-12224.0,-7040.0,6656.0
8.7975,-12224.0,-7040.0,6656.0
8.8,-12224.0,-7040.0,6784.0
8.8025,-12224.0,-7040.0,6720.0
8.805,-12224.0,-7104.0,6720.0
8.8075,-12224.0,-7104.0,6720.0
8.81,-12288.0,-7104.0,6656.0
8.8125,-12352.0,-7168.0,6656.0
8.815,-12352.0,-7104.0,6656.0
8.8175,-12416.0,-7168.0,6720.0
8.82,-12480.0,-7232.0,6720.0
8.8225,-12608.0,-7296.0,6656.0
8.825,-12608.0,-7296.0,6720.0
8.8275,-12736.0,-7360.0,6720.0
8.83,-12800.0,-7424.0,6720.0
8.8325,-12928.0,-7424.0,6720.0
8.835,-13056.0,-7488.0,6592.0
8.8375,-13120.0,-7488.0,6656.0
8.84,-13184.0,-7488.0,6656.0
8.8425,-13312.0,-7552.0,6656.0
8.845,-13376.0,-7552.0,6656.0
8.8475,-13504.0,-7616.0,6656.0
8.85,-13568.0,-7616.0,6592.0
8.8525,-13696.0,-7616.0,6592.0
8.855,-13760.0,-7680.0,6592.0
8.8575,-13952.0,-7616.0,6592.0
8.86,-13952.0,-7680.0,6528.0
8.8625,-14016.0,-7744.0,6592.0
8.865,-14080.0,-7808.0,6592.0
8.8675,-14336.0,-7808.0,6528.0
8.87,-14208.0,-7872.0,6528.0
8.8725,-14272.0,-7808.0,6528.0
8.875,-14272.0,-7872.0,6592.0
8.8775,-14272.0,-7808.0,6528.0
8.88,-14208.0,-7808.0,6656.0
8.8825,-14208.0,-7808.0,6656.0
8.885,-14144.0,-7808.0,6656.0
8.8875,-14080.0,-7808.0,6656.0
8.89,-14016.0,-7808.0,6592.0
8.8925,-14080.0,-7872.0,6656.0
8.895,-14080.0,-7872.0,6720.0
8.8975,-14016.0,-7872.0,6592.0
8.9,-14016.0,-7936.0,6656.0
8.9025,-13952.0,-7872.0,6592.0
8.905,-13952.0,-7872.0,6528.0
8.9075,-13888.0,-7936.0,6592.0
8.91,-13952.0,-7936.0,6592.0
8.9125,-13888.0,-7936.0,6592.0
8.915,-13888.0,-7872.0,6592.0
8.9175,-13888.0,-7872.0,6528.0
8.92,-13888.0,-7872.0,6528.0
8.9225,-13888.0,-7872.0,6656.0
8.925,-13824.0,-7872.0,6592.0
8.9275,-13888.0,-7936.0,6592.0
8.93,-13952.0,-7936.0,6592.0
8.9325,-13888.0,-7936.0,6592.0
8.935,-13888.0,-7936.0,6592.0
8.9375,-13952.0,-7936.0,6528.0
8.94,-14016.0,-7936.0,6656.0
8.9425,-14016.0,-7936.0,6656.0
8.945,-14016.0,-7936.0,6592.0
8.9475,-14016.0,-7872.0,6592.0
8.95,-14016.0,-7872.0,6656.0
8.9525,-14016.0,-7936.0,6592.0
8.955,-14144.0,-7936.0,6592.0
8.9575,-14208.0,-7936.0,6528.0
8.96,-14400.0,-8000.0,6592.0
8.9625,-14336.0,-8064.0,6592.0
8.965,-14400.0,-8000.0,6528.0
8.9675,-14464.0,-8000.0,6464.0
8.97,-14592.0,-8000.0,6528.0
8.9725,-14592.0,-8000.0,6592.0
8.975,-14528.0,-8000.0,6528.0
8.9775,-14592.0,-8000.0,6528.0
8.98,-14528.0,-7936.0,6464.0
8.9825,-14592.0,-7936.0,6400.0
8.985,-14528.0,-7872.0,6528.0
8.9875,-14592.0,-7872.0,6592.0
8.99,-14528.0,-7808.0,6656.0
8.9925,-14464.0,-7744.0,6720.0
8.995,-14400.0,-7808.0,6656.0
8.9975,-14400.0,-7808.0,6592.0
9.0,-14400.0,-7744.0,6656.0
9.0025,-14464.0,-7680.0,6592.0
9.005,-14336.0,-7680.0,6592.0
9.0075,-14272.0,-7680.0,6592.0
9.01,-14272.0,-7616.0,6464.0
9.0125,-14272.0,-7616.0,6464.0
9.015,-14208.0,-7488.0,6400.0
9.0175,-14208.0,-7488.0,6400.0
9.02,-14144.0,-7424.0,6400.0
9.0225,-14144.0,-7360.0,6336.0
9.025,-14144.0,-7296.0,6336.0
9.0275,-14144.0,-7296.0,6272.0
9.03,-14144.0,-7360.0,6336.0
9.0325,-14144.0,-7296.0,6464.0
9.035,-14144.0,-7296.0,6400.0
9.0375,-14144.0,-7296.0,6400.0
9.04,-14272.0,-7296.0,6464.0
9.0425,-14336.0,-7360.0,6464.0
9.045,-14336.0,-7296.0,6528.0
9.0475,-14400.0,-7296.0,6528.0
9.05,-14464.0,-7296.0,6592.0
9.0525,-14592.0,-7296.0,6656.0
9.055,-14656.0,-7232.0,6656.0
9.0575,-14656.0,-7168.0,6592.0
9.06,-14656.0,-7232.0,6592.0
9.0625,-14720.0,-7232.0,6656.0
9.065,-14784.0,-7168.0,6720.0
9.0675,-14784.0,-7232.0,6656.0
9.07,-14848.0,-7104.0,6656.0
9.0725,-14848.0,-7104.0,6656.0
9.075,-14912.0,-7040.0,6656.0
9.0775,-14848.0,-6976.0,6592.0
9.08,-14912.0,-6912.0,6592.0
9.0825,-14976.0,-6912.0,6592.0
9.085,-14976.0,-6976.0,6592.0
9.0875,-15040.0,-6912.0,6656.0
9.09,-15104.0,-6912.0,6656.0
9.0925,-15168.0,-6912.0,6656.0
9.095,-15232.0,-6976.0,6592.0
9.0975,-15296.0,-6976.0,6656.0
9.1,-15360.0,-6976.0,6656.0
9.1025,-15488.0,-6912.0,6720.0
9.105,-15616.0,-6848.0,6720.0
9.1075,-15616.0,-6848.0,6720.0
9.11,-15680.0,-6784.0,6720.0
9.1125,-15680.0,-6784.0,6784.0
9.115,-15680.0,-6784.0,6784.0
9.1175,-15744.0,-6784.0,6848.0
9.12,-15808.0,-6720.0,6784.0
9.1225,-15936.0,-6784.0,6656.0
9.125,-16064.0,-6720.0,6720.0
9.1275,-16192.0,-6784.0,6720.0
9.13,-16320.0,-6784.0,6656.0
9.1325,-16448.0,-6784.0,6592.0
9.135,-16512.0,-6720.0,6464.0
9.1375,-16640.0,-6720.0,6528.0
9.14,-16832.0,-6720.0,6528.0
9.1425,-16960.0,-6720.0,6400.0
9.145,-17152.0,-6784.0,6464.0
9.1475,-17344.0,-6784.0,6400.0
9.15,-17536.0,-6848.0,6464.0
9.1525,-17600.0,-6912.0,6464.0
9.155,-17792.0,-6976.0,6528.0
9.1575,-17920.0,-6976.0,6528.0
9.16,-18048.0,-7104.0,6592.0
9.1625,-18176.0,-7104.0,6528.0
9.165,-18304.0,-7104.0,6656.0
9.1675,-18432.0,-7104.0,6720.0
9.17,-18560.0,-7168.0,6784.0
9.1725,-18624.0,-7168.0,6848.0
9.175,-18688.0,-7168.0,6848.0
9.1775,-18752.0,-7168.0,6784.0
9.18,-18880.0,-7040.0,6848.0
9.1825,-18880.0,-6976.0,6784.0
9.185,-19008.0,-6976.0,6720.0
9.1875,-19008.0,-6976.0,6720.0
9.19,-19008.0,-6976.0,6656.0
9.1925,-19008.0,-6976.0,6592.0
9.195,-19072.0,-6976.0,6528.0
9.1975,-19008.0,-6912.0,6592.0
9.2,-18944.0,-6848.0,6528.0
9.2025,-18880.0,-6848.0,6464.0
9.205,-18816.0,-6848.0,6400.0
9.2075,-18752.0,-6720.0,6400.0
9.21,-18752.0,-6656.0,6464.0
9.2125,-18624.0,-6592.0,6592.0
9.215,-18560.0,-6464.0,6528.0
9.2175,-18368.0,-6400.0,6528.0
9.22,-18176.0,-6336.0,6528.0
9.2225,-18048.0,-6272.0,6528.0
9.225,-17856.0,-6144.0,6592.0
9.2275,-17664.0,-6016.0,6528.0
9.23,-17472.0,-5888.0,6592.0
9.2325,-17280.0,-5824.0,6592.0
9.235,-16960.0,-5696.0,6656.0
9.2375,-16704.0,-5632.0,6656.0
9.24,-16448.0,-5568.0,6720.0
9.2425,-16192.0,-5504.0,6656.0
9.245,-16000.0,-5376.0,6720.0
9.2475,-15744.0,-5248.0,6656.0
9.25,-15616.0,-5120.0,6656.0
9.2525,-15424.0,-5056.0,6656.0
9.255,-15232.0,-4928.0,6656.0
9.2575,-15104.0,-4928.0,6656.0
9.26,-14912.0,-4864.0,6592.0
9.2625,-14784.0,-4736.0,6592.0
9.265,-14592.0,-4736.0,6464.0
9.2675,-14528.0,-4672.0,6336.0
9.27,-14400.0,-4608.0,6272.0
9.2725,-14336.0,-4544.0,6208.0
9.275,-14208.0,-4480.0,6208.0
9.2775,-14144.0,-4544.0,6144.0
9.28,-13952.0,-4416.0,6144.0
9.2825,-13824.0,-4352.0,6208.0
9.285,-13696.0,-4352.0,6208.0
9.2875,-13632.0,-4224.0,6272.0
9.29,-13632.0,-4160.0,6272.0
9.2925,-13568.0,-4096.0,6272.0
9.295,-13568.0,-4096.0,6272.0
9.2975,-13504.0,-4032.0,6272.0
9.3,-13440.0,-4032.0,6272.0
9.3025,-13440.0,-4096.0,6336.0
9.305,-13376.0,-4096.0,6272.0
9.3075,-13376.0,-4096.0,6336.0
9.31,-13312.0,-4160.0,6272.0
9.3125,-13248.0,-4096.0,6208.0
9.315,-13248.0,-4096.0,6144.0
9.3175,-13248.0,-4160.0,6208.0
9.32,-13184.0,-4160.0,6208.0
9.3225,-13184.0,-4160.0,6208.0
9.325,-13248.0,-4160.0,6208.0
9.3275,-13120.0,-4096.0,6144.0
9.33,-13184.0,-4096.0,6144.0
9.3325,-13120.0,-4032.0,6208.0
9.335,-13184.0,-4032.0,6144.0
9.3375,-13248.0,-4160.0,6080.0
9.34,-13248.0,-4096.0,6080.0
9.3425,-13248.0,-4032.0,6016.0
9.345,-13312.0,-4032.0,6080.0
9.3475,-13376.0,-4032.0,6080.0
9.35,-13440.0,-4032.0,6016.0
9.3525,-13568.0,-3968.0,6016.0
9.355,-13696.0,-3904.0,6016.0
9.3575,-13696.0,-3904.0,6016.0
9.36,-14016.0,-3968.0,5952.0
9.3625,-14080.0,-3968.0,5888.0
9.365,-14208.0,-4032.0,5888.0
9.3675,-14336.0,-4032.0,5952.0
9.37,-14464.0,-4032.0,6016.0
9.3725,-14528.0,-4096.0,6016.0
9.375,-14592.0,-4096.0,6080.0
9.3775,-14656.0,-4096.0,6080.0
9.38,-14592.0,-4096.0,5952.0
9.3825,-14656.0,-4096.0,5952.0
9.385,-14720.0,-4096.0,6080.0
9.3875,-14720.0,-4096.0,5952.0
9.39,-14656.0,-4096.0,6016.0
9.3925,-14656.0,-4096.0,6080.0
9.395,-14656.0,-4096.0,6016.0
9.3975,-14720.0,-4032.0,6016.0
9.4,-14784.0,-4032.0,5952.0
9.4025,-14656.0,-4032.0,5952.0
9.405,-14720.0,-3968.0,5952.0
9.4075,-14592.0,-3968.0,5888.0
9.41,-14528.0,-4032.0,5888.0
9.4125,-14528.0,-3968.0,5888.0
9.415,-14528.0,-3968.0,5952.0
9.4175,-14400.0,-3968.0,5888.0
9.42,-14400.0,-3968.0,5888.0
9.4225,-14336.0,-3968.0,5888.0
9.425,-14400.0,-4032.0,5888.0
9.4275,-14272.0,-3968.0,5952.0
9.43,-14208.0,-3968.0,5952.0
9.4325,-14208.0,-4032.0,5952.0
9.435,-14144.0,-3968.0,5952.0
9.4375,-14144.0,-3904.0,5952.0
9.44,-14144.0,-3968.0,6016.0
9.4425,-14080.0,-3968.0,6080.0
9.445,-14016.0,-3904.0,5952.0
9.4475,-14016.0,-3904.0,5888.0
9.45,-14016.0,-3904.0,6016.0
9.4525,-14016.0,-3904.0,5952.0
9.455,-14016.0,-3904.0,5888.0
9.4575,-13888.0,-3904.0,5952.0
9.46,-13824.0,-3904.0,5952.0
9.4625,-13824.0,-3904.0,5952.0
9.465,-13888.0,-3904.0,5952.0
9.4675,-13824.0,-3904.0,5888.0
9.47,-13760.0,-3904.0,5952.0
9.4725,-13760.0,-3904.0,6016.0
9.475,-13760.0,-3904.0,6016.0
9.4775,-13696.0,-3904.0,6016.0
9.48,-13760.0,-3904.0,6016.0
9.4825,-13632.0,-3904.0,5952.0
9.485,-13696.0,-3904.0,5952.0
9.4875,-13696.0,-3904.0,5952.0
9.49,-13696.0,-3904.0,5888.0
9.4925,-13696.0,-3840.0,5888.0
9.495,-13696.0,-3904.0,5952.0
9.4975,-13696.0,-3840.0,5824.0
9.5,-13760.0,-3776.0,5952.0
9.5025,-13760.0,-3776.0,5952.0
9.505,-13760.0,-3776.0,5952.0
9.5075,-13824.0,-3840.0,5888.0
9.51,-13824.0,-3840.0,5888.0
9.5125,-13760.0,-3840.0,5888.0
9.515,-13760.0,-3840.0,5952.0
9.5175,-13824.0,-3840.0,5952.0
9.52,-13888.0,-3840.0,5888.0
9.5225,-13952.0,-3840.0,5888.0
9.525,-13888.0,-3840.0,5888.0
9.5275,-13952.0,-3840.0,5760.0
9.53,-14016.0,-3840.0,5760.0
9.5325,-14080.0,-3840.0,5824.0
9.535,-14080.0,-3840.0,5760.0
9.5375,-14144.0,-3904.0,5760.0
9.54,-14080.0,-3904.0,5760.0
9.5425,-14080.0,-3904.0,5696.0
9.545,-14080.0,-3904.0,5824.0
9.5475,-14144.0,-3904.0,5696.0
9.55,-14144.0,-3904.0,5824.0
9.5525,-14144.0,-3968.0,5760.0
9.555,-14080.0,-3968.0,5760.0
9.5575,-14144.0,-3968.0,5760.0
9.56,-14144.0,-3968.0,5760.0
9.5625,-14208.0,-3968.0,5824.0
9.565,-14272.0,-3968.0,5760.0
9.5675,-14208.0,-4032.0,5760.0
9.57,-14208.0,-4032.0,5760.0
9.5725,-14144.0,-4032.0,5696.0
9.575,-14144.0,-4032.0,5696.0
9.5775,-14144.0,-4096.0,5696.0
9.58,-14144.0,-4096.0,5696.0
9.5825,-14208.0,-4096.0,5632.0
9.585,-14208.0,-4032.0,5632.0
9.5875,-14272.0,-4032.0,5632.0
9.59,-14272.0,-4096.0,5696.0
9.5925,-14272.0,-4096.0,5568.0
9.595,-14208.0,-4032.0,5568.0
9.5975,-14208.0,-4096.0,5568.0
9.6,-14208.0,-4096.0,5568.0
9.6025,-14144.0,-4096.0,5568.0
9.605,-14208.0,-4160.0,5696.0
9.6075,-14208.0,-4096.0,5696.0
9.61,-14336.0,-4160.0,5696.0
9.6125,-14272.0,-4160.0,5696.0
9.615,-14208.0,-4096.0,5632.0
9.6175,-14208.0,-4096.0,5632.0
9.62,-14272.0,-4160.0,5632.0
9.6225,-14272.0,-4096.0,5632.0
9.625,-14208.0,-4096.0,5632.0
9.6275,-14208.0,-4096.0,5696.0
9.63,-14272.0,-4160.0,5632.0
9.6325,-14336.0,-4096.0,5632.0
9.635,-14272.0,-4096.0,5504.0
9.6375,-14336.0,-4160.0,5504.0
9.64,-14400.0,-4160.0,5568.0
9.6425,-14336.0,-4160.0,5568.0
9.645,-14400.0,-4096.0,5632.0
9.6475,-14464.0,-4096.0,5568.0
9.65,-14400.0,-4096.0,5632.0
9.6525,-14464.0,-4096.0,5696.0
9.655,-14464.0,-4096.0,5632.0
9.6575,-14464.0,-4096.0,5696.0
9.66,-14464.0,-4096.0,5696.0
9.6625,-14464.0,-4096.0,5696.0
9.665,-14400.0,-4032.0,5760.0
9.6675,-14400.0,-4096.0,5824.0
9.67,-14400.0,-4032.0,5824.0
9.6725,-14336.0,-4032.0,5952.0
9.675,-14336.0,-4096.0,5888.0
9.6775,-14272.0,-4032.0,5952.0
9.68,-14208.0,-3968.0,5952.0
9.6825,-14208.0,-3904.0,5952.0
9.685,-14208.0,-3968.0,5888.0
9.6875,-14208.0,-3904.0,5888.0
9.69,-14144.0,-3904.0,5824.0
9.6925,-14144.0,-3968.0,5824.0
9.695,-14144.0,-3904.0,5760.0
9.6975,-14080.0,-3904.0,5760.0
9.7,-14080.0,-3840.0,5696.0
9.7025,-14080.0,-3840.0,5824.0
9.705,-14080.0,-3776.0,5824.0
9.7075,-14016.0,-3776.0,5824.0
9.71,-14080.0,-3840.0,5824.0
9.7125,-14080.0,-3776.0,5760.0
9.715,-14144.0,-3712.0,5760.0
9.7175,-14080.0,-3776.0,5696.0
9.72,-14144.0,-3840.0,5696.0
9.7225,-14144.0,-3776.0,5760.0
9.725,-14144.0,-3712.0,5696.0
9.7275,-14144.0,-3776.0,5696.0
9.73,-14144.0,-3776.0,5696.0
9.7325,-14208.0,-3776.0,5696.0
9.735,-14272.0,-3840.0,5696.0
9.7375,-14272.0,-3776.0,5696.0
9.74,-14272.0,-3776.0,5696.0
9.7425,-14336.0,-3840.0,5696.0
9.745,-14336.0,-3840.0,5632.0
9.7475,-14400.0,-3840.0,5568.0
9.75,-14464.0,-3840.0,5568.0
9.7525,-14464.0,-3904.0,5568.0
9.755,-14400.0,-3904.0,5632.0
9.7575,-14400.0,-3904.0,5696.0
9.76,-14464.0,-3904.0,5632.0
9.7625,-14464.0,-3968.0,5632.0
9.765,-14464.0,-3904.0,5632.0
9.7675,-14464.0,-3968.0,5632.0
9.77,-14464.0,-3968.0,5696.0
9.7725,-14464.0,-3904.0,5760.0
9.775,-14464.0,-4032.0,5696.0
9.7775,-14400.0,-3968.0,5696.0
9.78,-14400.0,-4032.0,5824.0
9.7825,-14400.0,-4032.0,5824.0
9.785,-14464.0,-4096.0,5888.0
9.7875,-14336.0,-4032.0,5824.0
9.79,-14336.0,-4032.0,5824.0
9.7925,-14336.0,-4032.0,5824.0
9.795,-14336.0,-4032.0,5824.0
9.7975,-14272.0,-4032.0,5824.0
9.8,-14272.0,-4032.0,5824.0
9.8025,-14208.0,-4032.0,5824.0
9.805,-14144.0,-4096.0,5824.0
9.8075,-14144.0,-4096.0,5888.0
9.81,-14080.0,-4096.0,5824.0
9.8125,-14016.0,-4096.0,5888.0
9.815,-13888.0,-4096.0,5824.0
9.8175,-13888.0,-4096.0,5824.0
9.82,-13888.0,-4096.0,5824.0
9.8225,-13760.0,-4160.0,5824.0
9.825,-13696.0,-4096.0,5760.0
9.8275,-13632.0,-4032.0,5824.0
9.83,-13632.0,-4096.0,5888.0
9.8325,-13568.0,-4096.0,5760.0
9.835,-13568.0,-4096.0,5760.0
9.8375,-13504.0,-4096.0,5696.0
9.84,-13376.0,-4032.0,5760.0
9.8425,-13376.0,-4096.0,5760.0
9.845,-13312.0,-4032.0,5760.0
9.8475,-13248.0,-4032.0,5696.0
9.85,-13248.0,-4032.0,5760.0
9.8525,-13184.0,-4096.0,5760.0
9.855,-13184.0,-4096.0,5760.0
9.8575,-13184.0,-4096.0,5760.0
9.86,-13184.0,-4160.0,5760.0
9.8625,-13184.0,-4160.0,5760.0
9.865,-13184.0,-4096.0,5760.0
9.8675,-13248.0,-4160.0,5760.0
9.87,-13312.0,-4160.0,5696.0
9.8725,-13312.0,-4160.0,5696.0
9.875,-13376.0,-4224.0,5760.0
9.8775,-13440.0,-4160.0,5760.0
9.88,-13440.0,-4160.0,5760.0
9.8825,-13504.0,-4096.0,5760.0
9.885,-13568.0,-4096.0,5760.0
9.8875,-13632.0,-4160.0,5696.0
9.89,-13696.0,-4224.0,5760.0
9.8925,-13632.0,-4288.0,5824.0
9.895,-13696.0,-4288.0,5696.0
9.8975,-13760.0,-4224.0,5696.0
9.9,-13824.0,-4288.0,5696.0
9.9025,-13888.0,-4288.0,5632.0
9.905,-13888.0,-4288.0,5696.0
9.9075,-13952.0,-4288.0,5632.0
9.91,-13952.0,-4352.0,5568.0
9.9125,-14080.0,-4352.0,5568.0
9.915,-14080.0,-4288.0,5568.0
9.9175,-14080.0,-4352.0,5504.0
9.92,-14080.0,-4288.0,5440.0
