time_stamp,acc_x,acc_y,acc_z
0.0,-15296.0,-5312.0,-64.0
0.0025,-15232.0,-5312.0,-128.0
0.005,-15232.0,-5248.0,-64.0
0.0075,-15296.0,-5312.0,-64.0
0.01,-15232.0,-5312.0,-64.0
0.0125,-15232.0,-5248.0,-64.0
0.015,-15296.0,-5248.0,-128.0
0.0175,-15296.0,-5248.0,-128.0
0.02,-15296.0,-5248.0,-128.0
0.0225,-15296.0,-5184.0,-128.0
0.025,-15296.0,-5248.0,-128.0
0.0275,-15296.0,-5248.0,-128.0
0.03,-15360.0,-5184.0,-128.0
0.0325,-15360.0,-5312.0,-128.0
0.035,-15360.0,-5248.0,-192.0
0.0375,-15360.0,-5312.0,-128.0
0.04,-15360.0,-5312.0,-192.0
0.0425,-15424.0,-5312.0,-192.0
0.045,-15424.0,-5248.0,-192.0
0.0475,-15424.0,-5248.0,-192.0
0.05,-15488.0,-5312.0,-192.0
0.0525,-15552.0,-5312.0,-192.0
0.055,-15488.0,-5312.0,-192.0
0.0575,-15488.0,-5376.0,-256.0
0.06,-15488.0,-5376.0,-256.0
0.0625,-15488.0,-5376.0,-256.0
0.065,-15488.0,-5312.0,-256.0
0.0675,-15424.0,-5312.0,-256.0
0.07,-15424.0,-5376.0,-320.0
0.0725,-15488.0,-5440.0,-256.0
0.075,-15552.0,-5440.0,-320.0
0.0775,-15552.0,-5440.0,-320.0
0.08,-15616.0,-5504.0,-256.0
0.0825,-15552.0,-5440.0,-320.0
0.085,-15552.0,-5440.0,-256.0
0.0875,-15552.0,-5376.0,-320.0
0.09,-15552.0,-5376.0,-384.0
0.0925,-15552.0,-5440.0,-384.0
0.095,-15616.0,-5440.0,-384.0
0.0975,-15616.0,-5504.0,-320.0
0.1,-15552.0,-5504.0,-384.0
0.1025,-15552.0,-5504.0,-448.0
0.105,-15552.0,-5504.0,-384.0
0.1075,-15552.0,-5504.0,-448.0
0.11,-15552.0,-5504.0,-384.0
0.1125,-15552.0,-5504.0,-384.0
0.115,-15488.0,-5504.0,-384.0
0.1175,-15552.0,-5504.0,-384.0
0.12,-15488.0,-5568.0,-320.0
0.1225,-15424.0,-5504.0,-256.0
0.125,-15424.0,-5504.0,-384.0
0.1275,-15488.0,-5568.0,-384.0
0.13,-15424.0,-5568.0,-384.0
0.1325,-15488.0,-5504.0,-384.0
0.135,-15424.0,-5504.0,-320.0
0.1375,-15424.0,-5568.0,-320.0
0.14,-15424.0,-5568.0,-320.0
0.1425,-15424.0,-5504.0,-384.0
0.145,-15424.0,-5568.0,-448.0
0.1475,-15360.0,-5568.0,-320.0
0.15,-15424.0,-5568.0,-384.0
0.1525,-15424.0,-5632.0,-384.0
0.155,-15424.0,-5568.0,-320.0
0.1575,-15424.0,-5568.0,-384.0
0.16,-15424.0,-5568.0,-384.0
0.1625,-15424.0,-5632.0,-384.0
0.165,-15296.0,-5568.0,-384.0
0.1675,-15360.0,-5568.0,-320.0
0.17,-15360.0,-5568.0,-384.0
0.1725,-15296.0,-5568.0,-384.0
0.175,-15360.0,-5568.0,-384.0
0.1775,-15296.0,-5568.0,-384.0
0.18,-15296.0,-5568.0,-448.0
0.1825,-15296.0,-5568.0,-384.0
0.185,-15296.0,-5632.0,-384.0
0.1875,-15296.0,-5568.0,-384.0
0.19,-15360.0,-5568.0,-320.0
0.1925,-15296.0,-5568.0,-384.0
0.195,-15360.0,-5632.0,-320.0
0.1975,-15360.0,-5632.0,-448.0
0.2,-15424.0,-5696.0,-384.0
0.2025,-15488.0,-5632.0,-384.0
0.205,-15488.0,-5632.0,-384.0
0.2075,-15552.0,-5632.0,-320.0
0.21,-15552.0,-5696.0,-384.0
0.2125,-15552.0,-5632.0,-384.0
0.215,-15552.0,-5696.0,-320.0
0.2175,-15616.0,-5696.0,-384.0
0.22,-15616.0,-5632.0,-320.0
0.2225,-15616.0,-5696.0,-384.0
0.225,-15616.0,-5696.0,-384.0
0.2275,-15616.0,-5696.0,-320.0
0.23,-15552.0,-5696.0,-256.0
0.2325,-15552.0,-5696.0,-256.0
0.235,-15552.0,-5696.0,-320.0
0.2375,-15552.0,-5632.0,-320.0
0.24,-15616.0,-5696.0,-320.0
0.2425,-15552.0,-5696.0,-320.0
0.245,-15552.0,-5696.0,-256.0
0.2475,-15552.0,-5696.0,-256.0
0.25,-15552.0,-5760.0,-256.0
0.2525,-15616.0,-5696.0,-256.0
0.255,-15552.0,-5696.0,-256.0
0.2575,-15552.0,-5696.0,-320.0
0.26,-15552.0,-5632.0,-320.0
0.2625,-15552.0,-5632.0,-320.0
0.265,-15552.0,-5696.0,-256.0
0.2675,-15616.0,-5632.0,-320.0
0.27,-15616.0,-5696.0,-320.0
0.2725,-15680.0,-5696.0,-320.0
0.275,-15680.0,-5696.0,-320.0
0.2775,-15680.0,-5824.0,-320.0
0.28,-15680.0,-5760.0,-320.0
0.2825,-15616.0,-5696.0,-256.0
0.285,-15552.0,-5696.0,-320.0
0.2875,-15616.0,-5760.0,-256.0
0.29,-15552.0,-5696.0,-256.0
0.2925,-15488.0,-5760.0,-192.0
0.295,-15488.0,-5696.0,-192.0
0.2975,-15488.0,-5696.0,-192.0
0.3,-15360.0,-5696.0,-192.0
0.3025,-15360.0,-5696.0,-128.0
0.305,-15424.0,-5632.0,-64.0
0.3075,-15360.0,-5632.0,-128.0
0.31,-15360.0,-5568.0,-128.0
0.3125,-15296.0,-5568.0,-128.0
0.315,-15296.0,-5568.0,-64.0
0.3175,-15360.0,-5632.0,-128.0
0.32,-15424.0,-5632.0,-128.0
0.3225,-15360.0,-5632.0,-192.0
0.325,-15296.0,-5632.0,-192.0
0.3275,-15296.0,-5632.0,-192.0
0.33,-15360.0,-5632.0,-256.0
0.3325,-15360.0,-5632.0,-192.0
0.335,-15296.0,-5632.0,-192.0
0.3375,-15360.0,-5632.0,-192.0
0.34,-15360.0,-5696.0,-128.0
0.3425,-15360.0,-5696.0,-128.0
0.345,-15360.0,-5632.0,-128.0
0.3475,-15424.0,-5568.0,-64.0
0.35,-15360.0,-5568.0,-64.0
0.3525,-15424.0,-5568.0,0.0
0.355,-15424.0,-5568.0,-64.0
0.3575,-15424.0,-5568.0,-64.0
0.36,-15424.0,-5568.0,0.0
0.3625,-15424.0,-5568.0,-64.0
0.365,-15424.0,-5568.0,-64.0
0.3675,-15360.0,-5568.0,-64.0
0.37,-15424.0,-5632.0,-128.0
0.3725,-15424.0,-5568.0,-192.0
0.375,-15488.0,-5568.0,-128.0
0.3775,-15488.0,-5568.0,-128.0
0.38,-15488.0,-5568.0,-192.0
0.3825,-15488.0,-5568.0,-192.0
0.385,-15552.0,-5568.0,-192.0
0.3875,-15552.0,-5568.0,-192.0
0.39,-15552.0,-5568.0,-128.0
0.3925,-15552.0,-5568.0,-128.0
0.395,-15616.0,-5568.0,-128.0
0.3975,-15616.0,-5568.0,-128.0
0.4,-15552.0,-5568.0,-192.0
0.4025,-15552.0,-5568.0,-192.0
0.405,-15680.0,-5504.0,-128.0
0.4075,-15680.0,-5504.0,-128.0
0.41,-15616.0,-5504.0,-192.0
0.4125,-15616.0,-5440.0,-192.0
0.415,-15616.0,-5376.0,-128.0
0.4175,-15680.0,-5376.0,-192.0
0.42,-15616.0,-5440.0,-192.0
0.4225,-15616.0,-5440.0,-192.0
0.425,-15616.0,-5440.0,-192.0
0.4275,-15616.0,-5440.0,-192.0
0.43,-15616.0,-5376.0,-192.0
0.4325,-15616.0,-5440.0,-192.0
0.435,-15616.0,-5440.0,-128.0
0.4375,-15616.0,-5376.0,-192.0
0.44,-15616.0,-5440.0,-128.0
0.4425,-15552.0,-5440.0,-128.0
0.445,-15616.0,-5440.0,-128.0
0.4475,-15616.0,-5440.0,-128.0
0.45,-15616.0,-5440.0,-128.0
0.4525,-15552.0,-5440.0,-192.0
0.455,-15552.0,-5376.0,-192.0
0.4575,-15552.0,-5312.0,-192.0
0.46,-15552.0,-5248.0,-192.0
0.4625,-15552.0,-5248.0,-192.0
0.465,-15552.0,-5312.0,-128.0
0.4675,-15552.0,-5312.0,-128.0
0.47,-15552.0,-5376.0,-192.0
0.4725,-15488.0,-5312.0,-192.0
0.475,-15552.0,-5312.0,-256.0
0.4775,-15552.0,-5312.0,-256.0
0.48,-15680.0,-5184.0,-192.0
0.4825,-15616.0,-5248.0,-128.0
0.485,-15680.0,-5248.0,-128.0
0.4875,-15616.0,-5248.0,-192.0
0.49,-15616.0,-5248.0,-192.0
0.4925,-15616.0,-5312.0,-192.0
0.495,-15616.0,-5248.0,-192.0
0.4975,-15680.0,-5248.0,-192.0
0.5,-15680.0,-5184.0,-192.0
0.5025,-15680.0,-5248.0,-192.0
0.505,-15680.0,-5248.0,-192.0
0.5075,-15616.0,-5248.0,-192.0
0.51,-15616.0,-5248.0,-128.0
0.5125,-15616.0,-5184.0,-128.0
0.515,-15616.0,-5184.0,-64.0
0.5175,-15680.0,-5184.0,-192.0
0.52,-15680.0,-5120.0,-128.0
0.5225,-15744.0,-5120.0,-128.0
0.525,-15744.0,-5184.0,-128.0
0.5275,-15744.0,-5184.0,-128.0
0.53,-15808.0,-5184.0,-128.0
0.5325,-15808.0,-5184.0,-128.0
0.535,-15808.0,-5248.0,-128.0
0.5375,-15808.0,-5248.0,-128.0
0.54,-15872.0,-5312.0,-64.0
0.5425,-15808.0,-5248.0,-128.0
0.545,-15808.0,-5248.0,-128.0
0.5475,-15872.0,-5248.0,-128.0
0.55,-15872.0,-5248.0,-192.0
0.5525,-15872.0,-5248.0,-128.0
0.555,-15872.0,-5248.0,-128.0
0.5575,-15872.0,-5248.0,-64.0
0.56,-15936.0,-5248.0,-64.0
0.5625,-15872.0,-5248.0,-128.0
0.565,-15872.0,-5312.0,-128.0
0.5675,-15808.0,-5248.0,-192.0
0.57,-15872.0,-5312.0,-128.0
0.5725,-15808.0,-5312.0,-64.0
0.575,-15872.0,-5312.0,0.0
0.5775,-15872.0,-5312.0,-128.0
0.58,-15808.0,-5312.0,-64.0
0.5825,-15808.0,-5312.0,-64.0
0.585,-15744.0,-5376.0,-64.0
0.5875,-15808.0,-5376.0,-192.0
0.59,-15744.0,-5312.0,-128.0
0.5925,-15744.0,-5376.0,-128.0
0.595,-15744.0,-5376.0,-128.0
0.5975,-15680.0,-5376.0,-128.0
0.6,-15680.0,-5376.0,-64.0
0.6025,-15616.0,-5376.0,-64.0
0.605,-15680.0,-5376.0,-64.0
0.6075,-15680.0,-5376.0,-64.0
0.61,-15616.0,-5376.0,-64.0
0.6125,-15552.0,-5376.0,-64.0
0.615,-15552.0,-5312.0,0.0
0.6175,-15552.0,-5312.0,-64.0
0.62,-15552.0,-5312.0,-64.0
0.6225,-15552.0,-5376.0,0.0
0.625,-15552.0,-5312.0,-64.0
0.6275,-15616.0,-5312.0,0.0
0.63,-15616.0,-5312.0,0.0
0.6325,-15616.0,-5312.0,-64.0
0.635,-15616.0,-5312.0,-64.0
0.6375,-15616.0,-5312.0,-64.0
0.64,-15616.0,-5376.0,0.0
0.6425,-15552.0,-5376.0,-64.0
0.645,-15552.0,-5312.0,0.0
0.6475,-15488.0,-5312.0,0.0
0.65,-15552.0,-5376.0,64.0
0.6525,-15552.0,-5376.0,64.0
0.655,-15488.0,-5376.0,64.0
0.6575,-15552.0,-5312.0,64.0
0.66,-15488.0,-5312.0,64.0
0.6625,-15488.0,-5312.0,64.0
0.665,-15488.0,-5312.0,128.0
0.6675,-15488.0,-5312.0,128.0
0.67,-15424.0,-5312.0,0.0
0.6725,-15488.0,-5248.0,64.0
0.675,-15488.0,-5312.0,0.0
0.6775,-15488.0,-5312.0,0.0
0.68,-15552.0,-5248.0,64.0
0.6825,-15488.0,-5312.0,64.0
0.685,-15552.0,-5248.0,64.0
0.6875,-15552.0,-5312.0,64.0
0.69,-15616.0,-5312.0,64.0
0.6925,-15552.0,-5312.0,64.0
0.695,-15552.0,-5312.0,64.0
0.6975,-15552.0,-5376.0,64.0
0.7,-15488.0,-5376.0,0.0
0.7025,-15552.0,-5376.0,64.0
0.705,-15552.0,-5312.0,64.0
0.7075,-15552.0,-5376.0,64.0
0.71,-15552.0,-5376.0,128.0
0.7125,-15552.0,-5376.0,64.0
0.715,-15552.0,-5312.0,64.0
0.7175,-15488.0,-5312.0,128.0
0.72,-15488.0,-5312.0,128.0
0.7225,-15424.0,-5312.0,128.0
0.725,-15488.0,-5312.0,128.0
0.7275,-15488.0,-5312.0,64.0
0.73,-15424.0,-5312.0,128.0
0.7325,-15360.0,-5312.0,64.0
0.735,-15360.0,-5312.0,64.0
0.7375,-15296.0,-5376.0,0.0
0.74,-15360.0,-5312.0,64.0
0.7425,-15360.0,-5312.0,128.0
0.745,-15424.0,-5312.0,128.0
0.7475,-15360.0,-5248.0,128.0
0.75,-15424.0,-5248.0,64.0
0.7525,-15424.0,-5248.0,64.0
0.755,-15424.0,-5248.0,64.0
0.7575,-15360.0,-5248.0,0.0
0.76,-15424.0,-5312.0,64.0
0.7625,-15424.0,-5312.0,64.0
0.765,-15424.0,-5312.0,64.0
0.7675,-15424.0,-5312.0,128.0
0.77,-15360.0,-5312.0,64.0
0.7725,-15360.0,-5312.0,128.0
0.775,-15360.0,-5248.0,64.0
0.7775,-15360.0,-5248.0,64.0
0.78,-15360.0,-5312.0,64.0
0.7825,-15360.0,-5248.0,64.0
0.785,-15424.0,-5312.0,64.0
0.7875,-15168.0,-5248.0,0.0
0.79,-15360.0,-5312.0,64.0
0.7925,-15360.0,-5312.0,128.0
0.795,-15360.0,-5248.0,128.0
0.7975,-15360.0,-5312.0,128.0
0.8,-15360.0,-5312.0,128.0
0.8025,-15296.0,-5248.0,128.0
0.805,-15296.0,-5184.0,192.0
0.8075,-15296.0,-5248.0,128.0
0.81,-15232.0,-5248.0,64.0
0.8125,-15168.0,-5248.0,128.0
0.815,-15232.0,-5248.0,128.0
0.8175,-15232.0,-5248.0,128.0
0.82,-15168.0,-5248.0,64.0
0.8225,-15232.0,-5248.0,0.0
0.825,-15232.0,-5248.0,64.0
0.8275,-15232.0,-5312.0,128.0
0.83,-15168.0,-5248.0,64.0
0.8325,-15168.0,-5184.0,64.0
0.835,-15104.0,-5184.0,64.0
0.8375,-15104.0,-5184.0,64.0
0.84,-15104.0,-5184.0,64.0
0.8425,-15104.0,-5184.0,64.0
0.845,-15104.0,-5120.0,64.0
0.8475,-15168.0,-5184.0,64.0
0.85,-15040.0,-5184.0,64.0
0.8525,-15040.0,-5120.0,64.0
0.855,-15104.0,-5120.0,64.0
0.8575,-15040.0,-5120.0,64.0
0.86,-15104.0,-5120.0,64.0
0.8625,-15104.0,-5120.0,128.0
0.865,-15040.0,-5184.0,192.0
0.8675,-15040.0,-5184.0,192.0
0.87,-14976.0,-5184.0,192.0
0.8725,-14976.0,-5184.0,192.0
0.875,-14976.0,-5120.0,256.0
0.8775,-15040.0,-5120.0,192.0
0.88,-14976.0,-5056.0,192.0
0.8825,-15040.0,-5056.0,192.0
0.885,-15040.0,-5056.0,256.0
0.8875,-15040.0,-5056.0,192.0
0.89,-15104.0,-5056.0,192.0
0.8925,-15104.0,-5056.0,256.0
0.895,-15104.0,-5056.0,256.0
0.8975,-15040.0,-5056.0,192.0
0.9,-15104.0,-5056.0,128.0
0.9025,-15168.0,-4992.0,192.0
0.905,-15104.0,-5056.0,128.0
0.9075,-15104.0,-4992.0,128.0
0.91,-15168.0,-4992.0,128.0
0.9125,-15232.0,-4992.0,128.0
0.915,-15232.0,-5056.0,128.0
0.9175,-15232.0,-5056.0,128.0
0.92,-15232.0,-4992.0,128.0
0.9225,-15232.0,-4992.0,128.0
0.925,-15168.0,-4992.0,128.0
0.9275,-15104.0,-5056.0,192.0
0.93,-15104.0,-4992.0,192.0
0.9325,-15040.0,-4992.0,256.0
0.935,-15040.0,-4992.0,256.0
0.9375,-15040.0,-4928.0,256.0
0.94,-15040.0,-4992.0,256.0
0.9425,-15040.0,-4992.0,320.0
0.945,-15040.0,-5056.0,384.0
0.9475,-15040.0,-4992.0,320.0
0.95,-14976.0,-4992.0,448.0
0.9525,-15040.0,-4928.0,384.0
0.955,-14976.0,-4928.0,384.0
0.9575,-14912.0,-4928.0,320.0
0.96,-14848.0,-4928.0,320.0
0.9625,-14848.0,-4928.0,384.0
0.965,-14912.0,-4928.0,384.0
0.9675,-14912.0,-4928.0,320.0
0.97,-14912.0,-4928.0,384.0
0.9725,-14848.0,-4928.0,320.0
0.975,-14912.0,-4928.0,320.0
0.9775,-14848.0,-4928.0,384.0
0.98,-14784.0,-4928.0,320.0
0.9825,-14848.0,-4928.0,320.0
0.985,-14848.0,-4928.0,256.0
0.9875,-14976.0,-4928.0,256.0
0.99,-14976.0,-4928.0,256.0
0.9925,-14912.0,-4928.0,256.0
0.995,-14912.0,-4928.0,320.0
0.9975,-14848.0,-4864.0,320.0
1.0,-14848.0,-4864.0,320.0
1.0025,-14848.0,-4800.0,320.0
1.005,-14848.0,-4928.0,256.0
1.0075,-14912.0,-4864.0,320.0
1.01,-14912.0,-4928.0,320.0
1.0125,-14848.0,-4928.0,320.0
1.015,-14784.0,-4928.0,320.0
1.0175,-14784.0,-4928.0,448.0
1.02,-14720.0,-4928.0,384.0
1.0225,-14720.0,-4864.0,320.0
1.025,-14784.0,-4864.0,448.0
1.0275,-14784.0,-4864.0,384.0
1.03,-14720.0,-4864.0,256.0
1.0325,-14784.0,-4864.0,320.0
1.035,-14848.0,-4928.0,320.0
1.0375,-14784.0,-4928.0,320.0
1.04,-14848.0,-4928.0,384.0
1.0425,-14848.0,-4864.0,384.0
1.045,-14848.0,-4864.0,320.0
1.0475,-14912.0,-4800.0,320.0
1.05,-14976.0,-4864.0,320.0
1.0525,-15040.0,-4864.0,320.0
1.055,-15040.0,-4864.0,320.0
1.0575,-15104.0,-4928.0,256.0
1.06,-15104.0,-4928.0,256.0
1.0625,-15040.0,-4928.0,256.0
1.065,-15104.0,-4928.0,256.0
1.0675,-15168.0,-4992.0,256.0
1.07,-15168.0,-4928.0,256.0
1.0725,-15168.0,-4928.0,256.0
1.075,-15168.0,-4992.0,256.0
1.0775,-15232.0,-4992.0,256.0
1.08,-15168.0,-4992.0,320.0
1.0825,-15232.0,-4992.0,256.0
1.085,-15168.0,-4992.0,320.0
1.0875,-15168.0,-4992.0,320.0
1.09,-15232.0,-4928.0,320.0
1.0925,-15232.0,-4992.0,320.0
1.095,-15296.0,-4992.0,256.0
1.0975,-15296.0,-4992.0,384.0
1.1,-15296.0,-4992.0,320.0
1.1025,-15296.0,-4992.0,320.0
1.105,-15296.0,-4992.0,384.0
1.1075,-15360.0,-4992.0,384.0
1.11,-15360.0,-5056.0,320.0
1.1125,-15424.0,-5056.0,320.0
1.115,-15424.0,-4992.0,384.0
1.1175,-15424.0,-4992.0,384.0
1.12,-15488.0,-4928.0,320.0
1.1225,-15552.0,-4864.0,320.0
1.125,-15552.0,-4864.0,320.0
1.1275,-15552.0,-4864.0,320.0
1.13,-15552.0,-4928.0,256.0
1.1325,-15552.0,-4928.0,256.0
1.135,-15552.0,-4928.0,320.0
1.1375,-15488.0,-4992.0,320.0
1.14,-15360.0,-4992.0,384.0
1.1425,-15360.0,-4928.0,320.0
1.145,-15360.0,-4928.0,384.0
1.1475,-15296.0,-4864.0,384.0
1.15,-15296.0,-4928.0,448.0
1.1525,-15296.0,-4928.0,448.0
1.155,-15232.0,-4928.0,448.0
1.1575,-15232.0,-4928.0,512.0
1.16,-15168.0,-4864.0,512.0
1.1625,-15168.0,-4864.0,576.0
1.165,-15168.0,-4864.0,512.0
1.1675,-15104.0,-4800.0,512.0
1.17,-15104.0,-4800.0,448.0
1.1725,-15104.0,-4864.0,448.0
1.175,-15104.0,-4928.0,448.0
1.1775,-15104.0,-4928.0,448.0
1.18,-15168.0,-4928.0,448.0
1.1825,-15168.0,-4928.0,384.0
1.185,-15168.0,-4928.0,448.0
1.1875,-15104.0,-4928.0,448.0
1.19,-15104.0,-4864.0,512.0
1.1925,-15040.0,-4864.0,448.0
1.195,-14976.0,-4864.0,512.0
1.1975,-15040.0,-4864.0,512.0
1.2,-15040.0,-4864.0,576.0
1.2025,-15104.0,-4864.0,576.0
1.205,-15040.0,-4928.0,576.0
1.2075,-15104.0,-4864.0,576.0
1.21,-15104.0,-4928.0,640.0
1.2125,-15168.0,-4864.0,640.0
1.215,-15104.0,-4928.0,512.0
1.2175,-15104.0,-4928.0,512.0
1.22,-15040.0,-4928.0,512.0
1.2225,-15040.0,-4992.0,576.0
1.225,-15104.0,-4992.0,640.0
1.2275,-15104.0,-4928.0,640.0
1.23,-15104.0,-4928.0,640.0
1.2325,-15168.0,-4928.0,640.0
1.235,-15168.0,-4928.0,576.0
1.2375,-15168.0,-4928.0,640.0
1.24,-15232.0,-4992.0,640.0
1.2425,-15232.0,-4992.0,576.0
1.245,-15232.0,-4992.0,640.0
1.2475,-15296.0,-4992.0,640.0
1.25,-15360.0,-4992.0,640.0
1.2525,-15296.0,-5056.0,640.0
1.255,-15232.0,-4992.0,704.0
1.2575,-15232.0,-4992.0,640.0
1.26,-15168.0,-4992.0,704.0
1.2625,-15296.0,-4928.0,704.0
1.265,-15232.0,-4992.0,704.0
1.2675,-15232.0,-4992.0,704.0
1.27,-15168.0,-4992.0,640.0
1.2725,-15168.0,-4992.0,704.0
1.275,-15168.0,-4992.0,640.0
1.2775,-15104.0,-5056.0,704.0
1.28,-15104.0,-5056.0,768.0
1.2825,-15104.0,-5120.0,704.0
1.285,-15040.0,-5120.0,704.0
1.2875,-15104.0,-5056.0,640.0
1.29,-15040.0,-5056.0,640.0
1.2925,-15040.0,-4992.0,640.0
1.295,-15040.0,-5056.0,640.0
1.2975,-15040.0,-5056.0,640.0
1.3,-15040.0,-5056.0,704.0
1.3025,-15040.0,-5056.0,704.0
1.305,-15040.0,-5120.0,704.0
1.3075,-15104.0,-5184.0,576.0
1.31,-15104.0,-5120.0,576.0
1.3125,-15168.0,-5120.0,640.0
1.315,-15168.0,-5120.0,640.0
1.3175,-15168.0,-5120.0,640.0
1.32,-15104.0,-5120.0,704.0
1.3225,-15168.0,-5120.0,832.0
1.325,-15168.0,-5248.0,832.0
1.3275,-15232.0,-5312.0,768.0
1.33,-15232.0,-5312.0,768.0
1.3325,-15360.0,-5248.0,832.0
1.335,-15360.0,-5184.0,768.0
1.3375,-15296.0,-5248.0,768.0
1.34,-15232.0,-5312.0,832.0
1.3425,-15232.0,-5312.0,832.0
1.345,-15232.0,-5312.0,768.0
1.3475,-15232.0,-5312.0,768.0
1.35,-15360.0,-5248.0,832.0
1.3525,-15360.0,-5248.0,704.0
1.355,-15232.0,-5248.0,704.0
1.3575,-15232.0,-5376.0,704.0
1.36,-15168.0,-5376.0,704.0
1.3625,-15232.0,-5312.0,768.0
1.365,-15232.0,-5312.0,704.0
1.3675,-15168.0,-5312.0,768.0
1.37,-15168.0,-5312.0,768.0
1.3725,-15104.0,-5376.0,768.0
1.375,-15168.0,-5312.0,704.0
1.3775,-15232.0,-5312.0,704.0
1.38,-15168.0,-5312.0,640.0
1.3825,-15232.0,-5312.0,704.0
1.385,-15168.0,-5376.0,704.0
1.3875,-15232.0,-5376.0,704.0
1.39,-15232.0,-5312.0,704.0
1.3925,-15296.0,-5312.0,768.0
1.395,-15232.0,-5376.0,704.0
1.3975,-15168.0,-5312.0,704.0
1.4,-15232.0,-5312.0,768.0
1.4025,-15232.0,-5376.0,768.0
1.405,-15296.0,-5376.0,704.0
1.4075,-15360.0,-5312.0,768.0
1.41,-15296.0,-5312.0,768.0
1.4125,-15232.0,-5312.0,768.0
1.415,-15168.0,-5376.0,768.0
1.4175,-15168.0,-5376.0,768.0
1.42,-15232.0,-5376.0,768.0
1.4225,-15168.0,-5376.0,768.0
1.425,-15232.0,-5312.0,704.0
1.4275,-15232.0,-5312.0,704.0
1.43,-15296.0,-5312.0,768.0
1.4325,-15296.0,-5312.0,768.0
1.435,-15360.0,-5376.0,576.0
1.4375,-15296.0,-5312.0,576.0
1.44,-15424.0,-5312.0,576.0
1.4425,-15488.0,-5376.0,576.0
1.445,-15488.0,-5376.0,640.0
1.4475,-15488.0,-5376.0,640.0
1.45,-15552.0,-5440.0,640.0
1.4525,-15616.0,-5376.0,640.0
1.455,-15616.0,-5376.0,704.0
1.4575,-15680.0,-5440.0,704.0
1.46,-15680.0,-5504.0,640.0
1.4625,-15680.0,-5504.0,640.0
1.465,-15744.0,-5504.0,640.0
1.4675,-15808.0,-5504.0,704.0
1.47,-15808.0,-5440.0,640.0
1.4725,-15808.0,-5440.0,640.0
1.475,-15808.0,-5440.0,704.0
1.4775,-15808.0,-5440.0,704.0
1.48,-15872.0,-5440.0,704.0
1.4825,-15872.0,-5440.0,704.0
1.485,-15936.0,-5440.0,704.0
1.4875,-16000.0,-5504.0,640.0
1.49,-16000.0,-5504.0,640.0
1.4925,-16000.0,-5568.0,576.0
1.495,-16000.0,-5568.0,576.0
1.4975,-16000.0,-5568.0,576.0
1.5,-16064.0,-5504.0,640.0
1.5025,-16064.0,-5568.0,512.0
1.505,-16128.0,-5568.0,576.0
1.5075,-16064.0,-5568.0,640.0
1.51,-16128.0,-5632.0,640.0
1.5125,-16064.0,-5632.0,640.0
1.515,-16128.0,-5632.0,640.0
1.5175,-16128.0,-5632.0,640.0
1.52,-16128.0,-5696.0,768.0
1.5225,-16128.0,-5632.0,768.0
1.525,-16128.0,-5632.0,704.0
1.5275,-16192.0,-5696.0,704.0
1.53,-16192.0,-5696.0,768.0
1.5325,-16256.0,-5696.0,704.0
1.535,-16192.0,-5696.0,640.0
1.5375,-16192.0,-5696.0,640.0
1.54,-16256.0,-5760.0,576.0
1.5425,-16192.0,-5760.0,576.0
1.545,-16256.0,-5760.0,576.0
1.5475,-16256.0,-5760.0,640.0
1.55,-16320.0,-5760.0,640.0
1.5525,-16320.0,-5760.0,640.0
1.555,-16320.0,-5824.0,576.0
1.5575,-16384.0,-5760.0,576.0
1.56,-16384.0,-5824.0,576.0
1.5625,-16384.0,-5760.0,576.0
1.565,-16384.0,-5760.0,576.0
1.5675,-16384.0,-5760.0,640.0
1.57,-16384.0,-5824.0,640.0
1.5725,-16448.0,-5824.0,704.0
1.575,-16320.0,-5824.0,704.0
1.5775,-16384.0,-5824.0,704.0
1.58,-16384.0,-5824.0,704.0
1.5825,-16448.0,-5824.0,704.0
1.585,-16448.0,-5760.0,768.0
1.5875,-16448.0,-5824.0,768.0
1.59,-16448.0,-5824.0,704.0
1.5925,-16448.0,-5824.0,768.0
1.595,-16384.0,-5824.0,768.0
1.5975,-16448.0,-5888.0,704.0
1.6,-16448.0,-5824.0,768.0
1.6025,-16448.0,-5824.0,704.0
1.605,-16512.0,-5888.0,640.0
1.6075,-16384.0,-5888.0,640.0
1.61,-16448.0,-5888.0,704.0
1.6125,-16384.0,-5888.0,704.0
1.615,-16448.0,-5952.0,704.0
1.6175,-16384.0,-5888.0,704.0
1.62,-16256.0,-5952.0,640.0
1.6225,-16320.0,-5952.0,640.0
1.625,-16320.0,-5952.0,640.0
1.6275,-16320.0,-5888.0,640.0
1.63,-16320.0,-5888.0,704.0
1.6325,-16320.0,-5888.0,768.0
1.635,-16256.0,-5824.0,768.0
1.6375,-16256.0,-5824.0,704.0
1.64,-16256.0,-5824.0,768.0
1.6425,-16256.0,-5760.0,768.0
1.645,-16256.0,-5824.0,704.0
1.6475,-16256.0,-5824.0,704.0
1.65,-16256.0,-5760.0,768.0
1.6525,-16256.0,-5760.0,704.0
1.655,-16192.0,-5760.0,704.0
1.6575,-16192.0,-5760.0,704.0
1.66,-16192.0,-5760.0,832.0
1.6625,-16192.0,-5824.0,832.0
1.665,-16192.0,-5760.0,832.0
1.6675,-16192.0,-5696.0,832.0
1.67,-16192.0,-5760.0,896.0
1.6725,-16256.0,-5760.0,832.0
1.675,-16256.0,-5760.0,832.0
1.6775,-16192.0,-5760.0,896.0
1.68,-16320.0,-5696.0,896.0
1.6825,-16256.0,-5760.0,896.0
1.685,-16384.0,-5696.0,832.0
1.6875,-16384.0,-5760.0,832.0
1.69,-16448.0,-5760.0,832.0
1.6925,-16448.0,-5760.0,832.0
1.695,-16576.0,-5760.0,832.0
1.6975,-16576.0,-5696.0,768.0
1.7,-16576.0,-5760.0,768.0
1.7025,-16576.0,-5760.0,832.0
1.705,-16640.0,-5760.0,768.0
1.7075,-16704.0,-5760.0,704.0
1.71,-16768.0,-5824.0,768.0
1.7125,-16768.0,-5824.0,768.0
1.715,-16832.0,-5824.0,768.0
1.7175,-16896.0,-5888.0,832.0
1.72,-16960.0,-5888.0,768.0
1.7225,-16960.0,-5888.0,768.0
1.725,-16960.0,-5888.0,768.0
1.7275,-17024.0,-5888.0,704.0
1.73,-17024.0,-5888.0,768.0
1.7325,-17024.0,-5888.0,768.0
1.735,-17024.0,-5888.0,704.0
1.7375,-17024.0,-5824.0,640.0
1.74,-17024.0,-5888.0,768.0
1.7425,-17024.0,-5888.0,704.0
1.745,-17024.0,-5824.0,704.0
1.7475,-17024.0,-5888.0,768.0
1.75,-17024.0,-5760.0,704.0
1.7525,-17024.0,-5824.0,640.0
1.755,-16960.0,-5888.0,704.0
1.7575,-16960.0,-5888.0,768.0
1.76,-16896.0,-5824.0,768.0
1.7625,-16896.0,-5888.0,768.0
1.765,-16896.0,-5888.0,704.0
1.7675,-16896.0,-5888.0,704.0
1.77,-16896.0,-5824.0,704.0
1.7725,-16832.0,-5824.0,768.0
1.775,-16768.0,-5760.0,768.0
1.7775,-16704.0,-5760.0,768.0
1.78,-16768.0,-5760.0,704.0
1.7825,-16704.0,-5760.0,768.0
1.785,-16704.0,-5760.0,640.0
1.7875,-16640.0,-5760.0,704.0
1.79,-16576.0,-5760.0,704.0
1.7925,-16512.0,-5696.0,704.0
1.795,-16448.0,-5696.0,704.0
1.7975,-16448.0,-5696.0,704.0
1.8,-16384.0,-5696.0,704.0
1.8025,-16384.0,-5696.0,768.0
1.805,-16320.0,-5696.0,768.0
1.8075,-16256.0,-5696.0,768.0
1.81,-16256.0,-5760.0,768.0
1.8125,-16128.0,-5696.0,704.0
1.815,-16128.0,-5760.0,704.0
1.8175,-16064.0,-5696.0,704.0
1.82,-16000.0,-5696.0,704.0
1.8225,-16000.0,-5760.0,768.0
1.825,-15936.0,-5760.0,640.0
1.8275,-15872.0,-5760.0,704.0
1.83,-15872.0,-5696.0,768.0
1.8325,-15808.0,-5696.0,768.0
1.835,-15808.0,-5696.0,704.0
1.8375,-15744.0,-5696.0,768.0
1.84,-15680.0,-5760.0,768.0
1.8425,-15680.0,-5696.0,768.0
1.845,-15680.0,-5760.0,768.0
1.8475,-15616.0,-5760.0,768.0
1.85,-15552.0,-5760.0,768.0
1.8525,-15616.0,-5760.0,768.0
1.855,-15680.0,-5696.0,768.0
1.8575,-15552.0,-5696.0,704.0
1.86,-15616.0,-5760.0,768.0
1.8625,-15616.0,-5760.0,704.0
1.865,-15552.0,-5824.0,704.0
1.8675,-15552.0,-5824.0,704.0
1.87,-15616.0,-5760.0,704.0
1.8725,-15616.0,-5824.0,640.0
1.875,-15616.0,-5824.0,704.0
1.8775,-15680.0,-5760.0,704.0
1.88,-15680.0,-5824.0,640.0
1.8825,-15680.0,-5760.0,640.0
1.885,-15680.0,-5824.0,640.0
1.8875,-15744.0,-5824.0,640.0
1.89,-15680.0,-5824.0,704.0
1.8925,-15744.0,-5824.0,704.0
1.895,-15744.0,-5888.0,640.0
1.8975,-15744.0,-5888.0,640.0
1.9,-15744.0,-5888.0,704.0
1.9025,-15808.0,-5888.0,576.0
1.905,-15808.0,-5888.0,512.0
1.9075,-15872.0,-5824.0,448.0
1.91,-15936.0,-5888.0,448.0
1.9125,-15872.0,-5824.0,384.0
1.915,-15936.0,-5824.0,448.0
1.9175,-15936.0,-5824.0,448.0
1.92,-15872.0,-5888.0,512.0
1.9225,-15936.0,-5824.0,512.0
1.925,-15936.0,-5824.0,576.0
1.9275,-15936.0,-5888.0,512.0
1.93,-15936.0,-5888.0,512.0
1.9325,-15936.0,-5824.0,512.0
1.935,-15872.0,-5888.0,576.0
1.9375,-15872.0,-5824.0,576.0
1.94,-15872.0,-5824.0,576.0
1.9425,-15808.0,-5824.0,512.0
1.945,-15808.0,-5824.0,576.0
1.9475,-15808.0,-5824.0,512.0
1.95,-15808.0,-5824.0,576.0
1.9525,-15808.0,-5824.0,512.0
1.955,-15744.0,-5824.0,512.0
1.9575,-15744.0,-5888.0,512.0
1.96,-15680.0,-5888.0,448.0
1.9625,-15680.0,-5760.0,512.0
1.965,-15680.0,-5824.0,512.0
1.9675,-15680.0,-5824.0,512.0
1.97,-15616.0,-5824.0,448.0
1.9725,-15616.0,-5760.0,384.0
1.975,-15616.0,-5760.0,448.0
1.9775,-15552.0,-5760.0,448.0
1.98,-15616.0,-5760.0,512.0
1.9825,-15552.0,-5760.0,448.0
1.985,-15552.0,-5760.0,512.0
1.9875,-15488.0,-5760.0,448.0
1.99,-15488.0,-5760.0,512.0
1.9925,-15424.0,-5760.0,576.0
1.995,-15424.0,-5760.0,576.0
1.9975,-15360.0,-5696.0,512.0
2.0,-15296.0,-5696.0,576.0
2.0025,-15296.0,-5696.0,640.0
2.005,-15296.0,-5632.0,640.0
2.0075,-15296.0,-5696.0,640.0
2.01,-15232.0,-5632.0,640.0
2.0125,-15232.0,-5696.0,640.0
2.015,-15232.0,-5632.0,576.0
2.0175,-15168.0,-5632.0,640.0
2.02,-15232.0,-5632.0,576.0
2.0225,-15168.0,-5632.0,640.0
2.025,-15168.0,-5568.0,704.0
2.0275,-15232.0,-5632.0,640.0
2.03,-15232.0,-5632.0,640.0
2.0325,-15232.0,-5568.0,704.0
2.035,-15232.0,-5568.0,640.0
2.0375,-15232.0,-5568.0,640.0
2.04,-15232.0,-5568.0,704.0
2.0425,-15232.0,-5568.0,640.0
2.045,-15296.0,-5568.0,640.0
2.0475,-15232.0,-5504.0,576.0
2.05,-15232.0,-5568.0,640.0
2.0525,-15232.0,-5568.0,576.0
2.055,-15232.0,-5504.0,640.0
2.0575,-15232.0,-5504.0,640.0
2.06,-15296.0,-5504.0,640.0
2.0625,-15360.0,-5440.0,640.0
2.065,-15360.0,-5440.0,704.0
2.0675,-15360.0,-5504.0,704.0
2.07,-15360.0,-5440.0,704.0
2.0725,-15360.0,-5504.0,704.0
2.075,-15424.0,-5376.0,704.0
2.0775,-15424.0,-5440.0,704.0
2.08,-15488.0,-5440.0,704.0
2.0825,-15424.0,-5440.0,704.0
2.085,-15488.0,-5440.0,640.0
2.0875,-15424.0,-5440.0,640.0
2.09,-15424.0,-5440.0,704.0
2.0925,-15424.0,-5504.0,768.0
2.095,-15552.0,-5504.0,832.0
2.0975,-15488.0,-5440.0,832.0
2.1,-15488.0,-5376.0,832.0
2.1025,-15552.0,-5376.0,768.0
2.105,-15488.0,-5376.0,704.0
2.1075,-15488.0,-5376.0,704.0
2.11,-15488.0,-5376.0,640.0
2.1125,-15488.0,-5440.0,704.0
2.115,-15488.0,-5376.0,704.0
2.1175,-15488.0,-5440.0,704.0
2.12,-15424.0,-5440.0,704.0
2.1225,-15424.0,-5440.0,704.0
2.125,-15488.0,-5440.0,704.0
2.1275,-15488.0,-5440.0,768.0
2.13,-15488.0,-5440.0,704.0
2.1325,-15488.0,-5440.0,768.0
2.135,-15424.0,-5376.0,832.0
2.1375,-15488.0,-5440.0,768.0
2.14,-15424.0,-5376.0,704.0
2.1425,-15424.0,-5376.0,704.0
2.145,-15360.0,-5440.0,704.0
2.1475,-15360.0,-5440.0,640.0
2.15,-15360.0,-5440.0,576.0
2.1525,-15360.0,-5376.0,640.0
2.155,-15296.0,-5376.0,640.0
2.1575,-15232.0,-5376.0,640.0
2.16,-15296.0,-5440.0,576.0
2.1625,-15296.0,-5504.0,576.0
2.165,-15232.0,-5440.0,640.0
2.1675,-15360.0,-5440.0,704.0
2.17,-15360.0,-5568.0,640.0
2.1725,-15360.0,-5504.0,640.0
2.175,-15424.0,-5504.0,640.0
2.1775,-15424.0,-5504.0,640.0
2.18,-15360.0,-5440.0,640.0
2.1825,-15424.0,-5440.0,640.0
2.185,-15360.0,-5440.0,576.0
2.1875,-15360.0,-5504.0,576.0
2.19,-15360.0,-5568.0,640.0
2.1925,-15360.0,-5632.0,576.0
2.195,-15360.0,-5632.0,640.0
2.1975,-15360.0,-5632.0,640.0
2.2,-15488.0,-5568.0,576.0
2.2025,-15488.0,-5568.0,576.0
2.205,-15424.0,-5632.0,576.0
2.2075,-15424.0,-5632.0,512.0
2.21,-15488.0,-5696.0,640.0
2.2125,-15488.0,-5632.0,576.0
2.215,-15488.0,-5696.0,512.0
2.2175,-15488.0,-5632.0,512.0
2.22,-15488.0,-5568.0,448.0
2.2225,-15488.0,-5632.0,448.0
2.225,-15424.0,-5696.0,512.0
2.2275,-15360.0,-5696.0,512.0
2.23,-15424.0,-5696.0,512.0
2.2325,-15424.0,-5760.0,512.0
2.235,-15424.0,-5696.0,448.0
2.2375,-15488.0,-5696.0,512.0
2.24,-15424.0,-5696.0,448.0
2.2425,-15360.0,-5696.0,448.0
2.245,-15424.0,-5696.0,384.0
2.2475,-15360.0,-5696.0,448.0
2.25,-15296.0,-5696.0,448.0
2.2525,-15296.0,-5632.0,448.0
2.255,-15296.0,-5632.0,384.0
2.2575,-15424.0,-5632.0,384.0
2.26,-15424.0,-5696.0,448.0
2.2625,-15360.0,-5696.0,448.0
2.265,-15360.0,-5696.0,384.0
2.2675,-15296.0,-5632.0,384.0
2.27,-15296.0,-5632.0,384.0
2.2725,-15232.0,-5568.0,448.0
2.275,-15232.0,-5568.0,448.0
2.2775,-15232.0,-5568.0,384.0
2.28,-15232.0,-5568.0,384.0
2.2825,-15232.0,-5568.0,448.0
2.285,-15168.0,-5568.0,384.0
2.2875,-15168.0,-5632.0,384.0
2.29,-15168.0,-5632.0,384.0
2.2925,-15168.0,-5632.0,384.0
2.295,-15104.0,-5568.0,384.0
2.2975,-15104.0,-5568.0,384.0
2.3,-15104.0,-5568.0,384.0
2.3025,-15040.0,-5440.0,320.0
2.305,-15040.0,-5568.0,320.0
2.3075,-15040.0,-5504.0,256.0
2.31,-15040.0,-5568.0,256.0
2.3125,-14976.0,-5504.0,256.0
2.315,-14976.0,-5504.0,320.0
2.3175,-15040.0,-5504.0,320.0
2.32,-15040.0,-5504.0,320.0
2.3225,-14976.0,-5440.0,320.0
2.325,-14976.0,-5376.0,384.0
2.3275,-15040.0,-5376.0,320.0
2.33,-15040.0,-5440.0,320.0
2.3325,-15104.0,-5440.0,320.0
2.335,-15040.0,-5504.0,320.0
2.3375,-15104.0,-5440.0,320.0
2.34,-15168.0,-5440.0,320.0
2.3425,-15104.0,-5504.0,320.0
2.345,-15168.0,-5504.0,320.0
2.3475,-15104.0,-5504.0,384.0
2.35,-15168.0,-5504.0,448.0
2.3525,-15296.0,-5504.0,320.0
2.355,-15232.0,-5504.0,320.0
2.3575,-15232.0,-5504.0,320.0
2.36,-15296.0,-5568.0,256.0
2.3625,-15296.0,-5568.0,320.0
2.365,-15296.0,-5504.0,320.0
2.3675,-15360.0,-5568.0,320.0
2.37,-15360.0,-5504.0,320.0
2.3725,-15360.0,-5568.0,320.0
2.375,-15360.0,-5504.0,192.0
2.3775,-15424.0,-5440.0,256.0
2.38,-15424.0,-5504.0,256.0
2.3825,-15424.0,-5504.0,192.0
2.385,-15488.0,-5504.0,256.0
2.3875,-15552.0,-5568.0,256.0
2.39,-15552.0,-5568.0,256.0
2.3925,-15616.0,-5504.0,192.0
2.395,-15616.0,-5568.0,192.0
2.3975,-15616.0,-5568.0,256.0
2.4,-15616.0,-5632.0,320.0
2.4025,-15616.0,-5568.0,256.0
2.405,-15680.0,-5568.0,256.0
2.4075,-15680.0,-5632.0,256.0
2.41,-15680.0,-5568.0,256.0
2.4125,-15744.0,-5568.0,320.0
2.415,-15680.0,-5632.0,320.0
2.4175,-15680.0,-5632.0,256.0
2.42,-15744.0,-5632.0,256.0
2.4225,-15744.0,-5632.0,256.0
2.425,-15744.0,-5632.0,320.0
2.4275,-15680.0,-5632.0,256.0
2.43,-15680.0,-5632.0,320.0
2.4325,-15680.0,-5632.0,384.0
2.435,-15680.0,-5632.0,320.0
2.4375,-15680.0,-5632.0,384.0
2.44,-15680.0,-5632.0,320.0
2.4425,-15680.0,-5632.0,256.0
2.445,-15744.0,-5696.0,256.0
2.4475,-15744.0,-5632.0,256.0
2.45,-15744.0,-5696.0,256.0
2.4525,-15744.0,-5696.0,192.0
2.455,-15744.0,-5696.0,192.0
2.4575,-15744.0,-5632.0,192.0
2.46,-15808.0,-5632.0,192.0
2.4625,-15872.0,-5632.0,256.0
2.465,-15808.0,-5696.0,256.0
2.4675,-15744.0,-5632.0,320.0
2.47,-15744.0,-5632.0,384.0
2.4725,-15808.0,-5696.0,384.0
2.475,-15744.0,-5696.0,320.0
2.4775,-15808.0,-5696.0,320.0
2.48,-15808.0,-5760.0,384.0
2.4825,-15744.0,-5760.0,384.0
2.485,-15680.0,-5696.0,320.0
2.4875,-15680.0,-5696.0,320.0
2.49,-15680.0,-5696.0,384.0
2.4925,-15680.0,-5696.0,320.0
2.495,-15616.0,-5696.0,384.0
2.4975,-15616.0,-5696.0,384.0
2.5,-15616.0,-5760.0,384.0
2.5025,-15616.0,-5696.0,384.0
2.505,-15616.0,-5824.0,384.0
2.5075,-15680.0,-5824.0,384.0
2.51,-15680.0,-5760.0,320.0
2.5125,-15552.0,-5760.0,320.0
2.515,-15552.0,-5760.0,320.0
2.5175,-15488.0,-5696.0,384.0
2.52,-15488.0,-5632.0,448.0
2.5225,-15488.0,-5696.0,384.0
2.525,-15552.0,-5696.0,448.0
2.5275,-15552.0,-5760.0,448.0
2.53,-15488.0,-5760.0,448.0
2.5325,-15488.0,-5760.0,384.0
2.535,-15488.0,-5760.0,320.0
2.5375,-15488.0,-5760.0,256.0
2.54,-15488.0,-5760.0,320.0
2.5425,-15488.0,-5760.0,320.0
2.545,-15552.0,-5824.0,384.0
2.5475,-15552.0,-5824.0,320.0
2.55,-15488.0,-5824.0,256.0
2.5525,-15616.0,-5888.0,256.0
2.555,-15552.0,-5888.0,384.0
2.5575,-15488.0,-5888.0,384.0
2.56,-15488.0,-5760.0,384.0
2.5625,-15488.0,-5760.0,384.0
2.565,-15488.0,-5760.0,384.0
2.5675,-15488.0,-5760.0,448.0
2.57,-15488.0,-5824.0,320.0
2.5725,-15488.0,-5888.0,384.0
2.575,-15488.0,-5888.0,448.0
2.5775,-15424.0,-5888.0,448.0
2.58,-15488.0,-5888.0,448.0
2.5825,-15552.0,-5888.0,448.0
2.585,-15488.0,-5888.0,448.0
2.5875,-15552.0,-5888.0,448.0
2.59,-15616.0,-5888.0,320.0
2.5925,-15552.0,-5888.0,384.0
2.595,-15552.0,-5888.0,384.0
2.5975,-15552.0,-5888.0,384.0
2.6,-15552.0,-5824.0,384.0
2.6025,-15616.0,-5824.0,384.0
2.605,-15552.0,-5824.0,320.0
2.6075,-15552.0,-5888.0,384.0
2.61,-15616.0,-5888.0,448.0
2.6125,-15616.0,-5888.0,448.0
2.615,-15616.0,-5888.0,320.0
2.6175,-15616.0,-5888.0,384.0
2.62,-15616.0,-5824.0,448.0
2.6225,-15616.0,-5888.0,448.0
2.625,-15616.0,-5888.0,448.0
2.6275,-15616.0,-5888.0,448.0
2.63,-15552.0,-5888.0,448.0
2.6325,-15552.0,-5888.0,448.0
2.635,-15488.0,-5888.0,448.0
2.6375,-15424.0,-5888.0,448.0
2.64,-15424.0,-5824.0,448.0
2.6425,-15488.0,-5824.0,448.0
2.645,-15424.0,-5888.0,512.0
2.6475,-15424.0,-5888.0,384.0
2.65,-15360.0,-5888.0,448.0
2.6525,-15360.0,-5824.0,448.0
2.655,-15360.0,-5824.0,512.0
2.6575,-15296.0,-5824.0,448.0
2.66,-15296.0,-5760.0,448.0
2.6625,-15360.0,-5824.0,512.0
2.665,-15360.0,-5760.0,448.0
2.6675,-15360.0,-5760.0,448.0
2.67,-15360.0,-5824.0,448.0
2.6725,-15360.0,-5824.0,448.0
2.675,-15360.0,-5888.0,512.0
2.6775,-15360.0,-5888.0,448.0
2.68,-15360.0,-5824.0,448.0
2.6825,-15360.0,-5824.0,512.0
2.685,-15360.0,-5888.0,448.0
2.6875,-15360.0,-5824.0,448.0
2.69,-15360.0,-5888.0,448.0
2.6925,-15360.0,-5888.0,384.0
2.695,-15360.0,-5824.0,448.0
2.6975,-15424.0,-5824.0,384.0
2.7,-15424.0,-5824.0,384.0
2.7025,-15424.0,-5824.0,320.0
2.705,-15424.0,-5888.0,384.0
2.7075,-15360.0,-5888.0,384.0
2.71,-15360.0,-5888.0,448.0
2.7125,-15360.0,-5824.0,384.0
2.715,-15296.0,-5824.0,448.0
2.7175,-15296.0,-5824.0,512.0
2.72,-15232.0,-5824.0,448.0
2.7225,-15296.0,-5760.0,384.0
2.725,-15360.0,-5824.0,384.0
2.7275,-15296.0,-5760.0,384.0
2.73,-15296.0,-5760.0,384.0
2.7325,-15296.0,-5760.0,320.0
2.735,-15296.0,-5760.0,320.0
2.7375,-15232.0,-5760.0,384.0
2.74,-15232.0,-5760.0,384.0
2.7425,-15296.0,-5760.0,384.0
2.745,-15360.0,-5760.0,320.0
2.7475,-15296.0,-5760.0,384.0
2.75,-15360.0,-5696.0,384.0
2.7525,-15360.0,-5696.0,384.0
2.755,-15424.0,-5696.0,320.0
2.7575,-15424.0,-5696.0,320.0
2.76,-15488.0,-5696.0,320.0
2.7625,-15488.0,-5760.0,384.0
2.765,-15552.0,-5760.0,384.0
2.7675,-15552.0,-5696.0,320.0
2.77,-15552.0,-5696.0,256.0
2.7725,-15552.0,-5760.0,256.0
2.775,-15552.0,-5760.0,256.0
2.7775,-15552.0,-5760.0,192.0
2.78,-15616.0,-5696.0,256.0
2.7825,-15552.0,-5696.0,256.0
2.785,-15616.0,-5632.0,256.0
2.7875,-15616.0,-5696.0,320.0
2.79,-15616.0,-5696.0,256.0
2.7925,-15680.0,-5632.0,192.0
2.795,-15744.0,-5696.0,192.0
2.7975,-15680.0,-5696.0,128.0
2.8,-15680.0,-5696.0,128.0
2.8025,-15616.0,-5760.0,0.0
2.805,-15680.0,-5696.0,64.0
2.8075,-15680.0,-5696.0,128.0
2.81,-15680.0,-5696.0,64.0
2.8125,-15680.0,-5696.0,128.0
2.815,-15680.0,-5760.0,192.0
2.8175,-15616.0,-5760.0,192.0
2.82,-15616.0,-5760.0,320.0
2.8225,-15616.0,-5760.0,320.0
2.825,-15488.0,-5760.0,320.0
2.8275,-15552.0,-5760.0,320.0
2.83,-15488.0,-5760.0,320.0
2.8325,-15488.0,-5632.0,320.0
2.835,-15488.0,-5696.0,384.0
2.8375,-15552.0,-5632.0,384.0
2.84,-15488.0,-5632.0,320.0
2.8425,-15488.0,-5696.0,320.0
2.845,-15552.0,-5696.0,256.0
2.8475,-15488.0,-5696.0,256.0
2.85,-15424.0,-5696.0,192.0
2.8525,-15424.0,-5696.0,192.0
2.855,-15424.0,-5632.0,256.0
2.8575,-15360.0,-5696.0,192.0
2.86,-15424.0,-5760.0,256.0
2.8625,-15360.0,-5760.0,256.0
2.865,-15296.0,-5696.0,192.0
2.8675,-15232.0,-5760.0,192.0
2.87,-15296.0,-5696.0,192.0
2.8725,-15232.0,-5696.0,192.0
2.875,-15232.0,-5696.0,256.0
2.8775,-15168.0,-5696.0,192.0
2.88,-15232.0,-5632.0,320.0
2.8825,-15168.0,-5632.0,256.0
2.885,-15168.0,-5696.0,320.0
2.8875,-15104.0,-5632.0,320.0
2.89,-15104.0,-5696.0,320.0
2.8925,-15168.0,-5632.0,448.0
2.895,-15168.0,-5696.0,320.0
2.8975,-15168.0,-5632.0,320.0
2.9,-15168.0,-5696.0,320.0
2.9025,-15168.0,-5632.0,320.0
2.905,-15168.0,-5632.0,320.0
2.9075,-15168.0,-5632.0,256.0
2.91,-15104.0,-5632.0,320.0
2.9125,-15168.0,-5632.0,320.0
2.915,-15104.0,-5632.0,320.0
2.9175,-15104.0,-5632.0,320.0
2.92,-15104.0,-5632.0,320.0
2.9225,-15104.0,-5632.0,320.0
2.925,-15104.0,-5696.0,320.0
2.9275,-15104.0,-5632.0,192.0
2.93,-15040.0,-5632.0,256.0
2.9325,-15040.0,-5632.0,256.0
2.935,-15104.0,-5632.0,256.0
2.9375,-15040.0,-5632.0,192.0
2.94,-15104.0,-5632.0,256.0
2.9425,-15168.0,-5632.0,320.0
2.945,-15168.0,-5568.0,256.0
2.9475,-15168.0,-5696.0,192.0
2.95,-15232.0,-5696.0,192.0
2.9525,-15232.0,-5696.0,256.0
2.955,-15232.0,-5696.0,192.0
2.9575,-15296.0,-5760.0,192.0
2.96,-15360.0,-5760.0,192.0
2.9625,-15360.0,-5760.0,192.0
2.965,-15360.0,-5760.0,192.0
2.9675,-15424.0,-5760.0,192.0
2.97,-15488.0,-5824.0,256.0
2.9725,-15488.0,-5760.0,192.0
2.975,-15424.0,-5760.0,128.0
2.9775,-15488.0,-5760.0,192.0
2.98,-15552.0,-5760.0,192.0
2.9825,-15616.0,-5824.0,192.0
2.985,-15616.0,-5824.0,192.0
2.9875,-15552.0,-5824.0,192.0
2.99,-15616.0,-5888.0,256.0
2.9925,-15680.0,-5888.0,192.0
2.995,-15680.0,-5888.0,192.0
2.9975,-15680.0,-5888.0,128.0
3.0,-15680.0,-5824.0,128.0
3.0025,-15680.0,-5824.0,128.0
3.005,-15744.0,-5824.0,128.0
3.0075,-15744.0,-5824.0,128.0
3.01,-15744.0,-5888.0,128.0
3.0125,-15680.0,-5888.0,192.0
3.015,-15744.0,-5888.0,128.0
3.0175,-15744.0,-5888.0,192.0
3.02,-15744.0,-5888.0,192.0
3.0225,-15744.0,-5888.0,128.0
3.025,-15744.0,-5888.0,192.0
3.0275,-15744.0,-5888.0,192.0
3.03,-15744.0,-5824.0,128.0
3.0325,-15744.0,-5824.0,128.0
3.035,-15744.0,-5824.0,64.0
3.0375,-15808.0,-5824.0,64.0
3.04,-15744.0,-5888.0,128.0
3.0425,-15744.0,-5888.0,128.0
3.045,-15744.0,-5888.0,128.0
3.0475,-15744.0,-5888.0,128.0
3.05,-15744.0,-5888.0,64.0
3.0525,-15680.0,-5888.0,128.0
3.055,-15680.0,-5888.0,128.0
3.0575,-15616.0,-5824.0,128.0
3.06,-15680.0,-5888.0,128.0
3.0625,-15680.0,-5824.0,192.0
3.065,-15680.0,-5888.0,192.0
3.0675,-15680.0,-5888.0,192.0
3.07,-15680.0,-5888.0,256.0
3.0725,-15680.0,-5824.0,192.0
3.075,-15616.0,-5888.0,256.0
3.0775,-15616.0,-5888.0,256.0
3.08,-15616.0,-5824.0,256.0
3.0825,-15616.0,-5888.0,256.0
3.085,-15616.0,-5824.0,256.0
3.0875,-15552.0,-5824.0,192.0
3.09,-15488.0,-5824.0,128.0
3.0925,-15424.0,-5824.0,192.0
3.095,-15424.0,-5824.0,192.0
3.0975,-15424.0,-5824.0,192.0
3.1,-15424.0,-5760.0,192.0
3.1025,-15424.0,-5824.0,192.0
3.105,-15360.0,-5824.0,192.0
3.1075,-15424.0,-5824.0,192.0
3.11,-15424.0,-5888.0,192.0
3.1125,-15424.0,-5888.0,192.0
3.115,-15360.0,-5824.0,192.0
3.1175,-15424.0,-5824.0,192.0
3.12,-15360.0,-5824.0,192.0
3.1225,-15360.0,-5824.0,128.0
3.125,-15360.0,-5824.0,192.0
3.1275,-15296.0,-5824.0,256.0
3.13,-15296.0,-5888.0,320.0
3.1325,-15296.0,-5824.0,320.0
3.135,-15360.0,-5888.0,256.0
3.1375,-15296.0,-5824.0,320.0
3.14,-15168.0,-5824.0,320.0
3.1425,-15104.0,-5888.0,320.0
3.145,-15104.0,-5888.0,256.0
3.1475,-15040.0,-5760.0,256.0
3.15,-15104.0,-5824.0,320.0
3.1525,-15168.0,-5824.0,320.0
3.155,-15104.0,-5824.0,320.0
3.1575,-15104.0,-5760.0,320.0
3.16,-15104.0,-5824.0,320.0
3.1625,-15168.0,-5824.0,384.0
3.165,-15168.0,-5824.0,448.0
3.1675,-15104.0,-5760.0,384.0
3.17,-15104.0,-5824.0,384.0
3.1725,-15232.0,-5824.0,384.0
3.175,-15168.0,-5824.0,320.0
3.1775,-15168.0,-5888.0,320.0
3.18,-15232.0,-5824.0,384.0
3.1825,-15168.0,-5824.0,384.0
3.185,-15168.0,-5824.0,384.0
3.1875,-15168.0,-5824.0,448.0
3.19,-15168.0,-5824.0,384.0
3.1925,-15168.0,-5824.0,384.0
3.195,-15168.0,-5824.0,384.0
3.1975,-15104.0,-5824.0,384.0
3.2,-15104.0,-5824.0,448.0
3.2025,-15040.0,-5824.0,512.0
3.205,-15040.0,-5824.0,512.0
3.2075,-15040.0,-5760.0,448.0
3.21,-14976.0,-5760.0,448.0
3.2125,-14976.0,-5824.0,448.0
3.215,-14976.0,-5888.0,384.0
3.2175,-14912.0,-5824.0,384.0
3.22,-14912.0,-5824.0,384.0
3.2225,-14976.0,-5824.0,320.0
3.225,-15040.0,-5824.0,320.0
3.2275,-15040.0,-5824.0,384.0
3.23,-15040.0,-5824.0,320.0
3.2325,-15104.0,-5824.0,384.0
3.235,-15168.0,-5824.0,384.0
3.2375,-15168.0,-5824.0,448.0
3.24,-15168.0,-5888.0,448.0
3.2425,-15232.0,-5824.0,448.0
3.245,-15232.0,-5760.0,384.0
3.2475,-15296.0,-5824.0,320.0
3.25,-15296.0,-5760.0,448.0
3.2525,-15296.0,-5824.0,512.0
3.255,-15296.0,-5824.0,512.0
3.2575,-15360.0,-5888.0,512.0
3.26,-15424.0,-5888.0,448.0
3.2625,-15424.0,-5824.0,384.0
3.265,-15424.0,-5824.0,384.0
3.2675,-15488.0,-5824.0,448.0
3.27,-15552.0,-5824.0,448.0
3.2725,-15552.0,-5760.0,448.0
3.275,-15552.0,-5824.0,384.0
3.2775,-15616.0,-5824.0,384.0
3.28,-15680.0,-5888.0,384.0
3.2825,-15616.0,-5824.0,384.0
3.285,-15616.0,-5824.0,384.0
3.2875,-15680.0,-5824.0,384.0
3.29,-15680.0,-5888.0,448.0
3.2925,-15680.0,-5888.0,448.0
3.295,-15680.0,-5888.0,448.0
3.2975,-15680.0,-5888.0,448.0
3.3,-15744.0,-5888.0,384.0
3.3025,-15808.0,-5824.0,320.0
3.305,-15744.0,-5888.0,384.0
3.3075,-15744.0,-5824.0,448.0
3.31,-15744.0,-5824.0,448.0
3.3125,-15744.0,-5824.0,384.0
3.315,-15744.0,-5824.0,384.0
3.3175,-15744.0,-5824.0,320.0
3.32,-15680.0,-5824.0,384.0
3.3225,-15680.0,-5824.0,384.0
3.325,-15680.0,-5824.0,448.0
3.3275,-15680.0,-5824.0,384.0
3.33,-15616.0,-5824.0,448.0
3.3325,-15616.0,-5824.0,384.0
3.335,-15680.0,-5824.0,384.0
3.3375,-15744.0,-5888.0,384.0
3.34,-15680.0,-5888.0,384.0
3.3425,-15680.0,-5824.0,384.0
3.345,-15616.0,-5888.0,384.0
3.3475,-15616.0,-5888.0,384.0
3.35,-15680.0,-5824.0,320.0
3.3525,-15680.0,-5824.0,320.0
3.355,-15616.0,-5888.0,384.0
3.3575,-15552.0,-5824.0,320.0
3.36,-15552.0,-5888.0,256.0
3.3625,-15552.0,-5888.0,320.0
3.365,-15552.0,-5824.0,320.0
3.3675,-15552.0,-5824.0,320.0
3.37,-15616.0,-5760.0,256.0
3.3725,-15616.0,-5888.0,256.0
3.375,-15616.0,-5888.0,320.0
3.3775,-15680.0,-5888.0,320.0
3.38,-15616.0,-5952.0,320.0
3.3825,-15616.0,-5952.0,320.0
3.385,-15616.0,-5952.0,256.0
3.3875,-15616.0,-5952.0,320.0
3.39,-15616.0,-5952.0,320.0
3.3925,-15680.0,-6016.0,320.0
3.395,-15680.0,-6016.0,320.0
3.3975,-15744.0,-6016.0,256.0
3.4,-15808.0,-6080.0,320.0
3.4025,-15808.0,-6080.0,320.0
3.405,-15872.0,-6016.0,320.0
3.4075,-15872.0,-6016.0,320.0
3.41,-15936.0,-6144.0,320.0
3.4125,-15872.0,-6144.0,320.0
3.415,-15872.0,-6144.0,256.0
3.4175,-15872.0,-6144.0,256.0
3.42,-15808.0,-6144.0,256.0
3.4225,-15808.0,-6144.0,256.0
3.425,-15808.0,-6080.0,192.0
3.4275,-15808.0,-6144.0,256.0
3.43,-15808.0,-6080.0,192.0
3.4325,-15808.0,-6080.0,192.0
3.435,-15936.0,-6080.0,128.0
3.4375,-15936.0,-6080.0,192.0
3.44,-15872.0,-6208.0,192.0
3.4425,-15872.0,-6144.0,128.0
3.445,-15872.0,-6208.0,128.0
3.4475,-15872.0,-6272.0,192.0
3.45,-15872.0,-6272.0,192.0
3.4525,-15872.0,-6208.0,192.0
3.455,-15936.0,-6144.0,128.0
3.4575,-15872.0,-6144.0,192.0
3.46,-15744.0,-6144.0,192.0
3.4625,-15744.0,-6144.0,192.0
3.465,-15744.0,-6144.0,192.0
3.4675,-15744.0,-6144.0,192.0
3.47,-15744.0,-6080.0,192.0
3.4725,-15744.0,-6080.0,256.0
3.475,-15680.0,-6080.0,192.0
3.4775,-15680.0,-6144.0,256.0
3.48,-15616.0,-6144.0,192.0
3.4825,-15616.0,-6144.0,192.0
3.485,-15616.0,-6208.0,128.0
3.4875,-15616.0,-6208.0,192.0
3.49,-15616.0,-6272.0,128.0
3.4925,-15680.0,-6208.0,128.0
3.495,-15616.0,-6208.0,64.0
3.4975,-15616.0,-6144.0,64.0
3.5,-15616.0,-6208.0,64.0
3.5025,-15616.0,-6208.0,128.0
3.505,-15616.0,-6144.0,64.0
3.5075,-15616.0,-6144.0,128.0
3.51,-15552.0,-6144.0,64.0
3.5125,-15552.0,-6208.0,64.0
3.515,-15552.0,-6080.0,64.0
3.5175,-15552.0,-6080.0,128.0
3.52,-15552.0,-6016.0,64.0
3.5225,-15616.0,-6080.0,192.0
3.525,-15552.0,-6080.0,192.0
3.5275,-15488.0,-6144.0,192.0
3.53,-15552.0,-6080.0,192.0
3.5325,-15552.0,-6080.0,192.0
3.535,-15552.0,-6080.0,192.0
3.5375,-15552.0,-6016.0,128.0
3.54,-15552.0,-6016.0,128.0
3.5425,-15552.0,-6080.0,64.0
3.545,-15552.0,-6080.0,64.0
3.5475,-15552.0,-6080.0,128.0
3.55,-15552.0,-6080.0,128.0
3.5525,-15616.0,-6080.0,64.0
3.555,-15616.0,-6080.0,64.0
3.5575,-15616.0,-6016.0,128.0
3.56,-15616.0,-6016.0,128.0
3.5625,-15552.0,-6080.0,192.0
3.565,-15552.0,-5952.0,128.0
3.5675,-15616.0,-6016.0,64.0
3.57,-15552.0,-5952.0,64.0
3.5725,-15552.0,-5952.0,0.0
3.575,-15552.0,-5952.0,64.0
3.5775,-15552.0,-5952.0,128.0
3.58,-15552.0,-5888.0,64.0
3.5825,-15552.0,-5952.0,128.0
3.585,-15488.0,-5888.0,128.0
3.5875,-15488.0,-5888.0,64.0
3.59,-15488.0,-5824.0,64.0
3.5925,-15488.0,-5888.0,128.0
3.595,-15488.0,-5888.0,128.0
3.5975,-15488.0,-5888.0,128.0
3.6,-15424.0,-5824.0,128.0
3.6025,-15424.0,-5824.0,64.0
3.605,-15488.0,-5824.0,128.0
3.6075,-15488.0,-5824.0,128.0
3.61,-15424.0,-5760.0,192.0
3.6125,-15424.0,-5824.0,192.0
3.615,-15360.0,-5760.0,128.0
3.6175,-15360.0,-5696.0,128.0
3.62,-15360.0,-5696.0,64.0
3.6225,-15424.0,-5760.0,128.0
3.625,-15424.0,-5760.0,128.0
3.6275,-15424.0,-5760.0,128.0
3.63,-15360.0,-5824.0,128.0
3.6325,-15360.0,-5760.0,192.0
3.635,-15424.0,-5760.0,128.0
3.6375,-15360.0,-5696.0,128.0
3.64,-15296.0,-5760.0,128.0
3.6425,-15296.0,-5696.0,128.0
3.645,-15232.0,-5760.0,128.0
3.6475,-15168.0,-5696.0,192.0
3.65,-15104.0,-5696.0,192.0
3.6525,-15168.0,-5760.0,192.0
3.655,-15168.0,-5632.0,192.0
3.6575,-15104.0,-5632.0,192.0
3.66,-15040.0,-5632.0,256.0
3.6625,-15040.0,-5632.0,192.0
3.665,-15040.0,-5632.0,192.0
3.6675,-14976.0,-5568.0,192.0
3.67,-14976.0,-5632.0,192.0
3.6725,-14912.0,-5632.0,192.0
3.675,-14912.0,-5632.0,256.0
3.6775,-14912.0,-5632.0,192.0
3.68,-14912.0,-5632.0,256.0
3.6825,-14848.0,-5632.0,256.0
3.685,-14848.0,-5696.0,320.0
3.6875,-14912.0,-5696.0,384.0
3.69,-14912.0,-5696.0,320.0
3.6925,-14912.0,-5696.0,320.0
3.695,-14848.0,-5760.0,320.0
3.6975,-14912.0,-5760.0,320.0
3.7,-14912.0,-5760.0,320.0
3.7025,-14912.0,-5696.0,320.0
3.705,-14848.0,-5696.0,256.0
3.7075,-14848.0,-5632.0,320.0
3.71,-14912.0,-5632.0,256.0
3.7125,-14848.0,-5696.0,320.0
3.715,-14848.0,-5696.0,320.0
3.7175,-14848.0,-5632.0,256.0
3.72,-14848.0,-5632.0,320.0
3.7225,-14912.0,-5632.0,192.0
3.725,-14848.0,-5632.0,320.0
3.7275,-14848.0,-5632.0,256.0
3.73,-14848.0,-5632.0,320.0
3.7325,-14912.0,-5568.0,192.0
3.735,-14848.0,-5632.0,256.0
3.7375,-14912.0,-5696.0,192.0
3.74,-15040.0,-5696.0,256.0
3.7425,-15040.0,-5696.0,256.0
3.745,-15104.0,-5696.0,320.0
3.7475,-15104.0,-5696.0,320.0
3.75,-15168.0,-5760.0,256.0
3.7525,-15296.0,-5760.0,320.0
3.755,-15360.0,-5824.0,320.0
3.7575,-15488.0,-5824.0,320.0
3.76,-15552.0,-5824.0,320.0
3.7625,-15616.0,-5824.0,320.0
3.765,-15680.0,-5824.0,320.0
3.7675,-15616.0,-5824.0,256.0
3.77,-15744.0,-5824.0,256.0
3.7725,-15744.0,-5824.0,256.0
3.775,-15808.0,-5824.0,256.0
3.7775,-15808.0,-5824.0,320.0
3.78,-15808.0,-5824.0,320.0
3.7825,-15872.0,-5888.0,256.0
3.785,-15872.0,-5888.0,256.0
3.7875,-15808.0,-5888.0,320.0
3.79,-15872.0,-5888.0,256.0
3.7925,-15872.0,-5824.0,256.0
3.795,-15872.0,-5888.0,320.0
3.7975,-15872.0,-5888.0,192.0
3.8,-15808.0,-5824.0,256.0
3.8025,-15872.0,-5824.0,320.0
3.805,-15808.0,-5824.0,320.0
3.8075,-15808.0,-5888.0,384.0
3.81,-15744.0,-5888.0,448.0
3.8125,-15744.0,-5824.0,320.0
3.815,-15744.0,-5888.0,384.0
3.8175,-15744.0,-5888.0,384.0
3.82,-15680.0,-5888.0,448.0
3.8225,-15616.0,-5824.0,448.0
3.825,-15616.0,-5824.0,384.0
3.8275,-15616.0,-5760.0,320.0
3.83,-15616.0,-5824.0,320.0
3.8325,-15616.0,-5760.0,384.0
3.835,-15616.0,-5696.0,384.0
3.8375,-15488.0,-5760.0,448.0
3.84,-15488.0,-5760.0,384.0
3.8425,-15488.0,-5760.0,448.0
3.845,-15552.0,-5760.0,384.0
3.8475,-15488.0,-5760.0,384.0
3.85,-15552.0,-5760.0,448.0
3.8525,-15552.0,-5760.0,384.0
3.855,-15424.0,-5760.0,384.0
3.8575,-15488.0,-5824.0,384.0
3.86,-15488.0,-5824.0,384.0
3.8625,-15424.0,-5760.0,384.0
3.865,-15360.0,-5824.0,384.0
3.8675,-15360.0,-5824.0,384.0
3.87,-15360.0,-5760.0,384.0
3.8725,-15232.0,-5760.0,384.0
3.875,-15232.0,-5760.0,448.0
3.8775,-15232.0,-5760.0,448.0
3.88,-15232.0,-5824.0,448.0
3.8825,-15168.0,-5760.0,448.0
3.885,-15232.0,-5696.0,320.0
3.8875,-15168.0,-5696.0,384.0
3.89,-15104.0,-5760.0,448.0
3.8925,-15040.0,-5696.0,448.0
3.895,-15040.0,-5696.0,384.0
3.8975,-15104.0,-5696.0,448.0
3.9,-15040.0,-5696.0,512.0
3.9025,-15040.0,-5696.0,448.0
3.905,-15040.0,-5696.0,384.0
3.9075,-15040.0,-5696.0,384.0
3.91,-15040.0,-5760.0,384.0
3.9125,-15040.0,-5760.0,384.0
3.915,-15104.0,-5760.0,384.0
3.9175,-15104.0,-5760.0,384.0
3.92,-15168.0,-5696.0,384.0
3.9225,-15168.0,-5760.0,384.0
3.925,-15168.0,-5760.0,384.0
3.9275,-15232.0,-5760.0,384.0
3.93,-15232.0,-5760.0,384.0
3.9325,-15232.0,-5824.0,320.0
3.935,-15296.0,-5760.0,320.0
3.9375,-15360.0,-5760.0,320.0
3.94,-15360.0,-5696.0,320.0
3.9425,-15360.0,-5696.0,320.0
3.945,-15360.0,-5696.0,384.0
3.9475,-15424.0,-5760.0,320.0
3.95,-15424.0,-5824.0,320.0
3.9525,-15488.0,-5760.0,320.0
3.955,-15488.0,-5760.0,256.0
3.9575,-15488.0,-5760.0,192.0
3.96,-15552.0,-5824.0,192.0
3.9625,-15616.0,-5824.0,192.0
3.965,-15616.0,-5760.0,192.0
3.9675,-15616.0,-5824.0,192.0
3.97,-15616.0,-5824.0,192.0
3.9725,-15616.0,-5824.0,192.0
3.975,-15552.0,-5824.0,192.0
3.9775,-15616.0,-5888.0,192.0
3.98,-15616.0,-5888.0,192.0
3.9825,-15680.0,-5888.0,192.0
3.985,-15680.0,-5888.0,192.0
3.9875,-15680.0,-5888.0,64.0
3.99,-15680.0,-5888.0,64.0
3.9925,-15680.0,-5824.0,128.0
3.995,-15680.0,-5824.0,192.0
3.9975,-15680.0,-5824.0,128.0
4.0,-15680.0,-5824.0,128.0
4.0025,-15680.0,-5824.0,64.0
4.005,-15616.0,-5824.0,64.0
4.0075,-15616.0,-5888.0,128.0
4.01,-15552.0,-5888.0,128.0
4.0125,-15488.0,-5760.0,128.0
4.015,-15488.0,-5824.0,192.0
4.0175,-15424.0,-5824.0,256.0
4.02,-15424.0,-5760.0,192.0
4.0225,-15360.0,-5824.0,192.0
4.025,-15360.0,-5824.0,256.0
4.0275,-15360.0,-5824.0,192.0
4.03,-15296.0,-5824.0,192.0
4.0325,-15360.0,-5824.0,192.0
4.035,-15360.0,-5824.0,192.0
4.0375,-15360.0,-5824.0,192.0
4.04,-15232.0,-5824.0,192.0
4.0425,-15296.0,-5760.0,192.0
4.045,-15296.0,-5760.0,128.0
4.0475,-15296.0,-5760.0,192.0
4.05,-15296.0,-5824.0,128.0
4.0525,-15360.0,-5824.0,192.0
4.055,-15360.0,-5824.0,192.0
4.0575,-15296.0,-5760.0,192.0
4.06,-15296.0,-5760.0,128.0
4.0625,-15296.0,-5760.0,128.0
4.065,-15296.0,-5760.0,128.0
4.0675,-15296.0,-5760.0,192.0
4.07,-15296.0,-5760.0,192.0
4.0725,-15360.0,-5760.0,192.0
4.075,-15360.0,-5760.0,256.0
4.0775,-15360.0,-5760.0,256.0
4.08,-15296.0,-5760.0,192.0
4.0825,-15296.0,-5760.0,192.0
4.085,-15296.0,-5760.0,256.0
4.0875,-15232.0,-5760.0,128.0
4.09,-15168.0,-5760.0,192.0
4.0925,-15168.0,-5696.0,128.0
4.095,-15232.0,-5760.0,192.0
4.0975,-15168.0,-5760.0,128.0
4.1,-15104.0,-5760.0,256.0
4.1025,-15104.0,-5760.0,192.0
4.105,-15104.0,-5696.0,256.0
4.1075,-15104.0,-5696.0,256.0
4.11,-15104.0,-5632.0,256.0
4.1125,-15040.0,-5632.0,320.0
4.115,-14976.0,-5632.0,320.0
4.1175,-14912.0,-5696.0,320.0
4.12,-14848.0,-5696.0,384.0
4.1225,-14848.0,-5632.0,384.0
4.125,-14848.0,-5696.0,448.0
4.1275,-14784.0,-5696.0,448.0
4.13,-14720.0,-5632.0,512.0
4.1325,-14784.0,-5632.0,448.0
4.135,-14720.0,-5568.0,448.0
4.1375,-14720.0,-5568.0,512.0
4.14,-14784.0,-5568.0,512.0
4.1425,-14784.0,-5568.0,512.0
4.145,-14784.0,-5568.0,512.0
4.1475,-14848.0,-5568.0,512.0
4.15,-14848.0,-5568.0,448.0
4.1525,-14912.0,-5504.0,384.0
4.155,-14912.0,-5568.0,384.0
4.1575,-14912.0,-5632.0,320.0
4.16,-15040.0,-5696.0,320.0
4.1625,-15040.0,-5696.0,320.0
4.165,-15040.0,-5696.0,320.0
4.1675,-15040.0,-5696.0,320.0
4.17,-15168.0,-5760.0,320.0
4.1725,-15168.0,-5696.0,384.0
4.175,-15168.0,-5696.0,320.0
4.1775,-15168.0,-5696.0,384.0
4.18,-15168.0,-5696.0,320.0
4.1825,-15168.0,-5696.0,384.0
4.185,-15168.0,-5760.0,384.0
4.1875,-15232.0,-5760.0,384.0
4.19,-15296.0,-5696.0,384.0
4.1925,-15232.0,-5696.0,384.0
4.195,-15232.0,-5632.0,384.0
4.1975,-15232.0,-5760.0,384.0
4.2,-15232.0,-5696.0,384.0
4.2025,-15232.0,-5696.0,320.0
4.205,-15232.0,-5760.0,384.0
4.2075,-15232.0,-5760.0,384.0
4.21,-15232.0,-5760.0,448.0
4.2125,-15232.0,-5824.0,384.0
4.215,-15296.0,-5760.0,448.0
4.2175,-15360.0,-5760.0,384.0
4.22,-15360.0,-5760.0,384.0
4.2225,-15424.0,-5824.0,384.0
4.225,-15424.0,-5760.0,320.0
4.2275,-15424.0,-5760.0,256.0
4.23,-15424.0,-5760.0,256.0
4.2325,-15424.0,-5760.0,256.0
4.235,-15488.0,-5824.0,320.0
4.2375,-15424.0,-5760.0,256.0
4.24,-15488.0,-5760.0,256.0
4.2425,-15488.0,-5696.0,192.0
4.245,-15488.0,-5696.0,256.0
4.2475,-15488.0,-5696.0,256.0
4.25,-15488.0,-5760.0,256.0
4.2525,-15488.0,-5696.0,256.0
4.255,-15488.0,-5696.0,192.0
4.2575,-15424.0,-5696.0,192.0
4.26,-15360.0,-5696.0,256.0
4.2625,-15360.0,-5696.0,128.0
4.265,-15360.0,-5696.0,128.0
4.2675,-15360.0,-5760.0,192.0
4.27,-15360.0,-5760.0,256.0
4.2725,-15360.0,-5696.0,192.0
4.275,-15360.0,-5696.0,192.0
4.2775,-15360.0,-5696.0,128.0
4.28,-15360.0,-5696.0,128.0
4.2825,-15296.0,-5696.0,128.0
4.285,-15232.0,-5696.0,128.0
4.2875,-15232.0,-5696.0,192.0
4.29,-15232.0,-5760.0,192.0
4.2925,-15296.0,-5760.0,128.0
4.295,-15296.0,-5760.0,192.0
4.2975,-15296.0,-5760.0,192.0
4.3,-15360.0,-5760.0,128.0
4.3025,-15296.0,-5760.0,128.0
4.305,-15296.0,-5760.0,192.0
4.3075,-15360.0,-5760.0,192.0
4.31,-15360.0,-5760.0,192.0
4.3125,-15424.0,-5760.0,128.0
4.315,-15424.0,-5824.0,128.0
4.3175,-15424.0,-5824.0,192.0
4.32,-15424.0,-5824.0,192.0
4.3225,-15488.0,-5760.0,64.0
4.325,-15424.0,-5760.0,64.0
4.3275,-15424.0,-5760.0,128.0
4.33,-15488.0,-5824.0,128.0
4.3325,-15488.0,-5760.0,128.0
4.335,-15488.0,-5824.0,128.0
4.3375,-15488.0,-5824.0,128.0
4.34,-15488.0,-5824.0,128.0
4.3425,-15488.0,-5824.0,64.0
4.345,-15488.0,-5824.0,0.0
4.3475,-15424.0,-5760.0,0.0
4.35,-15488.0,-5824.0,64.0
4.3525,-15424.0,-5824.0,0.0
4.355,-15424.0,-5824.0,64.0
4.3575,-15360.0,-5824.0,64.0
4.36,-15424.0,-5824.0,64.0
4.3625,-15360.0,-5824.0,64.0
4.365,-15296.0,-5824.0,64.0
4.3675,-15360.0,-5824.0,0.0
4.37,-15360.0,-5824.0,64.0
4.3725,-15360.0,-5760.0,0.0
4.375,-15296.0,-5824.0,64.0
4.3775,-15296.0,-5760.0,64.0
4.38,-15296.0,-5824.0,64.0
4.3825,-15296.0,-5760.0,128.0
4.385,-15296.0,-5824.0,64.0
4.3875,-15360.0,-5888.0,0.0
4.39,-15296.0,-5888.0,0.0
4.3925,-15360.0,-5824.0,0.0
4.395,-15360.0,-5888.0,0.0
4.3975,-15360.0,-5888.0,64.0
4.4,-15360.0,-5888.0,0.0
4.4025,-15360.0,-5888.0,0.0
4.405,-15360.0,-5824.0,-64.0
4.4075,-15360.0,-5824.0,-64.0
4.41,-15360.0,-5824.0,-128.0
4.4125,-15296.0,-5824.0,-64.0
4.415,-15360.0,-5824.0,0.0
4.4175,-15360.0,-5824.0,64.0
4.42,-15360.0,-5824.0,128.0
4.4225,-15296.0,-5824.0,64.0
4.425,-15296.0,-5760.0,64.0
4.4275,-15232.0,-5888.0,0.0
4.43,-15232.0,-5824.0,0.0
4.4325,-15232.0,-5888.0,0.0
4.435,-15232.0,-5888.0,0.0
4.4375,-15232.0,-5888.0,64.0
4.44,-15296.0,-5888.0,0.0
4.4425,-15232.0,-5888.0,0.0
4.445,-15168.0,-5888.0,0.0
4.4475,-15168.0,-5888.0,0.0
4.45,-15232.0,-5888.0,0.0
4.4525,-15232.0,-5888.0,0.0
4.455,-15232.0,-5888.0,0.0
4.4575,-15168.0,-5888.0,0.0
4.46,-15232.0,-5888.0,64.0
4.4625,-15296.0,-5888.0,64.0
4.465,-15296.0,-5888.0,64.0
4.4675,-15296.0,-5824.0,0.0
4.47,-15296.0,-5888.0,64.0
4.4725,-15296.0,-5888.0,64.0
4.475,-15296.0,-5888.0,64.0
4.4775,-15296.0,-5824.0,64.0
4.48,-15296.0,-5824.0,64.0
4.4825,-15296.0,-5824.0,64.0
4.485,-15296.0,-5824.0,64.0
4.4875,-15360.0,-5888.0,128.0
4.49,-15360.0,-5824.0,64.0
4.4925,-15360.0,-5824.0,64.0
4.495,-15360.0,-5888.0,64.0
4.4975,-15424.0,-5824.0,0.0
4.5,-15424.0,-5824.0,0.0
4.5025,-15424.0,-5824.0,0.0
4.505,-15424.0,-5824.0,-64.0
4.5075,-15424.0,-5760.0,0.0
4.51,-15424.0,-5760.0,0.0
4.5125,-15424.0,-5760.0,0.0
4.515,-15424.0,-5824.0,64.0
4.5175,-15424.0,-5760.0,64.0
4.52,-15488.0,-5824.0,64.0
4.5225,-15488.0,-5760.0,64.0
4.525,-15488.0,-5760.0,128.0
4.5275,-15552.0,-5696.0,128.0
4.53,-15488.0,-5632.0,64.0
4.5325,-15552.0,-5632.0,64.0
4.535,-15552.0,-5696.0,64.0
4.5375,-15552.0,-5760.0,128.0
4.54,-15552.0,-5696.0,64.0
4.5425,-15616.0,-5696.0,64.0
4.545,-15552.0,-5632.0,0.0
4.5475,-15616.0,-5632.0,128.0
4.55,-15680.0,-5632.0,128.0
4.5525,-15616.0,-5696.0,192.0
4.555,-15680.0,-5696.0,192.0
4.5575,-15744.0,-5696.0,128.0
4.56,-15744.0,-5504.0,128.0
4.5625,-15744.0,-5568.0,128.0
4.565,-15680.0,-5568.0,64.0
4.5675,-15680.0,-5632.0,64.0
4.57,-15744.0,-5632.0,128.0
4.5725,-15744.0,-5568.0,128.0
4.575,-15744.0,-5632.0,128.0
4.5775,-15744.0,-5568.0,64.0
4.58,-15808.0,-5568.0,0.0
4.5825,-15744.0,-5632.0,64.0
4.585,-15680.0,-5632.0,128.0
4.5875,-15680.0,-5632.0,0.0
4.59,-15680.0,-5632.0,64.0
4.5925,-15744.0,-5568.0,64.0
4.595,-15680.0,-5504.0,128.0
4.5975,-15616.0,-5504.0,64.0
4.6,-15616.0,-5568.0,64.0
4.6025,-15616.0,-5632.0,64.0
4.605,-15616.0,-5568.0,128.0
4.6075,-15616.0,-5440.0,128.0
4.61,-15616.0,-5504.0,128.0
4.6125,-15552.0,-5568.0,128.0
4.615,-15616.0,-5568.0,128.0
4.6175,-15552.0,-5504.0,64.0
4.62,-15552.0,-5440.0,128.0
4.6225,-15552.0,-5504.0,192.0
4.625,-15552.0,-5504.0,192.0
4.6275,-15552.0,-5440.0,192.0
4.63,-15424.0,-5440.0,256.0
4.6325,-15424.0,-5504.0,256.0
4.635,-15488.0,-5568.0,256.0
4.6375,-15360.0,-5504.0,320.0
4.64,-15424.0,-5568.0,256.0
4.6425,-15360.0,-5568.0,320.0
4.645,-15360.0,-5504.0,320.0
4.6475,-15296.0,-5440.0,256.0
4.65,-15296.0,-5440.0,320.0
4.6525,-15296.0,-5568.0,256.0
4.655,-15296.0,-5504.0,256.0
4.6575,-15296.0,-5504.0,320.0
4.66,-15360.0,-5504.0,256.0
4.6625,-15296.0,-5568.0,256.0
4.665,-15296.0,-5440.0,320.0
4.6675,-15232.0,-5568.0,320.0
4.67,-15232.0,-5504.0,320.0
4.6725,-15296.0,-5568.0,256.0
4.675,-15232.0,-5568.0,256.0
4.6775,-15296.0,-5568.0,256.0
4.68,-15232.0,-5632.0,256.0
4.6825,-15232.0,-5632.0,256.0
4.685,-15232.0,-5632.0,256.0
4.6875,-15296.0,-5696.0,256.0
4.69,-15232.0,-5568.0,256.0
4.6925,-15296.0,-5632.0,256.0
4.695,-15296.0,-5696.0,256.0
4.6975,-15296.0,-5696.0,256.0
4.7,-15296.0,-5696.0,192.0
4.7025,-15360.0,-5696.0,256.0
4.705,-15360.0,-5696.0,192.0
4.7075,-15296.0,-5696.0,256.0
4.71,-15296.0,-5696.0,320.0
4.7125,-15296.0,-5696.0,256.0
4.715,-15232.0,-5760.0,256.0
4.7175,-15296.0,-5760.0,192.0
4.72,-15296.0,-5760.0,256.0
4.7225,-15296.0,-5760.0,192.0
4.725,-15296.0,-5760.0,192.0
4.7275,-15296.0,-5760.0,128.0
4.73,-15296.0,-5760.0,192.0
4.7325,-15360.0,-5824.0,192.0
4.735,-15424.0,-5824.0,128.0
4.7375,-15424.0,-5824.0,128.0
4.74,-15424.0,-5824.0,192.0
4.7425,-15488.0,-5824.0,192.0
4.745,-15488.0,-5824.0,128.0
4.7475,-15488.0,-5824.0,192.0
4.75,-15488.0,-5824.0,192.0
4.7525,-15488.0,-5824.0,256.0
4.755,-15552.0,-5888.0,128.0
4.7575,-15488.0,-5824.0,192.0
4.76,-15424.0,-5824.0,192.0
4.7625,-15488.0,-5888.0,192.0
4.765,-15424.0,-5952.0,192.0
4.7675,-15424.0,-5888.0,128.0
4.77,-15424.0,-5888.0,128.0
4.7725,-15424.0,-5888.0,192.0
4.775,-15552.0,-5888.0,192.0
4.7775,-15552.0,-5952.0,192.0
4.78,-15552.0,-5952.0,128.0
4.7825,-15552.0,-5952.0,192.0
4.785,-15680.0,-6016.0,128.0
4.7875,-15744.0,-6016.0,192.0
4.79,-15680.0,-6016.0,192.0
4.7925,-15680.0,-6016.0,128.0
4.795,-15744.0,-6080.0,128.0
4.7975,-15744.0,-6080.0,192.0
4.8,-15744.0,-6016.0,192.0
4.8025,-15808.0,-6016.0,192.0
4.805,-15808.0,-6080.0,64.0
4.8075,-15872.0,-6016.0,0.0
4.81,-15936.0,-5952.0,64.0
4.8125,-15936.0,-6016.0,0.0
4.815,-15936.0,-6016.0,-64.0
4.8175,-16000.0,-5952.0,-64.0
4.82,-16000.0,-6016.0,0.0
4.8225,-16000.0,-6016.0,0.0
4.825,-16000.0,-6080.0,0.0
4.8275,-16000.0,-6080.0,0.0
4.83,-16000.0,-6080.0,64.0
4.8325,-15936.0,-6016.0,128.0
4.835,-15936.0,-6080.0,128.0
4.8375,-15936.0,-6080.0,192.0
4.84,-15936.0,-6144.0,128.0
4.8425,-15936.0,-6144.0,192.0
4.845,-15872.0,-6144.0,128.0
4.8475,-15872.0,-6144.0,192.0
4.85,-15808.0,-6208.0,192.0
4.8525,-15808.0,-6080.0,256.0
4.855,-15744.0,-6080.0,192.0
4.8575,-15744.0,-6080.0,256.0
4.86,-15744.0,-6016.0,256.0
4.8625,-15744.0,-6016.0,192.0
4.865,-15744.0,-6080.0,192.0
4.8675,-15744.0,-6016.0,128.0
4.87,-15744.0,-6080.0,128.0
4.8725,-15808.0,-6016.0,64.0
4.875,-15744.0,-6016.0,64.0
4.8775,-15744.0,-6016.0,128.0
4.88,-15744.0,-6016.0,128.0
4.8825,-15744.0,-6016.0,128.0
4.885,-15744.0,-6016.0,128.0
4.8875,-15680.0,-6016.0,64.0
4.89,-15680.0,-5952.0,0.0
4.8925,-15680.0,-6016.0,64.0
4.895,-15680.0,-6016.0,128.0
4.8975,-15744.0,-5952.0,128.0
4.9,-15744.0,-6016.0,192.0
4.9025,-15744.0,-6080.0,192.0
4.905,-15744.0,-6016.0,192.0
4.9075,-15680.0,-5952.0,192.0
4.91,-15744.0,-5952.0,192.0
4.9125,-15680.0,-6016.0,192.0
4.915,-15616.0,-5952.0,192.0
4.9175,-15552.0,-6016.0,192.0
4.92,-15552.0,-5952.0,128.0
4.9225,-15552.0,-5952.0,64.0
4.925,-15552.0,-5888.0,64.0
4.9275,-15488.0,-5888.0,128.0
4.93,-15488.0,-5888.0,128.0
4.9325,-15424.0,-5888.0,128.0
4.935,-15424.0,-5824.0,128.0
4.9375,-15296.0,-5824.0,128.0
4.94,-15360.0,-5824.0,192.0
4.9425,-15296.0,-5888.0,128.0
4.945,-15296.0,-5824.0,192.0
4.9475,-15296.0,-5824.0,128.0
4.95,-15296.0,-5824.0,128.0
4.9525,-15232.0,-5888.0,128.0
4.955,-15168.0,-5824.0,128.0
4.9575,-15104.0,-5824.0,128.0
4.96,-15104.0,-5760.0,192.0
4.9625,-15040.0,-5696.0,192.0
4.965,-15040.0,-5696.0,192.0
4.9675,-15040.0,-5760.0,192.0
4.97,-15040.0,-5760.0,128.0
4.9725,-14912.0,-5760.0,128.0
4.975,-14912.0,-5760.0,192.0
4.9775,-14976.0,-5696.0,192.0
4.98,-14976.0,-5696.0,192.0
4.9825,-14912.0,-5696.0,128.0
4.985,-14912.0,-5696.0,64.0
4.9875,-14848.0,-5632.0,128.0
4.99,-14912.0,-5696.0,128.0
4.9925,-14912.0,-5696.0,192.0
4.995,-14912.0,-5760.0,128.0
4.9975,-14976.0,-5760.0,64.0
5.0,-15040.0,-5760.0,64.0
5.0025,-15040.0,-5760.0,128.0
5.005,-15168.0,-5760.0,128.0
5.0075,-15168.0,-5760.0,128.0
5.01,-15168.0,-5824.0,128.0
5.0125,-15168.0,-5824.0,128.0
5.015,-15232.0,-5824.0,128.0
5.0175,-15232.0,-5824.0,128.0
5.02,-15232.0,-5824.0,128.0
5.0225,-15296.0,-5760.0,192.0
5.025,-15232.0,-5824.0,128.0
5.0275,-15232.0,-5760.0,128.0
5.03,-15232.0,-5824.0,128.0
5.0325,-15232.0,-5760.0,64.0
5.035,-15168.0,-5760.0,128.0
5.0375,-15168.0,-5760.0,128.0
5.04,-15232.0,-5760.0,64.0
5.0425,-15232.0,-5696.0,64.0
5.045,-15296.0,-5696.0,128.0
5.0475,-15360.0,-5696.0,64.0
5.05,-15360.0,-5760.0,64.0
5.0525,-15360.0,-5760.0,64.0
5.055,-15424.0,-5760.0,0.0
5.0575,-15424.0,-5760.0,128.0
5.06,-15552.0,-5824.0,128.0
5.0625,-15616.0,-5824.0,64.0
5.065,-15616.0,-5824.0,64.0
5.0675,-15616.0,-5888.0,0.0
5.07,-15744.0,-5888.0,0.0
5.0725,-15744.0,-5888.0,64.0
5.075,-15872.0,-5824.0,64.0
5.0775,-15872.0,-5824.0,64.0
5.08,-15936.0,-5824.0,64.0
5.0825,-16000.0,-5824.0,128.0
5.085,-15936.0,-5824.0,128.0
5.0875,-15936.0,-5824.0,64.0
5.09,-16000.0,-5824.0,64.0
5.0925,-16000.0,-5824.0,0.0
5.095,-16064.0,-5824.0,0.0
5.0975,-16064.0,-5824.0,0.0
5.1,-16064.0,-5824.0,0.0
5.1025,-16064.0,-5824.0,-64.0
5.105,-16064.0,-5824.0,0.0
5.1075,-16064.0,-5824.0,0.0
5.11,-16000.0,-5824.0,0.0
5.1125,-16128.0,-5824.0,0.0
5.115,-16064.0,-5824.0,-64.0
5.1175,-16000.0,-5888.0,0.0
5.12,-16000.0,-5824.0,64.0
5.1225,-16000.0,-5824.0,0.0
5.125,-16000.0,-5760.0,-64.0
5.1275,-16000.0,-5760.0,64.0
5.13,-16064.0,-5760.0,64.0
5.1325,-16000.0,-5760.0,64.0
5.135,-16000.0,-5760.0,64.0
5.1375,-16000.0,-5760.0,64.0
5.14,-16000.0,-5760.0,64.0
5.1425,-15936.0,-5760.0,64.0
5.145,-15936.0,-5760.0,64.0
5.1475,-15936.0,-5760.0,64.0
5.15,-15936.0,-5760.0,64.0
5.1525,-15872.0,-5760.0,128.0
5.155,-15936.0,-5760.0,128.0
5.1575,-15936.0,-5760.0,128.0
5.16,-15936.0,-5824.0,64.0
5.1625,-15872.0,-5824.0,64.0
5.165,-15872.0,-5824.0,128.0
5.1675,-15872.0,-5824.0,64.0
5.17,-15872.0,-5824.0,128.0
5.1725,-15808.0,-5824.0,128.0
5.175,-15872.0,-5824.0,128.0
5.1775,-15872.0,-5824.0,64.0
5.18,-15808.0,-5760.0,64.0
5.1825,-15808.0,-5760.0,64.0
5.185,-15808.0,-5760.0,64.0
5.1875,-15808.0,-5760.0,0.0
5.19,-15744.0,-5696.0,0.0
5.1925,-15744.0,-5760.0,64.0
5.195,-15744.0,-5696.0,0.0
5.1975,-15808.0,-5696.0,64.0
5.2,-15744.0,-5824.0,64.0
5.2025,-15744.0,-5760.0,128.0
5.205,-15744.0,-5696.0,128.0
5.2075,-15744.0,-5760.0,64.0
5.21,-15808.0,-5824.0,64.0
5.2125,-15808.0,-5760.0,128.0
5.215,-15808.0,-5824.0,128.0
5.2175,-15808.0,-5888.0,128.0
5.22,-15744.0,-5888.0,128.0
5.2225,-15808.0,-5888.0,128.0
5.225,-15808.0,-5888.0,64.0
5.2275,-15808.0,-5888.0,128.0
5.23,-15808.0,-5888.0,64.0
5.2325,-15808.0,-5888.0,128.0
5.235,-15808.0,-5952.0,64.0
5.2375,-15808.0,-5952.0,64.0
5.24,-15808.0,-5952.0,64.0
5.2425,-15872.0,-5888.0,128.0
5.245,-15872.0,-5952.0,64.0
5.2475,-15872.0,-5952.0,64.0
5.25,-15936.0,-5888.0,64.0
5.2525,-15872.0,-5888.0,64.0
5.255,-15872.0,-5888.0,0.0
5.2575,-15872.0,-5952.0,64.0
5.26,-15936.0,-5952.0,64.0
5.2625,-15872.0,-6016.0,0.0
5.265,-15936.0,-6080.0,0.0
5.2675,-15936.0,-6016.0,0.0
5.27,-15936.0,-6016.0,64.0
5.2725,-15936.0,-6080.0,0.0
5.275,-15936.0,-6080.0,0.0
5.2775,-15936.0,-6016.0,0.0
5.28,-15936.0,-6016.0,0.0
5.2825,-15872.0,-6080.0,64.0
5.285,-15936.0,-6080.0,0.0
5.2875,-15936.0,-6080.0,64.0
5.29,-15936.0,-6080.0,64.0
5.2925,-15936.0,-6144.0,128.0
5.295,-15936.0,-6080.0,64.0
5.2975,-15936.0,-6080.0,64.0
5.3,-15936.0,-6144.0,128.0
5.3025,-15936.0,-6144.0,192.0
5.305,-15936.0,-6080.0,128.0
5.3075,-15936.0,-6080.0,128.0
5.31,-15936.0,-6016.0,128.0
5.3125,-15872.0,-6016.0,128.0
5.315,-15872.0,-6016.0,128.0
5.3175,-15808.0,-6080.0,192.0
5.32,-15808.0,-6080.0,192.0
5.3225,-15808.0,-6080.0,256.0
5.325,-15808.0,-6080.0,192.0
5.3275,-15680.0,-6016.0,256.0
5.33,-15744.0,-6016.0,192.0
5.3325,-15680.0,-6016.0,256.0
5.335,-15744.0,-6080.0,192.0
5.3375,-15680.0,-6016.0,192.0
5.34,-15680.0,-6016.0,256.0
5.3425,-15680.0,-6016.0,256.0
5.345,-15616.0,-6016.0,192.0
5.3475,-15616.0,-5952.0,192.0
5.35,-15680.0,-6016.0,192.0
5.3525,-15616.0,-5952.0,256.0
5.355,-15616.0,-5952.0,192.0
5.3575,-15616.0,-6016.0,192.0
5.36,-15680.0,-6016.0,192.0
5.3625,-15680.0,-6016.0,192.0
5.365,-15680.0,-5952.0,256.0
5.3675,-15680.0,-5952.0,320.0
5.37,-15680.0,-5952.0,320.0
5.3725,-15616.0,-6016.0,448.0
5.375,-15680.0,-6016.0,384.0
5.3775,-15616.0,-5952.0,384.0
5.38,-15616.0,-6016.0,448.0
5.3825,-15616.0,-5952.0,384.0
5.385,-15616.0,-5952.0,256.0
5.3875,-15616.0,-5952.0,384.0
5.39,-15616.0,-5952.0,384.0
5.3925,-15616.0,-5952.0,256.0
5.395,-15616.0,-5952.0,256.0
5.3975,-15616.0,-6016.0,320.0
5.4,-15616.0,-5952.0,320.0
5.4025,-15616.0,-5952.0,320.0
5.405,-15616.0,-5888.0,384.0
5.4075,-15616.0,-5888.0,384.0
5.41,-15616.0,-5952.0,320.0
5.4125,-15680.0,-5888.0,320.0
5.415,-15744.0,-5888.0,384.0
5.4175,-15744.0,-5888.0,320.0
5.42,-15744.0,-5888.0,320.0
5.4225,-15744.0,-5888.0,384.0
5.425,-15744.0,-5888.0,384.0
5.4275,-15808.0,-5952.0,320.0
5.43,-15872.0,-5888.0,448.0
5.4325,-15872.0,-5888.0,320.0
5.435,-15872.0,-5952.0,320.0
5.4375,-15872.0,-5952.0,320.0
5.44,-15872.0,-5888.0,320.0
5.4425,-15936.0,-5888.0,384.0
5.445,-15872.0,-5952.0,320.0
5.4475,-15936.0,-5952.0,320.0
5.45,-15936.0,-5952.0,320.0
5.4525,-15936.0,-5888.0,320.0
5.455,-15936.0,-5952.0,320.0
5.4575,-15936.0,-6016.0,384.0
5.46,-15936.0,-5888.0,384.0
5.4625,-15936.0,-5888.0,320.0
5.465,-15936.0,-5888.0,320.0
5.4675,-16000.0,-5888.0,320.0
5.47,-16000.0,-5888.0,320.0
5.4725,-16000.0,-5888.0,384.0
5.475,-16000.0,-5952.0,384.0
5.4775,-16064.0,-5952.0,384.0
5.48,-16000.0,-5888.0,320.0
5.4825,-16000.0,-5952.0,320.0
5.485,-16064.0,-5952.0,256.0
5.4875,-16064.0,-5888.0,256.0
5.49,-16064.0,-5888.0,320.0
5.4925,-16128.0,-5952.0,256.0
5.495,-16128.0,-5888.0,256.0
5.4975,-16064.0,-5952.0,256.0
5.5,-16128.0,-5952.0,256.0
5.5025,-16128.0,-6016.0,256.0
5.505,-16064.0,-5952.0,320.0
5.5075,-16064.0,-5952.0,320.0
5.51,-16064.0,-5952.0,256.0
5.5125,-16064.0,-5888.0,256.0
5.515,-16064.0,-5952.0,256.0
5.5175,-16128.0,-5952.0,256.0
5.52,-16128.0,-5952.0,256.0
5.5225,-16128.0,-5888.0,256.0
5.525,-16064.0,-5952.0,256.0
5.5275,-16064.0,-5952.0,256.0
5.53,-16000.0,-5952.0,256.0
5.5325,-15936.0,-5952.0,192.0
5.535,-15936.0,-5952.0,256.0
5.5375,-15872.0,-6016.0,256.0
5.54,-15808.0,-5952.0,256.0
5.5425,-15808.0,-5888.0,192.0
5.545,-15808.0,-5952.0,192.0
5.5475,-15872.0,-5888.0,128.0
5.55,-15808.0,-5888.0,128.0
5.5525,-15808.0,-5952.0,192.0
5.555,-15872.0,-5888.0,128.0
5.5575,-15872.0,-5952.0,128.0
5.56,-15808.0,-5888.0,192.0
5.5625,-15808.0,-5888.0,64.0
5.565,-15872.0,-5888.0,128.0
5.5675,-15808.0,-5888.0,128.0
5.57,-15744.0,-5888.0,128.0
5.5725,-15744.0,-5952.0,128.0
5.575,-15744.0,-5952.0,128.0
5.5775,-15680.0,-5888.0,128.0
5.58,-15616.0,-5888.0,128.0
5.5825,-15616.0,-5824.0,128.0
5.585,-15680.0,-5888.0,128.0
5.5875,-15616.0,-5824.0,192.0
5.59,-15616.0,-5824.0,128.0
5.5925,-15616.0,-5824.0,192.0
5.595,-15552.0,-5824.0,128.0
5.5975,-15616.0,-5888.0,192.0
5.6,-15616.0,-5824.0,64.0
5.6025,-15488.0,-5824.0,0.0
5.605,-15552.0,-5824.0,64.0
5.6075,-15616.0,-5824.0,64.0
5.61,-15552.0,-5824.0,0.0
5.6125,-15552.0,-5888.0,64.0
5.615,-15552.0,-5824.0,0.0
5.6175,-15552.0,-5824.0,-64.0
5.62,-15552.0,-5824.0,0.0
5.6225,-15552.0,-5824.0,64.0
5.625,-15552.0,-5888.0,0.0
5.6275,-15552.0,-5824.0,0.0
5.63,-15552.0,-5888.0,64.0
5.6325,-15552.0,-5824.0,64.0
5.635,-15552.0,-5888.0,64.0
5.6375,-15552.0,-5824.0,64.0
5.64,-15616.0,-5888.0,128.0
5.6425,-15552.0,-5824.0,64.0
5.645,-15488.0,-5824.0,128.0
5.6475,-15488.0,-5824.0,64.0
5.65,-15424.0,-5760.0,64.0
5.6525,-15488.0,-5760.0,64.0
5.655,-15488.0,-5760.0,64.0
5.6575,-15424.0,-5760.0,64.0
5.66,-15360.0,-5824.0,128.0
5.6625,-15424.0,-5760.0,64.0
5.665,-15360.0,-5696.0,64.0
5.6675,-15360.0,-5696.0,128.0
5.67,-15296.0,-5696.0,64.0
5.6725,-15296.0,-5760.0,64.0
5.675,-15296.0,-5760.0,64.0
5.6775,-15232.0,-5760.0,0.0
5.68,-15168.0,-5760.0,64.0
5.6825,-15168.0,-5696.0,0.0
5.685,-15168.0,-5760.0,0.0
5.6875,-15168.0,-5696.0,64.0
5.69,-15168.0,-5632.0,64.0
5.6925,-15104.0,-5632.0,64.0
5.695,-15104.0,-5632.0,64.0
5.6975,-15104.0,-5632.0,0.0
5.7,-15104.0,-5632.0,0.0
5.7025,-15040.0,-5632.0,0.0
5.705,-15040.0,-5696.0,-64.0
5.7075,-14976.0,-5632.0,0.0
5.71,-15040.0,-5632.0,-64.0
5.7125,-14976.0,-5632.0,-64.0
5.715,-14912.0,-5568.0,0.0
5.7175,-14912.0,-5568.0,-64.0
5.72,-14912.0,-5568.0,-64.0
5.7225,-14848.0,-5568.0,0.0
5.725,-14848.0,-5568.0,64.0
5.7275,-14848.0,-5568.0,0.0
5.73,-14912.0,-5632.0,-64.0
5.7325,-14848.0,-5568.0,0.0
5.735,-14784.0,-5568.0,0.0
5.7375,-14848.0,-5568.0,0.0
5.74,-14848.0,-5568.0,64.0
5.7425,-14784.0,-5568.0,0.0
5.745,-14784.0,-5568.0,64.0
5.7475,-14720.0,-5504.0,128.0
5.75,-14784.0,-5504.0,128.0
5.7525,-14656.0,-5504.0,128.0
5.755,-14656.0,-5504.0,128.0
5.7575,-14720.0,-5440.0,64.0
5.76,-14720.0,-5440.0,128.0
5.7625,-14592.0,-5440.0,128.0
5.765,-14528.0,-5440.0,128.0
5.7675,-14528.0,-5440.0,192.0
5.77,-14528.0,-5440.0,192.0
5.7725,-14528.0,-5376.0,192.0
5.775,-14592.0,-5440.0,128.0
5.7775,-14528.0,-5440.0,192.0
5.78,-14464.0,-5376.0,192.0
5.7825,-14528.0,-5376.0,192.0
5.785,-14528.0,-5376.0,128.0
5.7875,-14464.0,-5376.0,192.0
5.79,-14464.0,-5312.0,128.0
5.7925,-14464.0,-5376.0,192.0
5.795,-14464.0,-5376.0,192.0
5.7975,-14400.0,-5312.0,192.0
5.8,-14336.0,-5312.0,256.0
5.8025,-14336.0,-5312.0,256.0
5.805,-14400.0,-5312.0,320.0
5.8075,-14336.0,-5312.0,256.0
5.81,-14400.0,-5312.0,192.0
5.8125,-14336.0,-5312.0,192.0
5.815,-14400.0,-5248.0,192.0
5.8175,-14336.0,-5184.0,192.0
5.82,-14336.0,-5248.0,256.0
5.8225,-14336.0,-5184.0,256.0
5.825,-14272.0,-5184.0,256.0
5.8275,-14272.0,-5120.0,256.0
5.83,-14336.0,-5120.0,320.0
5.8325,-14272.0,-5120.0,320.0
5.835,-14272.0,-5120.0,320.0
5.8375,-14208.0,-5056.0,320.0
5.84,-14208.0,-5056.0,256.0
5.8425,-14272.0,-5056.0,256.0
5.845,-14208.0,-4992.0,320.0
5.8475,-14272.0,-5056.0,320.0
5.85,-14336.0,-5056.0,256.0
5.8525,-14336.0,-5056.0,256.0
5.855,-14336.0,-4992.0,256.0
5.8575,-14400.0,-4992.0,256.0
5.86,-14400.0,-4992.0,256.0
5.8625,-14464.0,-5056.0,256.0
5.865,-14400.0,-5056.0,192.0
5.8675,-14464.0,-4992.0,192.0
5.87,-14592.0,-4992.0,192.0
5.8725,-14592.0,-4992.0,256.0
5.875,-14592.0,-4992.0,192.0
5.8775,-14656.0,-4992.0,128.0
5.88,-14656.0,-4992.0,128.0
5.8825,-14720.0,-4992.0,64.0
5.885,-14720.0,-4928.0,128.0
5.8875,-14720.0,-4992.0,64.0
5.89,-14784.0,-5056.0,64.0
5.8925,-14784.0,-4928.0,64.0
5.895,-14784.0,-4928.0,64.0
5.8975,-14784.0,-4928.0,128.0
5.9,-14720.0,-4992.0,0.0
5.9025,-14720.0,-5056.0,64.0
5.905,-14784.0,-5056.0,0.0
5.9075,-14784.0,-5056.0,0.0
5.91,-14848.0,-5056.0,64.0
5.9125,-14848.0,-5056.0,0.0
5.915,-14912.0,-5056.0,64.0
5.9175,-14848.0,-4992.0,0.0
5.92,-14976.0,-4928.0,0.0
5.9225,-15040.0,-4992.0,64.0
5.925,-15040.0,-4928.0,64.0
5.9275,-15040.0,-4992.0,-64.0
5.93,-15040.0,-4992.0,-64.0
5.9325,-15104.0,-4992.0,-64.0
5.935,-15104.0,-4992.0,0.0
5.9375,-15104.0,-4992.0,-64.0
5.94,-15168.0,-4928.0,-64.0
5.9425,-15168.0,-4928.0,-64.0
5.945,-15168.0,-4992.0,0.0
5.9475,-15232.0,-4992.0,0.0
5.95,-15296.0,-4992.0,64.0
5.9525,-15360.0,-4992.0,-64.0
5.955,-15360.0,-4928.0,-128.0
5.9575,-15360.0,-4928.0,-64.0
5.96,-15424.0,-4928.0,-128.0
5.9625,-15360.0,-4992.0,-128.0
5.965,-15424.0,-4992.0,-128.0
5.9675,-15424.0,-4992.0,-192.0
5.97,-15488.0,-4992.0,-192.0
5.9725,-15552.0,-4992.0,-128.0
5.975,-15552.0,-4992.0,-192.0
5.9775,-15552.0,-4992.0,-192.0
5.98,-15552.0,-4992.0,-128.0
5.9825,-15552.0,-4928.0,-192.0
5.985,-15616.0,-4864.0,-192.0
5.9875,-15616.0,-4928.0,-192.0
5.99,-15552.0,-4928.0,-192.0
5.9925,-15616.0,-4928.0,-128.0
5.995,-15616.0,-4928.0,-128.0
5.9975,-15552.0,-4928.0,-128.0
6.0,-15616.0,-4928.0,-128.0
6.0025,-15616.0,-4928.0,-128.0
6.005,-15616.0,-4928.0,-128.0
6.0075,-15616.0,-4928.0,-128.0
6.01,-15552.0,-4928.0,-128.0
6.0125,-15616.0,-4864.0,-192.0
6.015,-15680.0,-4864.0,-128.0
6.0175,-15680.0,-4928.0,-64.0
6.02,-15616.0,-4928.0,-128.0
6.0225,-15552.0,-4864.0,-128.0
6.025,-15552.0,-4928.0,-64.0
6.0275,-15552.0,-4864.0,-64.0
6.03,-15552.0,-4864.0,-64.0
6.0325,-15552.0,-4800.0,-64.0
6.035,-15552.0,-4800.0,0.0
6.0375,-15552.0,-4800.0,-64.0
6.04,-15616.0,-4800.0,-64.0
6.0425,-15616.0,-4800.0,-64.0
6.045,-15552.0,-4736.0,-64.0
6.0475,-15552.0,-4736.0,0.0
6.05,-15488.0,-4672.0,0.0
6.0525,-15488.0,-4672.0,0.0
6.055,-15488.0,-4672.0,64.0
6.0575,-15488.0,-4736.0,0.0
6.06,-15424.0,-4736.0,0.0
6.0625,-15424.0,-4672.0,0.0
6.065,-15424.0,-4736.0,64.0
6.0675,-15424.0,-4672.0,64.0
6.07,-15424.0,-4608.0,0.0
6.0725,-15488.0,-4608.0,128.0
6.075,-15488.0,-4608.0,128.0
6.0775,-15488.0,-4672.0,128.0
6.08,-15488.0,-4608.0,128.0
6.0825,-15488.0,-4544.0,64.0
6.085,-15488.0,-4544.0,0.0
6.0875,-15488.0,-4544.0,64.0
6.09,-15488.0,-4544.0,64.0
6.0925,-15488.0,-4544.0,64.0
6.095,-15488.0,-4480.0,128.0
6.0975,-15488.0,-4544.0,64.0
6.1,-15552.0,-4416.0,64.0
6.1025,-15616.0,-4480.0,192.0
6.105,-15616.0,-4480.0,192.0
6.1075,-15616.0,-4480.0,256.0
6.11,-15616.0,-4480.0,256.0
6.1125,-15616.0,-4416.0,320.0
6.115,-15616.0,-4480.0,256.0
6.1175,-15616.0,-4480.0,256.0
6.12,-15616.0,-4480.0,256.0
6.1225,-15680.0,-4416.0,256.0
6.125,-15680.0,-4416.0,192.0
6.1275,-15680.0,-4416.0,128.0
6.13,-15744.0,-4416.0,192.0
6.1325,-15744.0,-4416.0,192.0
6.135,-15808.0,-4416.0,192.0
6.1375,-15808.0,-4416.0,192.0
6.14,-15808.0,-4416.0,192.0
6.1425,-15808.0,-4480.0,192.0
6.145,-15808.0,-4416.0,128.0
6.1475,-15872.0,-4416.0,128.0
6.15,-15872.0,-4416.0,128.0
6.1525,-15872.0,-4416.0,192.0
6.155,-15936.0,-4416.0,192.0
6.1575,-15936.0,-4480.0,192.0
6.16,-15936.0,-4480.0,192.0
6.1625,-16000.0,-4480.0,192.0
6.165,-15936.0,-4416.0,192.0
6.1675,-15936.0,-4480.0,192.0
6.17,-15936.0,-4544.0,192.0
6.1725,-15936.0,-4544.0,256.0
6.175,-15936.0,-4480.0,256.0
6.1775,-15936.0,-4544.0,320.0
6.18,-15936.0,-4544.0,256.0
6.1825,-15936.0,-4608.0,320.0
6.185,-15936.0,-4544.0,320.0
6.1875,-16000.0,-4544.0,256.0
6.19,-15936.0,-4608.0,256.0
6.1925,-15936.0,-4608.0,192.0
6.195,-15936.0,-4672.0,192.0
6.1975,-15936.0,-4672.0,192.0
6.2,-16000.0,-4608.0,192.0
6.2025,-16000.0,-4608.0,256.0
6.205,-16000.0,-4608.0,192.0
6.2075,-16000.0,-4672.0,192.0
6.21,-15936.0,-4608.0,256.0
6.2125,-15936.0,-4608.0,256.0
6.215,-15872.0,-4544.0,320.0
6.2175,-15872.0,-4544.0,320.0
6.22,-15872.0,-4608.0,256.0
6.2225,-15872.0,-4608.0,256.0
6.225,-15936.0,-4608.0,256.0
6.2275,-15872.0,-4608.0,256.0
6.23,-15872.0,-4608.0,320.0
6.2325,-15872.0,-4672.0,384.0
6.235,-15872.0,-4608.0,320.0
6.2375,-15872.0,-4608.0,256.0
6.24,-15936.0,-4608.0,192.0
6.2425,-15936.0,-4608.0,128.0
6.245,-16000.0,-4608.0,128.0
6.2475,-16000.0,-4608.0,192.0
6.25,-16000.0,-4608.0,256.0
6.2525,-15936.0,-4672.0,128.0
6.255,-15936.0,-4608.0,192.0
6.2575,-15936.0,-4672.0,256.0
6.26,-15872.0,-4608.0,256.0
6.2625,-15936.0,-4608.0,256.0
6.265,-15936.0,-4608.0,192.0
6.2675,-16000.0,-4672.0,192.0
6.27,-16000.0,-4672.0,192.0
6.2725,-15936.0,-4672.0,192.0
6.275,-15936.0,-4736.0,192.0
6.2775,-15936.0,-4608.0,192.0
6.28,-15936.0,-4608.0,128.0
6.2825,-15872.0,-4544.0,128.0
6.285,-15936.0,-4608.0,128.0
6.2875,-15872.0,-4608.0,128.0
6.29,-15872.0,-4608.0,128.0
6.2925,-15808.0,-4608.0,128.0
6.295,-15808.0,-4608.0,192.0
6.2975,-15872.0,-4608.0,128.0
6.3,-15808.0,-4608.0,64.0
6.3025,-15872.0,-4608.0,64.0
6.305,-15872.0,-4608.0,128.0
6.3075,-15808.0,-4608.0,128.0
6.31,-15872.0,-4608.0,128.0
6.3125,-15808.0,-4608.0,128.0
6.315,-15808.0,-4672.0,64.0
6.3175,-15872.0,-4672.0,64.0
6.32,-15744.0,-4736.0,64.0
6.3225,-15680.0,-4736.0,64.0
6.325,-15680.0,-4800.0,64.0
6.3275,-15680.0,-4736.0,64.0
6.33,-15680.0,-4800.0,128.0
6.3325,-15616.0,-4800.0,128.0
6.335,-15616.0,-4800.0,64.0
6.3375,-15616.0,-4800.0,64.0
6.34,-15616.0,-4736.0,64.0
6.3425,-15552.0,-4736.0,-64.0
6.345,-15552.0,-4736.0,0.0
6.3475,-15552.0,-4800.0,-64.0
6.35,-15552.0,-4800.0,-64.0
6.3525,-15552.0,-4736.0,-128.0
6.355,-15552.0,-4800.0,-64.0
6.3575,-15552.0,-4800.0,-64.0
6.36,-15616.0,-4864.0,-64.0
6.3625,-15616.0,-4864.0,-64.0
6.365,-15616.0,-4864.0,-64.0
6.3675,-15616.0,-4864.0,-128.0
6.37,-15552.0,-4928.0,-192.0
6.3725,-15616.0,-4928.0,-128.0
6.375,-15616.0,-4864.0,-192.0
6.3775,-15680.0,-4928.0,-192.0
6.38,-15680.0,-4864.0,-128.0
6.3825,-15680.0,-4928.0,-128.0
6.385,-15680.0,-4928.0,-192.0
6.3875,-15744.0,-4864.0,-128.0
6.39,-15744.0,-4928.0,-128.0
6.3925,-15680.0,-4992.0,-128.0
6.395,-15680.0,-5056.0,-128.0
6.3975,-15744.0,-5056.0,-128.0
6.4,-15808.0,-5120.0,-64.0
6.4025,-15872.0,-4992.0,-128.0
6.405,-15872.0,-5056.0,-128.0
6.4075,-15808.0,-4992.0,-64.0
6.41,-15872.0,-4992.0,-64.0
6.4125,-15808.0,-4992.0,-128.0
6.415,-15872.0,-5056.0,-64.0
6.4175,-15872.0,-4992.0,-64.0
6.42,-15872.0,-5056.0,-128.0
6.4225,-15872.0,-5120.0,-128.0
6.425,-15872.0,-5056.0,-128.0
6.4275,-15936.0,-5120.0,-128.0
6.43,-15872.0,-5120.0,-128.0
6.4325,-15936.0,-5120.0,-256.0
6.435,-15936.0,-5056.0,-256.0
6.4375,-15936.0,-5120.0,-192.0
6.44,-16000.0,-5056.0,-256.0
6.4425,-16000.0,-5120.0,-192.0
6.445,-16000.0,-5056.0,-192.0
6.4475,-16064.0,-5056.0,-128.0
6.45,-16000.0,-5120.0,-128.0
6.4525,-16000.0,-5120.0,-128.0
6.455,-15936.0,-5120.0,-128.0
6.4575,-15936.0,-5120.0,-128.0
6.46,-15936.0,-5184.0,-128.0
6.4625,-15936.0,-5184.0,-128.0
6.465,-16000.0,-5120.0,-64.0
6.4675,-16000.0,-5184.0,0.0
6.47,-15872.0,-5184.0,-64.0
6.4725,-15872.0,-5184.0,-64.0
6.475,-15936.0,-5184.0,-128.0
6.4775,-15872.0,-5184.0,0.0
6.48,-15872.0,-5248.0,-64.0
6.4825,-15808.0,-5248.0,-64.0
6.485,-15808.0,-5248.0,0.0
6.4875,-15744.0,-5248.0,0.0
6.49,-15680.0,-5312.0,0.0
6.4925,-15616.0,-5248.0,0.0
6.495,-15680.0,-5312.0,0.0
6.4975,-15616.0,-5312.0,64.0
6.5,-15680.0,-5312.0,64.0
6.5025,-15680.0,-5376.0,0.0
6.505,-15616.0,-5376.0,64.0
6.5075,-15616.0,-5312.0,64.0
6.51,-15616.0,-5376.0,64.0
6.5125,-15552.0,-5376.0,128.0
6.515,-15488.0,-5312.0,128.0
6.5175,-15488.0,-5376.0,64.0
6.52,-15488.0,-5312.0,128.0
6.5225,-15488.0,-5312.0,128.0
6.525,-15552.0,-5312.0,128.0
6.5275,-15552.0,-5312.0,128.0
6.53,-15488.0,-5312.0,64.0
6.5325,-15488.0,-5312.0,128.0
6.535,-15424.0,-5312.0,128.0
6.5375,-15360.0,-5312.0,128.0
6.54,-15360.0,-5312.0,128.0
6.5425,-15360.0,-5312.0,128.0
6.545,-15360.0,-5312.0,128.0
6.5475,-15360.0,-5248.0,192.0
6.55,-15296.0,-5248.0,192.0
6.5525,-15360.0,-5248.0,192.0
6.555,-15360.0,-5312.0,256.0
6.5575,-15296.0,-5312.0,192.0
6.56,-15296.0,-5248.0,192.0
6.5625,-15232.0,-5312.0,128.0
6.565,-15232.0,-5312.0,256.0
6.5675,-15360.0,-5248.0,192.0
6.57,-15360.0,-5312.0,192.0
6.5725,-15360.0,-5312.0,128.0
6.575,-15360.0,-5248.0,192.0
6.5775,-15360.0,-5376.0,128.0
6.58,-15360.0,-5248.0,192.0
6.5825,-15360.0,-5312.0,192.0
6.585,-15424.0,-5248.0,192.0
6.5875,-15488.0,-5248.0,192.0
6.59,-15424.0,-5248.0,128.0
6.5925,-15488.0,-5312.0,128.0
6.595,-15488.0,-5312.0,64.0
6.5975,-15488.0,-5312.0,128.0
6.6,-15552.0,-5312.0,64.0
6.6025,-15552.0,-5376.0,64.0
6.605,-15552.0,-5376.0,0.0
6.6075,-15488.0,-5312.0,0.0
6.61,-15488.0,-5312.0,64.0
6.6125,-15552.0,-5312.0,64.0
6.615,-15552.0,-5376.0,64.0
6.6175,-15680.0,-5376.0,0.0
6.62,-15680.0,-5376.0,64.0
6.6225,-15616.0,-5376.0,64.0
6.625,-15680.0,-5376.0,128.0
6.6275,-15680.0,-5376.0,64.0
6.63,-15616.0,-5440.0,64.0
6.6325,-15680.0,-5376.0,64.0
6.635,-15680.0,-5312.0,128.0
6.6375,-15744.0,-5312.0,64.0
6.64,-15680.0,-5376.0,0.0
6.6425,-15744.0,-5376.0,64.0
6.645,-15680.0,-5376.0,128.0
6.6475,-15616.0,-5312.0,64.0
6.65,-15616.0,-5312.0,64.0
6.6525,-15616.0,-5312.0,0.0
6.655,-15616.0,-5248.0,64.0
6.6575,-15680.0,-5312.0,128.0
6.66,-15680.0,-5248.0,128.0
6.6625,-15680.0,-5184.0,128.0
6.665,-15616.0,-5184.0,128.0
6.6675,-15616.0,-5184.0,192.0
6.67,-15552.0,-5120.0,128.0
6.6725,-15552.0,-5120.0,192.0
6.675,-15552.0,-5056.0,192.0
6.6775,-15552.0,-5120.0,192.0
6.68,-15552.0,-5120.0,192.0
6.6825,-15488.0,-5056.0,192.0
6.685,-15488.0,-4992.0,192.0
6.6875,-15488.0,-4992.0,192.0
6.69,-15424.0,-4992.0,192.0
6.6925,-15424.0,-4928.0,256.0
6.695,-15360.0,-4992.0,256.0
6.6975,-15296.0,-4928.0,320.0
6.7,-15232.0,-4928.0,320.0
6.7025,-15296.0,-4992.0,320.0
6.705,-15168.0,-4928.0,320.0
6.7075,-15168.0,-4928.0,384.0
6.71,-15168.0,-4928.0,320.0
6.7125,-15168.0,-4864.0,320.0
6.715,-15104.0,-4864.0,320.0
6.7175,-15040.0,-4864.0,320.0
6.72,-15040.0,-4864.0,320.0
6.7225,-15040.0,-4864.0,320.0
6.725,-14976.0,-4864.0,320.0
6.7275,-14976.0,-4864.0,320.0
6.73,-14976.0,-4864.0,448.0
6.7325,-14912.0,-4864.0,384.0
6.735,-14912.0,-4800.0,384.0
6.7375,-14848.0,-4800.0,320.0
6.74,-14848.0,-4800.0,320.0
6.7425,-14784.0,-4800.0,384.0
6.745,-14848.0,-4800.0,448.0
6.7475,-14784.0,-4800.0,448.0
6.75,-14720.0,-4800.0,512.0
6.7525,-14656.0,-4800.0,512.0
6.755,-14656.0,-4800.0,512.0
6.7575,-14656.0,-4800.0,512.0
6.76,-14592.0,-4800.0,576.0
6.7625,-14592.0,-4800.0,512.0
6.765,-14528.0,-4864.0,576.0
6.7675,-14592.0,-4864.0,576.0
6.77,-14528.0,-4800.0,512.0
6.7725,-14464.0,-4736.0,576.0
6.775,-14464.0,-4736.0,576.0
6.7775,-14400.0,-4736.0,576.0
6.78,-14400.0,-4736.0,448.0
6.7825,-14464.0,-4736.0,512.0
6.785,-14464.0,-4864.0,512.0
6.7875,-14528.0,-4800.0,512.0
6.79,-14592.0,-4864.0,576.0
6.7925,-14592.0,-4864.0,512.0
6.795,-14592.0,-4800.0,576.0
6.7975,-14656.0,-4800.0,512.0
6.8,-14720.0,-4736.0,576.0
6.8025,-14720.0,-4800.0,576.0
6.805,-14784.0,-4800.0,576.0
6.8075,-14848.0,-4736.0,512.0
6.81,-14848.0,-4800.0,576.0
6.8125,-14912.0,-4800.0,512.0
6.815,-14848.0,-4736.0,576.0
6.8175,-14976.0,-4800.0,576.0
6.82,-14912.0,-4736.0,640.0
6.8225,-14976.0,-4736.0,704.0
6.825,-14976.0,-4800.0,640.0
6.8275,-14912.0,-4800.0,640.0
6.83,-14848.0,-4800.0,576.0
6.8325,-14912.0,-4800.0,640.0
6.835,-14912.0,-4800.0,640.0
6.8375,-14976.0,-4800.0,704.0
6.84,-14912.0,-4800.0,704.0
6.8425,-14848.0,-4800.0,704.0
6.845,-14848.0,-4800.0,704.0
6.8475,-14848.0,-4800.0,704.0
6.85,-14912.0,-4736.0,640.0
6.8525,-14848.0,-4736.0,576.0
6.855,-14848.0,-4736.0,640.0
6.8575,-14848.0,-4736.0,704.0
6.86,-14848.0,-4736.0,640.0
6.8625,-14848.0,-4736.0,640.0
6.865,-14784.0,-4736.0,704.0
6.8675,-14784.0,-4608.0,704.0
6.87,-14720.0,-4672.0,704.0
6.8725,-14656.0,-4672.0,640.0
6.875,-14592.0,-4608.0,704.0
6.8775,-14592.0,-4544.0,704.0
6.88,-14400.0,-4544.0,640.0
6.8825,-14400.0,-4480.0,704.0
6.885,-14400.0,-4480.0,704.0
6.8875,-14336.0,-4544.0,704.0
6.89,-14400.0,-4480.0,704.0
6.8925,-14464.0,-4544.0,704.0
6.895,-14464.0,-4480.0,704.0
6.8975,-14528.0,-4416.0,704.0
6.9,-14528.0,-4416.0,704.0
6.9025,-14592.0,-4416.0,640.0
6.905,-14592.0,-4480.0,640.0
6.9075,-14656.0,-4480.0,640.0
6.91,-14656.0,-4480.0,704.0
6.9125,-14656.0,-4480.0,768.0
6.915,-14720.0,-4480.0,640.0
6.9175,-14784.0,-4480.0,704.0
6.92,-14848.0,-4480.0,704.0
6.9225,-14912.0,-4544.0,768.0
6.925,-14976.0,-4544.0,704.0
6.9275,-15040.0,-4544.0,704.0
6.93,-15104.0,-4608.0,704.0
6.9325,-15168.0,-4608.0,704.0
6.935,-15232.0,-4672.0,768.0
6.9375,-15296.0,-4736.0,704.0
6.94,-15360.0,-4736.0,704.0
6.9425,-15424.0,-4800.0,640.0
6.945,-15488.0,-4800.0,640.0
6.9475,-15488.0,-4800.0,576.0
6.95,-15552.0,-4864.0,512.0
6.9525,-15680.0,-4864.0,512.0
6.955,-15680.0,-4864.0,448.0
6.9575,-15744.0,-4864.0,512.0
6.96,-15808.0,-4928.0,448.0
6.9625,-15808.0,-4928.0,448.0
6.965,-15808.0,-4928.0,384.0
6.9675,-15808.0,-4864.0,448.0
6.97,-15808.0,-4864.0,384.0
6.9725,-15808.0,-4864.0,320.0
6.975,-15808.0,-4864.0,384.0
6.9775,-15872.0,-4864.0,320.0
6.98,-15872.0,-4864.0,256.0
6.9825,-15936.0,-4864.0,320.0
6.985,-15872.0,-4928.0,320.0
6.9875,-15872.0,-4992.0,320.0
6.99,-15936.0,-4992.0,320.0
6.9925,-16000.0,-4992.0,256.0
6.995,-16000.0,-4992.0,256.0
6.9975,-15936.0,-4992.0,256.0
7.0,-15872.0,-4992.0,256.0
7.0025,-15872.0,-5056.0,256.0
7.005,-15936.0,-4992.0,256.0
7.0075,-15872.0,-4992.0,320.0
7.01,-15872.0,-4992.0,256.0
7.0125,-15808.0,-4992.0,320.0
7.015,-15744.0,-4928.0,256.0
7.0175,-15744.0,-4928.0,256.0
7.02,-15744.0,-4864.0,256.0
7.0225,-15680.0,-4928.0,192.0
7.025,-15680.0,-4928.0,192.0
7.0275,-15616.0,-4928.0,192.0
7.03,-15616.0,-4928.0,256.0
7.0325,-15616.0,-4864.0,256.0
7.035,-15552.0,-4864.0,320.0
7.0375,-15552.0,-4864.0,256.0
7.04,-15488.0,-4864.0,320.0
7.0425,-15488.0,-4800.0,256.0
7.045,-15360.0,-4736.0,256.0
7.0475,-15424.0,-4736.0,256.0
7.05,-15424.0,-4672.0,192.0
7.0525,-15424.0,-4736.0,256.0
7.055,-15488.0,-4736.0,192.0
7.0575,-15424.0,-4800.0,192.0
7.06,-15488.0,-4800.0,128.0
7.0625,-15552.0,-4864.0,128.0
7.065,-15552.0,-4800.0,192.0
7.0675,-15552.0,-4864.0,256.0
7.07,-15552.0,-4864.0,128.0
7.0725,-15552.0,-4864.0,256.0
7.075,-15552.0,-4928.0,256.0
7.0775,-15552.0,-4864.0,256.0
7.08,-15488.0,-4928.0,192.0
7.0825,-15488.0,-4928.0,256.0
7.085,-15552.0,-4928.0,256.0
7.0875,-15488.0,-4800.0,256.0
7.09,-15424.0,-4864.0,320.0
7.0925,-15360.0,-4928.0,320.0
7.095,-15232.0,-4864.0,320.0
7.0975,-15168.0,-4864.0,320.0
7.1,-15168.0,-4864.0,320.0
7.1025,-15104.0,-4864.0,320.0
7.105,-15040.0,-4800.0,320.0
7.1075,-15040.0,-4864.0,256.0
7.11,-15040.0,-4864.0,320.0
7.1125,-14976.0,-4864.0,320.0
7.115,-14912.0,-4864.0,320.0
7.1175,-14912.0,-4800.0,320.0
7.12,-14848.0,-4864.0,192.0
7.1225,-14848.0,-4928.0,192.0
7.125,-14784.0,-4928.0,256.0
7.1275,-14720.0,-4864.0,256.0
7.13,-14720.0,-4928.0,256.0
7.1325,-14720.0,-4864.0,256.0
7.135,-14720.0,-4864.0,320.0
7.1375,-14656.0,-4928.0,320.0
7.14,-14656.0,-4928.0,320.0
7.1425,-14720.0,-4928.0,384.0
7.145,-14784.0,-4992.0,384.0
7.1475,-14848.0,-5056.0,320.0
7.15,-14912.0,-5056.0,320.0
7.1525,-14912.0,-5056.0,320.0
7.155,-14976.0,-4992.0,320.0
7.1575,-14976.0,-5056.0,320.0
7.16,-14976.0,-5056.0,256.0
7.1625,-15104.0,-5056.0,256.0
7.165,-15104.0,-5120.0,256.0
7.1675,-15104.0,-5120.0,256.0
7.17,-15104.0,-5120.0,192.0
7.1725,-15104.0,-5120.0,192.0
7.175,-15040.0,-5184.0,192.0
7.1775,-15104.0,-5248.0,192.0
7.18,-15104.0,-5184.0,256.0
7.1825,-15040.0,-5184.0,256.0
7.185,-15040.0,-5248.0,256.0
7.1875,-15040.0,-5248.0,256.0
7.19,-15040.0,-5248.0,256.0
7.1925,-14976.0,-5248.0,256.0
7.195,-15040.0,-5248.0,256.0
7.1975,-15040.0,-5248.0,256.0
7.2,-15104.0,-5248.0,256.0
7.2025,-15104.0,-5248.0,256.0
7.205,-15104.0,-5312.0,192.0
7.2075,-15104.0,-5376.0,256.0
7.21,-15104.0,-5312.0,320.0
7.2125,-15104.0,-5376.0,320.0
7.215,-15232.0,-5376.0,256.0
7.2175,-15232.0,-5376.0,256.0
7.22,-15232.0,-5312.0,192.0
7.2225,-15232.0,-5312.0,256.0
7.225,-15232.0,-5440.0,192.0
7.2275,-15168.0,-5376.0,192.0
7.23,-15232.0,-5440.0,256.0
7.2325,-15296.0,-5376.0,192.0
7.235,-15296.0,-5376.0,128.0
7.2375,-15360.0,-5440.0,192.0
7.24,-15360.0,-5440.0,192.0
7.2425,-15424.0,-5504.0,192.0
7.245,-15424.0,-5504.0,256.0
7.2475,-15424.0,-5568.0,256.0
7.25,-15488.0,-5568.0,192.0
7.2525,-15424.0,-5504.0,256.0
7.255,-15424.0,-5504.0,256.0
7.2575,-15424.0,-5632.0,256.0
7.26,-15488.0,-5568.0,320.0
7.2625,-15488.0,-5568.0,320.0
7.265,-15488.0,-5632.0,384.0
7.2675,-15552.0,-5632.0,256.0
7.27,-15552.0,-5632.0,256.0
7.2725,-15552.0,-5632.0,320.0
7.275,-15616.0,-5632.0,320.0
7.2775,-15680.0,-5696.0,320.0
7.28,-15808.0,-5760.0,256.0
7.2825,-15936.0,-5760.0,256.0
7.285,-15936.0,-5760.0,256.0
7.2875,-16000.0,-5760.0,192.0
7.29,-16000.0,-5824.0,192.0
7.2925,-16128.0,-5888.0,192.0
7.295,-16128.0,-5952.0,192.0
7.2975,-16128.0,-5952.0,192.0
7.3,-16192.0,-5888.0,128.0
7.3025,-16192.0,-5952.0,192.0
7.305,-16192.0,-6016.0,256.0
7.3075,-16192.0,-6016.0,256.0
7.31,-16192.0,-5952.0,320.0
7.3125,-16192.0,-5952.0,320.0
7.315,-16192.0,-5952.0,320.0
7.3175,-16192.0,-6016.0,320.0
7.32,-16192.0,-5952.0,320.0
7.3225,-16192.0,-6016.0,320.0
7.325,-16256.0,-5952.0,320.0
7.3275,-16256.0,-5952.0,320.0
7.33,-16256.0,-5952.0,320.0
7.3325,-16320.0,-6016.0,320.0
7.335,-16320.0,-5952.0,320.0
7.3375,-16320.0,-6080.0,320.0
7.34,-16384.0,-6080.0,384.0
7.3425,-16384.0,-6080.0,320.0
7.345,-16384.0,-6016.0,384.0
7.3475,-16448.0,-6080.0,320.0
7.35,-16384.0,-6016.0,320.0
7.3525,-16448.0,-6016.0,320.0
7.355,-16448.0,-6080.0,320.0
7.3575,-16448.0,-6016.0,384.0
7.36,-16448.0,-5952.0,384.0
7.3625,-16384.0,-5952.0,384.0
7.365,-16448.0,-5952.0,384.0
7.3675,-16448.0,-5952.0,320.0
7.37,-16512.0,-5952.0,384.0
7.3725,-16448.0,-5952.0,320.0
7.375,-16512.0,-5952.0,384.0
7.3775,-16512.0,-5952.0,448.0
7.38,-16448.0,-5952.0,448.0
7.3825,-16448.0,-5888.0,448.0
7.385,-16512.0,-5952.0,512.0
7.3875,-16448.0,-5888.0,512.0
7.39,-16384.0,-5952.0,448.0
7.3925,-16384.0,-5952.0,448.0
7.395,-16384.0,-5952.0,448.0
7.3975,-16384.0,-5952.0,448.0
7.4,-16384.0,-5952.0,448.0
7.4025,-16384.0,-5952.0,448.0
7.405,-16320.0,-6016.0,448.0
7.4075,-16256.0,-5952.0,512.0
7.41,-16192.0,-5952.0,512.0
7.4125,-16256.0,-5952.0,576.0
7.415,-16256.0,-5888.0,576.0
7.4175,-16192.0,-5888.0,640.0
7.42,-16128.0,-5888.0,640.0
7.4225,-16128.0,-5888.0,640.0
7.425,-16128.0,-5888.0,704.0
7.4275,-16064.0,-5952.0,704.0
7.43,-16064.0,-5952.0,704.0
7.4325,-16064.0,-5952.0,768.0
7.435,-16064.0,-5952.0,768.0
7.4375,-16064.0,-6016.0,768.0
7.44,-16064.0,-6016.0,768.0
7.4425,-16000.0,-6016.0,768.0
7.445,-16064.0,-6016.0,768.0
7.4475,-16000.0,-6016.0,768.0
7.45,-15936.0,-6016.0,832.0
7.4525,-15936.0,-6016.0,832.0
7.455,-15936.0,-6016.0,768.0
7.4575,-16000.0,-6016.0,768.0
7.46,-16000.0,-6016.0,768.0
7.4625,-16000.0,-6016.0,768.0
7.465,-16000.0,-6080.0,704.0
7.4675,-16000.0,-6016.0,768.0
7.47,-15936.0,-6016.0,832.0
7.4725,-15936.0,-6016.0,832.0
7.475,-15936.0,-6016.0,832.0
7.4775,-15936.0,-5952.0,832.0
7.48,-15936.0,-5952.0,768.0
7.4825,-15936.0,-6016.0,832.0
7.485,-15936.0,-5952.0,768.0
7.4875,-16000.0,-5952.0,768.0
7.49,-16000.0,-5888.0,704.0
7.4925,-15936.0,-5952.0,768.0
7.495,-15872.0,-5952.0,768.0
7.4975,-15936.0,-6016.0,768.0
7.5,-16000.0,-5952.0,768.0
7.5025,-16000.0,-5952.0,768.0
7.505,-16064.0,-5952.0,704.0
7.5075,-16128.0,-5952.0,768.0
7.51,-16128.0,-5952.0,768.0
7.5125,-16192.0,-6016.0,832.0
7.515,-16128.0,-5952.0,768.0
7.5175,-16192.0,-5952.0,832.0
7.52,-16256.0,-5888.0,704.0
7.5225,-16320.0,-5888.0,768.0
7.525,-16320.0,-5952.0,768.0
7.5275,-16384.0,-5888.0,896.0
7.53,-16384.0,-5952.0,896.0
7.5325,-16384.0,-5952.0,832.0
7.535,-16448.0,-5952.0,896.0
7.5375,-16448.0,-5952.0,896.0
7.54,-16512.0,-5888.0,832.0
7.5425,-16576.0,-5888.0,704.0
7.545,-16576.0,-5952.0,768.0
7.5475,-16576.0,-5952.0,768.0
7.55,-16576.0,-5952.0,832.0
7.5525,-16576.0,-5888.0,768.0
7.555,-16704.0,-5888.0,768.0
7.5575,-16640.0,-5888.0,768.0
7.56,-16704.0,-5952.0,704.0
7.5625,-16704.0,-5952.0,704.0
7.565,-16704.0,-5952.0,640.0
7.5675,-16704.0,-5952.0,576.0
7.57,-16704.0,-5952.0,576.0
7.5725,-16768.0,-5952.0,576.0
7.575,-16704.0,-5952.0,640.0
7.5775,-16704.0,-6016.0,640.0
7.58,-16768.0,-5952.0,640.0
7.5825,-16704.0,-6016.0,576.0
7.585,-16704.0,-5952.0,640.0
7.5875,-16704.0,-6016.0,640.0
7.59,-16704.0,-6016.0,576.0
7.5925,-16704.0,-6016.0,576.0
7.595,-16704.0,-6016.0,640.0
7.5975,-16640.0,-6016.0,576.0
7.6,-16640.0,-5952.0,512.0
7.6025,-16576.0,-5952.0,576.0
7.605,-16640.0,-5888.0,512.0
7.6075,-16576.0,-5888.0,512.0
7.61,-16576.0,-5824.0,512.0
7.6125,-16576.0,-5888.0,512.0
7.615,-16512.0,-5888.0,512.0
7.6175,-16512.0,-5888.0,512.0
7.62,-16512.0,-5888.0,448.0
7.6225,-16448.0,-5888.0,448.0
7.625,-16448.0,-5888.0,384.0
7.6275,-16448.0,-5824.0,448.0
7.63,-16448.0,-5824.0,384.0
7.6325,-16448.0,-5888.0,320.0
7.635,-16448.0,-5824.0,384.0
7.6375,-16448.0,-5824.0,384.0
7.64,-16448.0,-5824.0,448.0
7.6425,-16448.0,-5824.0,512.0
7.645,-16448.0,-5824.0,448.0
7.6475,-16512.0,-5760.0,384.0
7.65,-16448.0,-5696.0,448.0
7.6525,-16448.0,-5696.0,512.0
7.655,-16512.0,-5696.0,448.0
7.6575,-16448.0,-5696.0,448.0
7.66,-16512.0,-5760.0,384.0
7.6625,-16512.0,-5760.0,384.0
7.665,-16512.0,-5696.0,384.0
7.6675,-16512.0,-5632.0,384.0
7.67,-16512.0,-5696.0,320.0
7.6725,-16576.0,-5696.0,384.0
7.675,-16576.0,-5696.0,320.0
7.6775,-16576.0,-5696.0,320.0
7.68,-16576.0,-5760.0,384.0
7.6825,-16576.0,-5760.0,320.0
7.685,-16640.0,-5696.0,320.0
7.6875,-16640.0,-5696.0,384.0
7.69,-16704.0,-5696.0,256.0
7.6925,-16640.0,-5696.0,320.0
7.695,-16704.0,-5696.0,320.0
7.6975,-16640.0,-5696.0,256.0
7.7,-16640.0,-5696.0,320.0
7.7025,-16704.0,-5760.0,256.0
7.705,-16704.0,-5696.0,192.0
7.7075,-16704.0,-5696.0,256.0
7.71,-16704.0,-5696.0,192.0
7.7125,-16704.0,-5632.0,320.0
7.715,-16704.0,-5632.0,192.0
7.7175,-16704.0,-5632.0,256.0
7.72,-16704.0,-5632.0,256.0
7.7225,-16768.0,-5632.0,192.0
7.725,-16768.0,-5632.0,192.0
7.7275,-16768.0,-5632.0,128.0
7.73,-16768.0,-5632.0,128.0
7.7325,-16768.0,-5632.0,64.0
7.735,-16768.0,-5632.0,64.0
7.7375,-16768.0,-5696.0,128.0
7.74,-16704.0,-5760.0,64.0
7.7425,-16704.0,-5760.0,128.0
7.745,-16704.0,-5696.0,128.0
7.7475,-16768.0,-5632.0,128.0
7.75,-16768.0,-5632.0,0.0
7.7525,-16768.0,-5632.0,64.0
7.755,-16704.0,-5696.0,64.0
7.7575,-16768.0,-5696.0,64.0
7.76,-16768.0,-5696.0,128.0
7.7625,-16704.0,-5696.0,128.0
7.765,-16704.0,-5696.0,128.0
7.7675,-16640.0,-5632.0,64.0
7.77,-16640.0,-5632.0,128.0
7.7725,-16640.0,-5632.0,64.0
7.775,-16704.0,-5632.0,64.0
7.7775,-16704.0,-5696.0,0.0
7.78,-16704.0,-5632.0,0.0
7.7825,-16704.0,-5632.0,0.0
7.785,-16704.0,-5568.0,0.0
7.7875,-16704.0,-5632.0,0.0
7.79,-16704.0,-5632.0,0.0
7.7925,-16704.0,-5696.0,-64.0
7.795,-16704.0,-5696.0,0.0
7.7975,-16704.0,-5696.0,0.0
7.8,-16704.0,-5696.0,0.0
7.8025,-16704.0,-5696.0,0.0
7.805,-16704.0,-5696.0,0.0
7.8075,-16704.0,-5696.0,0.0
7.81,-16640.0,-5696.0,0.0
7.8125,-16640.0,-5632.0,64.0
7.815,-16640.0,-5632.0,64.0
7.8175,-16640.0,-5696.0,64.0
7.82,-16576.0,-5632.0,128.0
7.8225,-16576.0,-5696.0,128.0
7.825,-16512.0,-5696.0,128.0
7.8275,-16512.0,-5632.0,128.0
7.83,-16448.0,-5632.0,64.0
7.8325,-16384.0,-5632.0,192.0
7.835,-16384.0,-5696.0,128.0
7.8375,-16256.0,-5632.0,64.0
7.84,-16256.0,-5632.0,128.0
7.8425,-16320.0,-5632.0,64.0
7.845,-16320.0,-5568.0,0.0
7.8475,-16256.0,-5632.0,0.0
7.85,-16256.0,-5632.0,0.0
7.8525,-16192.0,-5632.0,0.0
7.855,-16192.0,-5696.0,0.0
7.8575,-16128.0,-5696.0,0.0
7.86,-16192.0,-5696.0,64.0
7.8625,-16064.0,-5632.0,0.0
7.865,-16128.0,-5632.0,64.0
7.8675,-16128.0,-5632.0,64.0
7.87,-16128.0,-5632.0,64.0
7.8725,-16128.0,-5632.0,64.0
7.875,-16064.0,-5632.0,128.0
7.8775,-16064.0,-5568.0,192.0
7.88,-16064.0,-5568.0,192.0
7.8825,-15936.0,-5568.0,192.0
7.885,-15936.0,-5568.0,192.0
7.8875,-15936.0,-5504.0,192.0
7.89,-15936.0,-5568.0,256.0
7.8925,-15872.0,-5568.0,256.0
7.895,-15936.0,-5568.0,192.0
7.8975,-15936.0,-5632.0,192.0
7.9,-15872.0,-5632.0,256.0
7.9025,-15808.0,-5632.0,256.0
7.905,-15808.0,-5632.0,256.0
7.9075,-15808.0,-5632.0,192.0
7.91,-15808.0,-5568.0,256.0
7.9125,-15808.0,-5632.0,256.0
7.915,-15808.0,-5568.0,320.0
7.9175,-15808.0,-5632.0,256.0
7.92,-15744.0,-5568.0,256.0
7.9225,-15744.0,-5568.0,256.0
7.925,-15744.0,-5632.0,256.0
7.9275,-15680.0,-5632.0,256.0
7.93,-15744.0,-5696.0,256.0
7.9325,-15744.0,-5632.0,256.0
7.935,-15680.0,-5632.0,320.0
7.9375,-15680.0,-5632.0,256.0
7.94,-15680.0,-5568.0,320.0
7.9425,-15680.0,-5568.0,320.0
7.945,-15616.0,-5632.0,192.0
7.9475,-15616.0,-5568.0,192.0
7.95,-15616.0,-5504.0,192.0
7.9525,-15616.0,-5568.0,256.0
7.955,-15552.0,-5568.0,256.0
7.9575,-15552.0,-5568.0,320.0
7.96,-15488.0,-5568.0,256.0
7.9625,-15488.0,-5632.0,320.0
7.965,-15424.0,-5632.0,320.0
7.9675,-15424.0,-5632.0,320.0
7.97,-15488.0,-5632.0,320.0
7.9725,-15488.0,-5632.0,320.0
7.975,-15488.0,-5632.0,256.0
7.9775,-15424.0,-5632.0,320.0
7.98,-15360.0,-5632.0,320.0
7.9825,-15296.0,-5632.0,320.0
7.985,-15296.0,-5632.0,320.0
7.9875,-15232.0,-5696.0,320.0
7.99,-15168.0,-5696.0,384.0
7.9925,-15168.0,-5632.0,384.0
7.995,-15168.0,-5696.0,384.0
7.9975,-15168.0,-5632.0,320.0
8.0,-15104.0,-5632.0,384.0
8.0025,-15104.0,-5568.0,384.0
8.005,-15040.0,-5568.0,384.0
8.0075,-15040.0,-5504.0,320.0
8.01,-15040.0,-5568.0,320.0
8.0125,-15040.0,-5568.0,256.0
8.015,-15040.0,-5568.0,256.0
8.0175,-15040.0,-5568.0,320.0
8.02,-15104.0,-5504.0,320.0
8.0225,-15104.0,-5568.0,256.0
8.025,-15168.0,-5632.0,256.0
8.0275,-15168.0,-5568.0,256.0
8.03,-15168.0,-5568.0,256.0
8.0325,-15104.0,-5632.0,256.0
8.035,-15104.0,-5632.0,320.0
8.0375,-15104.0,-5568.0,256.0
8.04,-15104.0,-5568.0,320.0
8.0425,-15040.0,-5568.0,320.0
8.045,-15040.0,-5504.0,320.0
8.0475,-15104.0,-5504.0,320.0
8.05,-15104.0,-5504.0,320.0
8.0525,-15104.0,-5568.0,320.0
8.055,-15104.0,-5504.0,320.0
8.0575,-15104.0,-5440.0,384.0
8.06,-15104.0,-5504.0,320.0
8.0625,-15168.0,-5504.0,320.0
8.065,-15168.0,-5504.0,256.0
8.0675,-15168.0,-5504.0,256.0
8.07,-15232.0,-5504.0,256.0
8.0725,-15232.0,-5568.0,256.0
8.075,-15168.0,-5568.0,256.0
8.0775,-15232.0,-5568.0,192.0
8.08,-15296.0,-5568.0,192.0
8.0825,-15424.0,-5632.0,128.0
8.085,-15360.0,-5568.0,128.0
8.0875,-15424.0,-5568.0,192.0
8.09,-15424.0,-5504.0,192.0
8.0925,-15424.0,-5504.0,128.0
8.095,-15488.0,-5504.0,128.0
8.0975,-15552.0,-5504.0,128.0
8.1,-15616.0,-5440.0,128.0
8.1025,-15680.0,-5504.0,128.0
8.105,-15680.0,-5568.0,128.0
8.1075,-15680.0,-5568.0,128.0
8.11,-15616.0,-5568.0,128.0
8.1125,-15744.0,-5568.0,128.0
8.115,-15744.0,-5568.0,128.0
8.1175,-15744.0,-5568.0,128.0
8.12,-15808.0,-5504.0,64.0
8.1225,-15808.0,-5504.0,64.0
8.125,-15808.0,-5568.0,64.0
8.1275,-15872.0,-5632.0,64.0
8.13,-15872.0,-5568.0,64.0
8.1325,-15936.0,-5568.0,128.0
8.135,-15872.0,-5568.0,64.0
8.1375,-15936.0,-5504.0,0.0
8.14,-15936.0,-5504.0,64.0
8.1425,-15936.0,-5504.0,64.0
8.145,-15936.0,-5504.0,64.0
8.1475,-16000.0,-5504.0,64.0
8.15,-16000.0,-5504.0,64.0
8.1525,-16064.0,-5440.0,64.0
8.155,-16064.0,-5440.0,128.0
8.1575,-16000.0,-5440.0,128.0
8.16,-16000.0,-5440.0,128.0
8.1625,-16000.0,-5376.0,0.0
8.165,-16064.0,-5376.0,0.0
8.1675,-16000.0,-5440.0,0.0
8.17,-16064.0,-5376.0,64.0
8.1725,-16064.0,-5440.0,64.0
8.175,-16064.0,-5440.0,0.0
8.1775,-16064.0,-5376.0,0.0
8.18,-16000.0,-5376.0,0.0
8.1825,-16000.0,-5440.0,64.0
8.185,-16000.0,-5440.0,64.0
8.1875,-15936.0,-5376.0,64.0
8.19,-16000.0,-5376.0,64.0
8.1925,-16000.0,-5376.0,0.0
8.195,-16064.0,-5248.0,64.0
8.1975,-16000.0,-5312.0,0.0
8.2,-16000.0,-5312.0,0.0
8.2025,-16000.0,-5248.0,0.0
8.205,-15936.0,-5248.0,0.0
8.2075,-15936.0,-5248.0,0.0
8.21,-15872.0,-5312.0,0.0
8.2125,-15936.0,-5248.0,0.0
8.215,-15872.0,-5312.0,0.0
8.2175,-15872.0,-5248.0,0.0
8.22,-15872.0,-5248.0,64.0
8.2225,-15872.0,-5248.0,0.0
8.225,-15872.0,-5312.0,0.0
8.2275,-15872.0,-5248.0,64.0
8.23,-15872.0,-5248.0,64.0
8.2325,-15808.0,-5248.0,0.0
8.235,-15744.0,-5248.0,64.0
8.2375,-15744.0,-5248.0,128.0
8.24,-15744.0,-5312.0,128.0
8.2425,-15744.0,-5312.0,128.0
8.245,-15744.0,-5312.0,128.0
8.2475,-15744.0,-5248.0,128.0
8.25,-15680.0,-5312.0,128.0
8.2525,-15616.0,-5312.0,128.0
8.255,-15616.0,-5312.0,128.0
8.2575,-15680.0,-5248.0,128.0
8.26,-15616.0,-5248.0,128.0
8.2625,-15616.0,-5248.0,128.0
8.265,-15616.0,-5248.0,64.0
8.2675,-15616.0,-5248.0,128.0
8.27,-15616.0,-5248.0,64.0
8.2725,-15552.0,-5248.0,64.0
8.275,-15616.0,-5248.0,0.0
8.2775,-15680.0,-5248.0,-64.0
8.28,-15680.0,-5184.0,-128.0
8.2825,-15616.0,-5184.0,-64.0
8.285,-15552.0,-5248.0,0.0
8.2875,-15552.0,-5184.0,64.0
8.29,-15488.0,-5184.0,64.0
8.2925,-15552.0,-5184.0,64.0
8.295,-15488.0,-5120.0,0.0
8.2975,-15424.0,-5184.0,-64.0
8.3,-15424.0,-5120.0,0.0
8.3025,-15424.0,-5184.0,0.0
8.305,-15424.0,-5184.0,0.0
8.3075,-15424.0,-5120.0,64.0
8.31,-15360.0,-5056.0,0.0
8.3125,-15360.0,-5120.0,64.0
8.315,-15296.0,-5120.0,64.0
8.3175,-15360.0,-5120.0,0.0
8.32,-15232.0,-5120.0,0.0
8.3225,-15232.0,-5120.0,64.0
8.325,-15232.0,-5056.0,64.0
8.3275,-15232.0,-5120.0,0.0
8.33,-15232.0,-5056.0,128.0
8.3325,-15232.0,-4992.0,64.0
8.335,-15232.0,-5056.0,64.0
8.3375,-15168.0,-5056.0,64.0
8.34,-15104.0,-5056.0,64.0
8.3425,-15168.0,-5056.0,-64.0
8.345,-15168.0,-5120.0,0.0
8.3475,-15168.0,-5056.0,0.0
8.35,-15168.0,-5056.0,-64.0
8.3525,-15232.0,-5056.0,-64.0
8.355,-15168.0,-4992.0,-64.0
8.3575,-15168.0,-5056.0,0.0
8.36,-15168.0,-4992.0,0.0
8.3625,-15232.0,-5120.0,0.0
8.365,-15232.0,-5056.0,0.0
8.3675,-15168.0,-5120.0,-64.0
8.37,-15232.0,-5056.0,-128.0
8.3725,-15296.0,-5120.0,-128.0
8.375,-15232.0,-5120.0,-64.0
8.3775,-15168.0,-5120.0,-64.0
8.38,-15232.0,-5056.0,-64.0
8.3825,-15232.0,-5120.0,-192.0
8.385,-15232.0,-5120.0,-128.0
8.3875,-15232.0,-5120.0,-128.0
8.39,-15232.0,-5120.0,-192.0
8.3925,-15232.0,-5120.0,-128.0
8.395,-15232.0,-5120.0,-128.0
8.3975,-15232.0,-5120.0,-128.0
8.4,-15232.0,-5120.0,-128.0
8.4025,-15232.0,-5184.0,-128.0
8.405,-15232.0,-5120.0,-192.0
8.4075,-15168.0,-5184.0,-192.0
8.41,-15232.0,-5120.0,-192.0
8.4125,-15232.0,-5120.0,-192.0
8.415,-15296.0,-5120.0,-192.0
8.4175,-15296.0,-5120.0,-256.0
8.42,-15296.0,-5120.0,-256.0
8.4225,-15360.0,-5120.0,-256.0
8.425,-15296.0,-5120.0,-192.0
8.4275,-15296.0,-5120.0,-192.0
8.43,-15360.0,-5120.0,-192.0
8.4325,-15360.0,-5056.0,-256.0
8.435,-15360.0,-5056.0,-256.0
8.4375,-15360.0,-5056.0,-320.0
8.44,-15360.0,-5056.0,-320.0
8.4425,-15424.0,-5056.0,-320.0
8.445,-15424.0,-4992.0,-320.0
8.4475,-15488.0,-4992.0,-256.0
8.45,-15424.0,-4992.0,-256.0
8.4525,-15488.0,-5056.0,-256.0
8.455,-15488.0,-5056.0,-192.0
8.4575,-15424.0,-4992.0,-192.0
8.46,-15424.0,-5056.0,-192.0
8.4625,-15488.0,-4992.0,-256.0
8.465,-15424.0,-5056.0,-192.0
8.4675,-15424.0,-4992.0,-128.0
8.47,-15424.0,-5056.0,-192.0
8.4725,-15424.0,-5056.0,-192.0
8.475,-15424.0,-5056.0,-256.0
8.4775,-15360.0,-5056.0,-256.0
8.48,-15360.0,-4992.0,-192.0
8.4825,-15296.0,-4992.0,-192.0
8.485,-15360.0,-4928.0,-256.0
8.4875,-15296.0,-4928.0,-256.0
8.49,-15232.0,-4928.0,-256.0
8.4925,-15232.0,-4992.0,-256.0
8.495,-15168.0,-4928.0,-256.0
8.4975,-15168.0,-4928.0,-256.0
8.5,-15168.0,-4928.0,-192.0
8.5025,-15168.0,-4992.0,-192.0
8.505,-15168.0,-4928.0,-192.0
8.5075,-15168.0,-4928.0,-256.0
8.51,-15168.0,-4864.0,-192.0
8.5125,-15168.0,-4864.0,-256.0
8.515,-15104.0,-4928.0,-256.0
8.5175,-15104.0,-4928.0,-256.0
8.52,-15040.0,-4928.0,-192.0
8.5225,-14976.0,-4928.0,-256.0
8.525,-14912.0,-4864.0,-192.0
8.5275,-14912.0,-4864.0,-192.0
8.53,-14848.0,-4928.0,-64.0
8.5325,-14784.0,-4928.0,-128.0
8.535,-14656.0,-4864.0,-128.0
8.5375,-14592.0,-4864.0,-64.0
8.54,-14592.0,-4864.0,-64.0
8.5425,-14528.0,-4800.0,0.0
8.545,-14400.0,-4800.0,0.0
8.5475,-14400.0,-4800.0,0.0
8.55,-14336.0,-4800.0,0.0
8.5525,-14272.0,-4864.0,64.0
8.555,-14208.0,-4864.0,64.0
8.5575,-14144.0,-4736.0,64.0
8.56,-14144.0,-4800.0,64.0
8.5625,-14080.0,-4736.0,128.0
8.565,-14016.0,-4672.0,128.0
8.5675,-14016.0,-4672.0,64.0
8.57,-14080.0,-4736.0,128.0
8.5725,-14016.0,-4736.0,192.0
8.575,-14016.0,-4736.0,128.0
8.5775,-14016.0,-4672.0,128.0
8.58,-14080.0,-4672.0,64.0
8.5825,-14144.0,-4672.0,64.0
8.585,-14208.0,-4672.0,64.0
8.5875,-14208.0,-4672.0,128.0
8.59,-14272.0,-4672.0,128.0
8.5925,-14272.0,-4672.0,192.0
8.595,-14272.0,-4736.0,192.0
8.5975,-14272.0,-4736.0,192.0
8.6,-14336.0,-4736.0,256.0
8.6025,-14400.0,-4736.0,256.0
8.605,-14464.0,-4736.0,320.0
8.6075,-14528.0,-4800.0,320.0
8.61,-14528.0,-4736.0,320.0
8.6125,-14528.0,-4800.0,320.0
8.615,-14592.0,-4736.0,256.0
8.6175,-14656.0,-4800.0,320.0
8.62,-14656.0,-4800.0,256.0
8.6225,-14720.0,-4800.0,192.0
8.625,-14720.0,-4864.0,192.0
8.6275,-14784.0,-4864.0,192.0
8.63,-14848.0,-4800.0,192.0
8.6325,-14848.0,-4800.0,192.0
8.635,-14848.0,-4864.0,128.0
8.6375,-15040.0,-4864.0,128.0
8.64,-15040.0,-4928.0,64.0
8.6425,-15040.0,-4800.0,64.0
8.645,-15104.0,-4864.0,128.0
8.6475,-15104.0,-4864.0,128.0
8.65,-15168.0,-4800.0,64.0
8.6525,-15232.0,-4800.0,128.0
8.655,-15296.0,-4864.0,192.0
8.6575,-15296.0,-4800.0,192.0
8.66,-15296.0,-4800.0,64.0
8.6625,-15360.0,-4800.0,64.0
8.665,-15424.0,-4800.0,64.0
8.6675,-15424.0,-4800.0,128.0
8.67,-15424.0,-4800.0,64.0
8.6725,-15488.0,-4864.0,64.0
8.675,-15424.0,-4800.0,64.0
8.6775,-15488.0,-4800.0,0.0
8.68,-15488.0,-4864.0,0.0
8.6825,-15488.0,-4864.0,0.0
8.685,-15488.0,-4800.0,0.0
8.6875,-15488.0,-4800.0,0.0
8.69,-15488.0,-4800.0,0.0
8.6925,-15488.0,-4800.0,0.0
8.695,-15424.0,-4800.0,64.0
8.6975,-15424.0,-4800.0,64.0
8.7,-15424.0,-4800.0,128.0
8.7025,-15424.0,-4736.0,0.0
8.705,-15424.0,-4736.0,0.0
8.7075,-15424.0,-4800.0,128.0
8.71,-15424.0,-4736.0,64.0
8.7125,-15424.0,-4736.0,64.0
8.715,-15424.0,-4736.0,64.0
8.7175,-15296.0,-4800.0,64.0
8.72,-15232.0,-4800.0,0.0
8.7225,-15232.0,-4736.0,0.0
8.725,-15232.0,-4736.0,64.0
8.7275,-15168.0,-4672.0,0.0
8.73,-15168.0,-4736.0,0.0
8.7325,-15168.0,-4736.0,64.0
8.735,-15168.0,-4672.0,-64.0
8.7375,-15168.0,-4736.0,-64.0
8.74,-15104.0,-4672.0,0.0
8.7425,-15168.0,-4736.0,0.0
8.745,-15168.0,-4672.0,64.0
8.7475,-15232.0,-4736.0,0.0
8.75,-15232.0,-4672.0,-64.0
8.7525,-15296.0,-4672.0,0.0
8.755,-15296.0,-4672.0,-64.0
8.7575,-15296.0,-4672.0,-64.0
8.76,-15296.0,-4672.0,-64.0
8.7625,-15296.0,-4800.0,0.0
8.765,-15296.0,-4736.0,0.0
8.7675,-15232.0,-4736.0,64.0
8.77,-15232.0,-4608.0,0.0
8.7725,-15232.0,-4608.0,64.0
8.775,-15232.0,-4608.0,128.0
8.7775,-15168.0,-4672.0,128.0
8.78,-15232.0,-4672.0,128.0
8.7825,-15232.0,-4544.0,128.0
8.785,-15296.0,-4608.0,128.0
8.7875,-15296.0,-4608.0,128.0
8.79,-15232.0,-4544.0,128.0
8.7925,-15296.0,-4608.0,192.0
8.795,-15360.0,-4608.0,192.0
8.7975,-15424.0,-4608.0,192.0
8.8,-15488.0,-4608.0,192.0
8.8025,-15488.0,-4672.0,192.0
8.805,-15488.0,-4608.0,64.0
8.8075,-15552.0,-4672.0,64.0
8.81,-15552.0,-4608.0,64.0
8.8125,-15616.0,-4544.0,128.0
8.815,-15616.0,-4672.0,128.0
8.8175,-15680.0,-4672.0,64.0
8.82,-15744.0,-4672.0,64.0
8.8225,-15744.0,-4672.0,128.0
8.825,-15744.0,-4672.0,128.0
8.8275,-15808.0,-4672.0,128.0
8.83,-15872.0,-4672.0,128.0
8.8325,-15936.0,-4736.0,128.0
8.835,-16000.0,-4736.0,128.0
8.8375,-15936.0,-4672.0,64.0
8.84,-16000.0,-4672.0,64.0
8.8425,-16064.0,-4672.0,128.0
8.845,-16000.0,-4672.0,128.0
8.8475,-16128.0,-4736.0,128.0
8.85,-16128.0,-4736.0,128.0
8.8525,-16128.0,-4800.0,64.0
8.855,-16192.0,-4736.0,128.0
8.8575,-16192.0,-4736.0,128.0
8.86,-16192.0,-4800.0,128.0
8.8625,-16192.0,-4736.0,64.0
8.865,-16192.0,-4736.0,64.0
8.8675,-16128.0,-4736.0,64.0
8.87,-16128.0,-4800.0,64.0
8.8725,-16128.0,-4736.0,0.0
8.875,-16128.0,-4736.0,64.0
8.8775,-16192.0,-4736.0,64.0
8.88,-16128.0,-4800.0,64.0
8.8825,-16128.0,-4800.0,64.0
8.885,-16064.0,-4800.0,64.0
8.8875,-15936.0,-4800.0,0.0
8.89,-16000.0,-4800.0,64.0
8.8925,-16000.0,-4800.0,64.0
8.895,-15936.0,-4736.0,64.0
8.8975,-15872.0,-4736.0,0.0
8.9,-15872.0,-4736.0,64.0
8.9025,-15872.0,-4736.0,64.0
8.905,-15808.0,-4736.0,128.0
8.9075,-15808.0,-4864.0,128.0
8.91,-15808.0,-4800.0,0.0
8.9125,-15808.0,-4864.0,64.0
8.915,-15744.0,-4864.0,64.0
8.9175,-15744.0,-4864.0,64.0
8.92,-15744.0,-4864.0,0.0
8.9225,-15680.0,-4864.0,64.0
8.925,-15680.0,-4928.0,64.0
8.9275,-15616.0,-4928.0,0.0
8.93,-15616.0,-4928.0,0.0
8.9325,-15680.0,-4928.0,0.0
8.935,-15616.0,-4928.0,0.0
8.9375,-15616.0,-4928.0,64.0
8.94,-15552.0,-4928.0,0.0
8.9425,-15616.0,-4992.0,0.0
8.945,-15616.0,-4992.0,0.0
8.9475,-15616.0,-4992.0,-64.0
8.95,-15616.0,-4992.0,-64.0
8.9525,-15616.0,-4992.0,-64.0
8.955,-15616.0,-5056.0,0.0
8.9575,-15552.0,-4992.0,0.0
8.96,-15616.0,-4992.0,-64.0
8.9625,-15616.0,-4928.0,-64.0
8.965,-15616.0,-4928.0,-64.0
8.9675,-15616.0,-4992.0,-64.0
8.97,-15616.0,-4992.0,-64.0
8.9725,-15616.0,-4992.0,-128.0
8.975,-15680.0,-4992.0,-128.0
8.9775,-15680.0,-4992.0,-64.0
8.98,-15744.0,-4992.0,-64.0
8.9825,-15744.0,-4992.0,-128.0
8.985,-15808.0,-4928.0,-128.0
8.9875,-15808.0,-4992.0,-192.0
8.99,-15872.0,-5056.0,-128.0
8.9925,-15872.0,-4992.0,-192.0
8.995,-15936.0,-4928.0,-256.0
8.9975,-15936.0,-4992.0,-192.0
9.0,-15936.0,-4992.0,-192.0
9.0025,-15936.0,-4992.0,-192.0
9.005,-16000.0,-4928.0,-192.0
9.0075,-16000.0,-4928.0,-192.0
9.01,-16064.0,-4928.0,-192.0
9.0125,-16064.0,-4928.0,-192.0
9.015,-16128.0,-4864.0,-192.0
9.0175,-16192.0,-4928.0,-192.0
9.02,-16192.0,-4864.0,-256.0
9.0225,-16256.0,-4864.0,-320.0
9.025,-16192.0,-4864.0,-320.0
9.0275,-16192.0,-4864.0,-320.0
9.03,-16256.0,-4864.0,-320.0
9.0325,-16256.0,-4864.0,-320.0
9.035,-16320.0,-4864.0,-320.0
9.0375,-16256.0,-4864.0,-384.0
9.04,-16320.0,-4864.0,-320.0
9.0425,-16384.0,-4864.0,-320.0
9.045,-16256.0,-4800.0,-320.0
9.0475,-16256.0,-4800.0,-320.0
9.05,-16256.0,-4800.0,-320.0
9.0525,-16256.0,-4800.0,-320.0
9.055,-16192.0,-4800.0,-320.0
9.0575,-16192.0,-4800.0,-320.0
9.06,-16192.0,-4800.0,-320.0
9.0625,-16128.0,-4800.0,-320.0
9.065,-16064.0,-4800.0,-256.0
9.0675,-16128.0,-4800.0,-256.0
9.07,-16128.0,-4800.0,-256.0
9.0725,-16064.0,-4800.0,-256.0
9.075,-16064.0,-4736.0,-256.0
9.0775,-16128.0,-4736.0,-320.0
9.08,-16000.0,-4672.0,-320.0
9.0825,-16000.0,-4800.0,-320.0
9.085,-15936.0,-4800.0,-320.0
9.0875,-15936.0,-4800.0,-320.0
9.09,-15808.0,-4800.0,-256.0
9.0925,-15744.0,-4736.0,-256.0
9.095,-15744.0,-4736.0,-256.0
9.0975,-15744.0,-4736.0,-256.0
9.1,-15680.0,-4800.0,-256.0
9.1025,-15680.0,-4736.0,-320.0
9.105,-15680.0,-4736.0,-320.0
9.1075,-15680.0,-4736.0,-256.0
9.11,-15616.0,-4800.0,-256.0
9.1125,-15680.0,-4800.0,-256.0
9.115,-15552.0,-4736.0,-192.0
9.1175,-15552.0,-4800.0,-256.0
9.12,-15488.0,-4864.0,-256.0
9.1225,-15488.0,-4800.0,-256.0
9.125,-15488.0,-4800.0,-320.0
9.1275,-15488.0,-4736.0,-384.0
9.13,-15488.0,-4736.0,-384.0
9.1325,-15488.0,-4736.0,-384.0
9.135,-15424.0,-4672.0,-256.0
9.1375,-15360.0,-4672.0,-192.0
9.14,-15360.0,-4672.0,-192.0
9.1425,-15424.0,-4672.0,-192.0
9.145,-15424.0,-4608.0,-192.0
9.1475,-15360.0,-4672.0,-192.0
9.15,-15424.0,-4736.0,-192.0
9.1525,-15360.0,-4672.0,-128.0
9.155,-15424.0,-4736.0,-64.0
9.1575,-15488.0,-4736.0,-64.0
9.16,-15488.0,-4800.0,-64.0
9.1625,-15552.0,-4800.0,-128.0
9.165,-15552.0,-4864.0,-128.0
9.1675,-15616.0,-4864.0,-192.0
9.17,-15616.0,-4864.0,-256.0
9.1725,-15616.0,-4864.0,-192.0
9.175,-15552.0,-4928.0,-256.0
9.1775,-15616.0,-4864.0,-320.0
9.18,-15680.0,-4864.0,-320.0
9.1825,-15616.0,-4928.0,-320.0
9.185,-15680.0,-4864.0,-256.0
9.1875,-15744.0,-4736.0,-192.0
9.19,-15808.0,-4800.0,-256.0
9.1925,-15808.0,-4800.0,-256.0
9.195,-15808.0,-4800.0,-192.0
9.1975,-15872.0,-4800.0,-192.0
9.2,-15872.0,-4864.0,-192.0
9.2025,-15872.0,-4800.0,-192.0
9.205,-15936.0,-4800.0,-128.0
9.2075,-15872.0,-4800.0,-192.0
9.21,-15936.0,-4800.0,-256.0
9.2125,-16000.0,-4800.0,-256.0
9.215,-16000.0,-4800.0,-320.0
9.2175,-16000.0,-4800.0,-320.0
9.22,-16000.0,-4800.0,-320.0
9.2225,-16064.0,-4800.0,-320.0
9.225,-16064.0,-4736.0,-384.0
9.2275,-16064.0,-4736.0,-448.0
9.23,-16064.0,-4736.0,-448.0
9.2325,-16064.0,-4736.0,-448.0
9.235,-16064.0,-4736.0,-448.0
9.2375,-16064.0,-4864.0,-448.0
9.24,-16128.0,-4864.0,-448.0
9.2425,-16128.0,-4928.0,-384.0
9.245,-16064.0,-4992.0,-320.0
9.2475,-16064.0,-4992.0,-320.0
9.25,-16000.0,-4992.0,-320.0
9.2525,-16000.0,-5056.0,-320.0
9.255,-16000.0,-4992.0,-256.0
9.2575,-16000.0,-4928.0,-192.0
9.26,-16000.0,-4992.0,-192.0
9.2625,-16000.0,-5056.0,-192.0
9.265,-16000.0,-4992.0,-128.0
9.2675,-15936.0,-5056.0,-128.0
9.27,-15936.0,-4992.0,-128.0
9.2725,-15872.0,-4992.0,-64.0
9.275,-15872.0,-4992.0,-64.0
9.2775,-15872.0,-4992.0,-64.0
9.28,-15808.0,-4992.0,-128.0
9.2825,-15808.0,-4992.0,-128.0
9.285,-15808.0,-4928.0,-128.0
9.2875,-15744.0,-4928.0,-128.0
9.29,-15680.0,-4992.0,-128.0
9.2925,-15680.0,-4992.0,-64.0
9.295,-15680.0,-4928.0,-64.0
9.2975,-15744.0,-4992.0,-64.0
9.3,-15744.0,-4928.0,0.0
9.3025,-15744.0,-4992.0,-64.0
9.305,-15680.0,-4928.0,0.0
9.3075,-15744.0,-4928.0,0.0
9.31,-15744.0,-4864.0,0.0
9.3125,-15680.0,-4800.0,0.0
9.315,-15616.0,-4864.0,64.0
9.3175,-15616.0,-4800.0,64.0
9.32,-15616.0,-4864.0,64.0
9.3225,-15680.0,-4864.0,64.0
9.325,-15616.0,-4864.0,64.0
9.3275,-15616.0,-4800.0,128.0
9.33,-15616.0,-4800.0,64.0
9.3325,-15616.0,-4800.0,64.0
9.335,-15552.0,-4864.0,64.0
9.3375,-15552.0,-4928.0,64.0
9.34,-15552.0,-4864.0,0.0
9.3425,-15552.0,-4928.0,0.0
9.345,-15552.0,-4928.0,64.0
9.3475,-15552.0,-4992.0,64.0
9.35,-15552.0,-4992.0,64.0
9.3525,-15488.0,-4928.0,128.0
9.355,-15488.0,-4992.0,192.0
9.3575,-15488.0,-4992.0,192.0
9.36,-15488.0,-4928.0,256.0
9.3625,-15488.0,-4928.0,256.0
9.365,-15488.0,-4928.0,256.0
9.3675,-15552.0,-4992.0,192.0
9.37,-15552.0,-5056.0,256.0
9.3725,-15488.0,-5056.0,256.0
9.375,-15488.0,-5056.0,256.0
9.3775,-15424.0,-5056.0,192.0
9.38,-15424.0,-5056.0,192.0
9.3825,-15488.0,-5120.0,192.0
9.385,-15424.0,-5120.0,192.0
9.3875,-15488.0,-5056.0,128.0
9.39,-15424.0,-5120.0,128.0
9.3925,-15296.0,-5056.0,192.0
9.395,-15296.0,-5056.0,192.0
9.3975,-15296.0,-5056.0,256.0
9.4,-15232.0,-4992.0,256.0
9.4025,-15232.0,-4992.0,256.0
9.405,-15168.0,-5056.0,192.0
9.4075,-15104.0,-5056.0,192.0
9.41,-15104.0,-5120.0,192.0
9.4125,-14976.0,-5120.0,192.0
9.415,-14976.0,-5056.0,256.0
9.4175,-14912.0,-5120.0,256.0
9.42,-14848.0,-5056.0,192.0
9.4225,-14784.0,-5056.0,192.0
9.425,-14720.0,-4992.0,192.0
9.4275,-14656.0,-4992.0,256.0
9.43,-14592.0,-4992.0,256.0
9.4325,-14592.0,-4928.0,256.0
9.435,-14656.0,-4864.0,256.0
9.4375,-14592.0,-4864.0,256.0
9.44,-14592.0,-4800.0,256.0
9.4425,-14592.0,-4800.0,256.0
9.445,-14592.0,-4672.0,128.0
9.4475,-14592.0,-4736.0,64.0
9.45,-14528.0,-4736.0,64.0
9.4525,-14528.0,-4608.0,0.0
9.455,-14464.0,-4608.0,-64.0
9.4575,-14592.0,-4608.0,0.0
9.46,-14592.0,-4608.0,-64.0
9.4625,-14656.0,-4608.0,0.0
9.465,-14656.0,-4544.0,0.0
9.4675,-14656.0,-4544.0,0.0
9.47,-14656.0,-4608.0,0.0
9.4725,-14656.0,-4608.0,-64.0
9.475,-14656.0,-4608.0,-64.0
9.4775,-14720.0,-4608.0,0.0
9.48,-14720.0,-4608.0,0.0
9.4825,-14720.0,-4672.0,-64.0
9.485,-14720.0,-4672.0,0.0
9.4875,-14784.0,-4672.0,-64.0
9.49,-14720.0,-4736.0,-64.0
9.4925,-14720.0,-4672.0,-64.0
9.495,-14720.0,-4672.0,-64.0
9.4975,-14720.0,-4672.0,-128.0
9.5,-14720.0,-4672.0,-64.0
9.5025,-14720.0,-4736.0,-64.0
9.505,-14784.0,-4672.0,-128.0
9.5075,-14848.0,-4672.0,-192.0
9.51,-14784.0,-4672.0,-128.0
9.5125,-14784.0,-4672.0,-128.0
9.515,-14784.0,-4672.0,-128.0
9.5175,-14784.0,-4608.0,-192.0
9.52,-14848.0,-4672.0,-64.0
9.5225,-14848.0,-4608.0,-64.0
9.525,-14848.0,-4672.0,-128.0
9.5275,-14848.0,-4672.0,-128.0
9.53,-14784.0,-4672.0,-192.0
9.5325,-14848.0,-4736.0,-256.0
9.535,-14784.0,-4800.0,-256.0
9.5375,-14784.0,-4736.0,-192.0
9.54,-14784.0,-4736.0,-256.0
9.5425,-14784.0,-4864.0,-192.0
9.545,-14720.0,-4864.0,-192.0
9.5475,-14784.0,-4864.0,-128.0
9.55,-14720.0,-4800.0,-128.0
9.5525,-14784.0,-4800.0,-128.0
9.555,-14720.0,-4800.0,-64.0
9.5575,-14784.0,-4800.0,-64.0
9.56,-14784.0,-4736.0,-64.0
9.5625,-14784.0,-4736.0,-64.0
9.565,-14784.0,-4736.0,-64.0
9.5675,-14784.0,-4736.0,-128.0
9.57,-14720.0,-4672.0,-128.0
9.5725,-14720.0,-4608.0,-64.0
9.575,-14720.0,-4672.0,-64.0
9.5775,-14720.0,-4736.0,-64.0
9.58,-14656.0,-4672.0,-128.0
9.5825,-14720.0,-4672.0,-128.0
9.585,-14656.0,-4672.0,-128.0
9.5875,-14656.0,-4608.0,-128.0
9.59,-14528.0,-4608.0,-128.0
9.5925,-14528.0,-4608.0,-128.0
9.595,-14528.0,-4544.0,-128.0
9.5975,-14528.0,-4608.0,-128.0
9.6,-14464.0,-4544.0,0.0
9.6025,-14464.0,-4544.0,64.0
9.605,-14336.0,-4608.0,64.0
9.6075,-14400.0,-4544.0,64.0
9.61,-14400.0,-4608.0,128.0
9.6125,-14464.0,-4608.0,64.0
9.615,-14464.0,-4672.0,128.0
9.6175,-14528.0,-4672.0,64.0
9.62,-14592.0,-4672.0,64.0
9.6225,-14656.0,-4672.0,0.0
9.625,-14720.0,-4672.0,64.0
9.6275,-14784.0,-4736.0,64.0
9.63,-14848.0,-4736.0,64.0
9.6325,-14976.0,-4736.0,0.0
9.635,-15104.0,-4800.0,0.0
9.6375,-15232.0,-4864.0,0.0
9.64,-15296.0,-4928.0,0.0
9.6425,-15296.0,-4928.0,0.0
9.645,-15360.0,-4928.0,-64.0
9.6475,-15488.0,-4928.0,-128.0
9.65,-15552.0,-4992.0,-64.0
9.6525,-15616.0,-4992.0,-64.0
9.655,-15616.0,-4992.0,-64.0
9.6575,-15680.0,-4992.0,-64.0
9.66,-15680.0,-4992.0,-128.0
9.6625,-15808.0,-4928.0,-128.0
9.665,-15808.0,-4928.0,-128.0
9.6675,-15872.0,-4992.0,-128.0
9.67,-15872.0,-4992.0,-128.0
9.6725,-15808.0,-4928.0,-128.0
9.675,-15808.0,-4992.0,-128.0
9.6775,-15744.0,-4992.0,-128.0
9.68,-15680.0,-4992.0,-192.0
9.6825,-15744.0,-4928.0,-128.0
9.685,-15680.0,-4864.0,-64.0
9.6875,-15680.0,-4864.0,0.0
9.69,-15552.0,-4864.0,-64.0
9.6925,-15552.0,-4928.0,0.0
9.695,-15488.0,-4864.0,64.0
9.6975,-15552.0,-4864.0,0.0
9.7,-15488.0,-4864.0,64.0
9.7025,-15488.0,-4864.0,64.0
9.705,-15424.0,-4864.0,128.0
9.7075,-15488.0,-4864.0,128.0
9.71,-15552.0,-4928.0,64.0
9.7125,-15552.0,-4928.0,128.0
9.715,-15552.0,-4928.0,128.0
9.7175,-15552.0,-4864.0,0.0
9.72,-15616.0,-4864.0,0.0
9.7225,-15552.0,-4864.0,0.0
9.725,-15488.0,-4864.0,0.0
9.7275,-15488.0,-4864.0,64.0
9.73,-15552.0,-4864.0,0.0
9.7325,-15552.0,-4864.0,0.0
9.735,-15488.0,-4864.0,64.0
9.7375,-15552.0,-4800.0,128.0
9.74,-15616.0,-4800.0,128.0
9.7425,-15616.0,-4800.0,64.0
9.745,-15488.0,-4800.0,0.0
9.7475,-15552.0,-4800.0,64.0
9.75,-15552.0,-4800.0,192.0
9.7525,-15552.0,-4672.0,128.0
9.755,-15552.0,-4736.0,256.0
9.7575,-15552.0,-4736.0,320.0
9.76,-15552.0,-4800.0,384.0
9.7625,-15552.0,-4672.0,448.0
9.765,-15616.0,-4672.0,384.0
9.7675,-15616.0,-4736.0,384.0
9.77,-15552.0,-4672.0,384.0
9.7725,-15616.0,-4736.0,384.0
9.775,-15616.0,-4736.0,384.0
9.7775,-15616.0,-4736.0,384.0
9.78,-15616.0,-4736.0,448.0
9.7825,-15616.0,-4736.0,512.0
9.785,-15616.0,-4736.0,448.0
9.7875,-15744.0,-4672.0,448.0
9.79,-15744.0,-4736.0,448.0
9.7925,-15744.0,-4736.0,448.0
9.795,-15744.0,-4672.0,384.0
9.7975,-15744.0,-4736.0,448.0
9.8,-15680.0,-4672.0,384.0
9.8025,-15616.0,-4608.0,384.0
9.805,-15616.0,-4672.0,384.0
9.8075,-15616.0,-4608.0,384.0
9.81,-15616.0,-4608.0,384.0
9.8125,-15680.0,-4608.0,384.0
9.815,-15680.0,-4672.0,384.0
9.8175,-15616.0,-4608.0,448.0
9.82,-15552.0,-4608.0,448.0
9.8225,-15616.0,-4608.0,512.0
9.825,-15552.0,-4608.0,512.0
9.8275,-15552.0,-4672.0,512.0
9.83,-15552.0,-4736.0,512.0
9.8325,-15552.0,-4736.0,576.0
9.835,-15552.0,-4672.0,512.0
9.8375,-15616.0,-4736.0,512.0
9.84,-15616.0,-4736.0,704.0
9.8425,-15680.0,-4800.0,704.0
9.845,-15616.0,-4800.0,704.0
9.8475,-15680.0,-4800.0,640.0
9.85,-15680.0,-4864.0,640.0
9.8525,-15680.0,-4864.0,640.0
9.855,-15680.0,-4864.0,640.0
9.8575,-15808.0,-4864.0,704.0
9.86,-15872.0,-4864.0,576.0
9.8625,-15936.0,-4864.0,640.0
9.865,-16000.0,-4928.0,640.0
9.8675,-16064.0,-4992.0,704.0
9.87,-16064.0,-4992.0,640.0
9.8725,-16192.0,-5056.0,640.0
9.875,-16256.0,-5184.0,640.0
9.8775,-16320.0,-5184.0,704.0
9.88,-16320.0,-5248.0,640.0
9.8825,-16384.0,-5248.0,704.0
9.885,-16448.0,-5312.0,576.0
9.8875,-16448.0,-5312.0,576.0
9.89,-16512.0,-5312.0,576.0
9.8925,-16512.0,-5312.0,512.0
9.895,-16512.0,-5312.0,448.0
9.8975,-16448.0,-5376.0,448.0
9.9,-16448.0,-5376.0,448.0
9.9025,-16512.0,-5440.0,448.0
9.905,-16512.0,-5376.0,512.0
9.9075,-16512.0,-5312.0,512.0
9.91,-16640.0,-5312.0,512.0
9.9125,-16640.0,-5312.0,448.0
9.915,-16576.0,-5184.0,448.0
9.9175,-16448.0,-5184.0,448.0
9.92,-16448.0,-5120.0,512.0
9.9225,-16448.0,-5184.0,512.0
9.925,-16448.0,-5184.0,384.0
9.9275,-16448.0,-5184.0,384.0
9.93,-16448.0,-5120.0,384.0
9.9325,-16384.0,-5120.0,320.0
9.935,-16384.0,-5120.0,320.0
9.9375,-16320.0,-5120.0,256.0
9.94,-16320.0,-5120.0,256.0
9.9425,-16320.0,-5056.0,256.0
9.945,-16256.0,-5056.0,256.0
9.9475,-16256.0,-5056.0,192.0
9.95,-16192.0,-5056.0,256.0
9.9525,-16256.0,-5120.0,192.0
9.955,-16192.0,-5056.0,256.0
9.9575,-16128.0,-5120.0,256.0
9.96,-16192.0,-5184.0,320.0
9.9625,-16128.0,-5248.0,320.0
9.965,-16128.0,-5248.0,320.0
9.9675,-16064.0,-5184.0,320.0
9.97,-16000.0,-5248.0,384.0
9.9725,-16064.0,-5184.0,384.0
9.975,-16064.0,-5120.0,320.0
9.9775,-16000.0,-5184.0,384.0
9.98,-16000.0,-5120.0,384.0
9.9825,-15936.0,-5120.0,384.0
9.985,-15936.0,-5184.0,320.0
9.9875,-15936.0,-5184.0,256.0
9.99,-15936.0,-5120.0,320.0
9.9925,-15936.0,-5184.0,320.0
9.995,-15872.0,-5184.0,320.0
9.9975,-15872.0,-5184.0,384.0
10.0,-15936.0,-5184.0,320.0
10.0025,-15872.0,-5248.0,320.0
10.005,-15808.0,-5248.0,384.0
10.0075,-15872.0,-5120.0,320.0
10.01,-15872.0,-5184.0,320.0
10.0125,-15936.0,-5184.0,320.0
10.015,-15936.0,-5184.0,320.0
10.0175,-15936.0,-5248.0,256.0
10.02,-15936.0,-5248.0,320.0
10.0225,-16000.0,-5248.0,320.0
10.025,-15872.0,-5248.0,256.0
10.0275,-15936.0,-5248.0,256.0
10.03,-15872.0,-5248.0,256.0
10.0325,-15872.0,-5248.0,256.0
10.035,-15872.0,-5312.0,256.0
10.0375,-15872.0,-5312.0,192.0
10.04,-15872.0,-5376.0,192.0
10.0425,-15872.0,-5312.0,192.0
10.045,-15872.0,-5376.0,192.0
10.0475,-15936.0,-5376.0,192.0
10.05,-15872.0,-5376.0,256.0
10.0525,-15872.0,-5376.0,256.0
10.055,-15872.0,-5376.0,256.0
10.0575,-15872.0,-5440.0,256.0
10.06,-15872.0,-5376.0,192.0
10.0625,-15936.0,-5376.0,128.0
10.065,-15872.0,-5440.0,192.0
10.0675,-15808.0,-5440.0,192.0
10.07,-15808.0,-5440.0,192.0
10.0725,-15744.0,-5440.0,192.0
10.075,-15808.0,-5440.0,192.0
10.0775,-15744.0,-5440.0,192.0
10.08,-15744.0,-5440.0,192.0
10.0825,-15744.0,-5440.0,256.0
10.085,-15744.0,-5440.0,256.0
10.0875,-15744.0,-5440.0,192.0
10.09,-15744.0,-5376.0,256.0
10.0925,-15744.0,-5376.0,256.0
10.095,-15808.0,-5440.0,256.0
10.0975,-15808.0,-5440.0,256.0
10.1,-15808.0,-5504.0,192.0
10.1025,-15808.0,-5440.0,192.0
10.105,-15872.0,-5440.0,192.0
10.1075,-15872.0,-5440.0,192.0
10.11,-15808.0,-5440.0,192.0
10.1125,-15936.0,-5504.0,192.0
10.115,-15872.0,-5504.0,192.0
10.1175,-15872.0,-5504.0,192.0
10.12,-15872.0,-5504.0,128.0
10.1225,-15808.0,-5440.0,192.0
10.125,-15872.0,-5504.0,192.0
10.1275,-15744.0,-5504.0,192.0
10.13,-15744.0,-5440.0,128.0
10.1325,-15680.0,-5504.0,128.0
10.135,-15680.0,-5440.0,192.0
10.1375,-15680.0,-5504.0,192.0
10.14,-15680.0,-5440.0,192.0
10.1425,-15680.0,-5440.0,192.0
10.145,-15616.0,-5504.0,192.0
10.1475,-15552.0,-5504.0,192.0
10.15,-15616.0,-5440.0,192.0
10.1525,-15680.0,-5504.0,192.0
10.155,-15680.0,-5440.0,192.0
10.1575,-15616.0,-5440.0,128.0
10.16,-15616.0,-5440.0,128.0
10.1625,-15552.0,-5440.0,64.0
10.165,-15680.0,-5440.0,128.0
10.1675,-15680.0,-5440.0,128.0
10.17,-15680.0,-5504.0,128.0
10.1725,-15680.0,-5504.0,64.0
10.175,-15680.0,-5440.0,128.0
10.1775,-15616.0,-5440.0,128.0
10.18,-15616.0,-5376.0,128.0
10.1825,-15616.0,-5376.0,128.0
10.185,-15616.0,-5312.0,128.0
10.1875,-15552.0,-5376.0,128.0
10.19,-15616.0,-5376.0,192.0
10.1925,-15552.0,-5376.0,192.0
10.195,-15552.0,-5440.0,256.0
10.1975,-15552.0,-5440.0,192.0
10.2,-15552.0,-5376.0,256.0
10.2025,-15424.0,-5376.0,256.0
10.205,-15424.0,-5376.0,192.0
10.2075,-15360.0,-5376.0,192.0
10.21,-15424.0,-5376.0,192.0
10.2125,-15424.0,-5376.0,128.0
10.215,-15360.0,-5376.0,128.0
10.2175,-15424.0,-5376.0,192.0
10.22,-15424.0,-5312.0,128.0
10.2225,-15424.0,-5312.0,128.0
10.225,-15424.0,-5312.0,256.0
10.2275,-15360.0,-5312.0,192.0
10.23,-15360.0,-5248.0,192.0
10.2325,-15360.0,-5248.0,192.0
10.235,-15360.0,-5248.0,192.0
10.2375,-15296.0,-5312.0,256.0
10.24,-15360.0,-5376.0,320.0
10.2425,-15424.0,-5376.0,256.0
10.245,-15360.0,-5376.0,320.0
10.2475,-15360.0,-5376.0,320.0
10.25,-15424.0,-5440.0,320.0
10.2525,-15360.0,-5440.0,256.0
10.255,-15424.0,-5440.0,256.0
10.2575,-15424.0,-5376.0,192.0
10.26,-15488.0,-5376.0,256.0
10.2625,-15424.0,-5376.0,256.0
10.265,-15488.0,-5376.0,256.0
10.2675,-15488.0,-5376.0,256.0
10.27,-15488.0,-5312.0,256.0
10.2725,-15488.0,-5376.0,256.0
10.275,-15488.0,-5312.0,256.0
10.2775,-15488.0,-5248.0,320.0
10.28,-15552.0,-5248.0,256.0
10.2825,-15552.0,-5248.0,256.0
10.285,-15488.0,-5248.0,256.0
10.2875,-15488.0,-5312.0,320.0
