time_stamp,acc_x,acc_y,acc_z
0.0,-14720.0,-7040.0,-256.0
0.0025,-14784.0,-7040.0,-320.0
0.005,-14784.0,-7040.0,-320.0
0.0075,-14784.0,-7104.0,-320.0
0.01,-14848.0,-7104.0,-384.0
0.0125,-14848.0,-7040.0,-320.0
0.015,-14784.0,-7040.0,-320.0
0.0175,-14784.0,-7040.0,-320.0
0.02,-14720.0,-7040.0,-384.0
0.0225,-14784.0,-7168.0,-320.0
0.025,-14784.0,-7104.0,-320.0
0.0275,-14848.0,-7040.0,-256.0
0.03,-14848.0,-7104.0,-256.0
0.0325,-14848.0,-7168.0,-256.0
0.035,-14784.0,-7168.0,-320.0
0.0375,-14848.0,-7104.0,-320.0
0.04,-14848.0,-7104.0,-256.0
0.0425,-14784.0,-7104.0,-256.0
0.045,-14784.0,-7104.0,-256.0
0.0475,-14784.0,-7168.0,-320.0
0.05,-14848.0,-7168.0,-256.0
0.0525,-14848.0,-7168.0,-256.0
0.055,-14848.0,-7232.0,-320.0
0.0575,-14784.0,-7168.0,-320.0
0.06,-14784.0,-7168.0,-320.0
0.0625,-14848.0,-7104.0,-320.0
0.065,-14848.0,-7104.0,-256.0
0.0675,-14784.0,-7168.0,-256.0
0.07,-14848.0,-7104.0,-256.0
0.0725,-14848.0,-7040.0,-256.0
0.075,-14912.0,-7040.0,-320.0
0.0775,-14848.0,-7104.0,-384.0
0.08,-14912.0,-7104.0,-256.0
0.0825,-14912.0,-7168.0,-320.0
0.085,-14912.0,-7232.0,-320.0
0.0875,-14912.0,-7168.0,-320.0
0.09,-14848.0,-7104.0,-384.0
0.0925,-14912.0,-7104.0,-320.0
0.095,-14848.0,-7168.0,-320.0
0.0975,-14912.0,-7104.0,-384.0
0.1,-14912.0,-7104.0,-320.0
0.1025,-14976.0,-7168.0,-384.0
0.105,-14976.0,-7168.0,-384.0
0.1075,-14976.0,-7232.0,-384.0
0.11,-14976.0,-7232.0,-384.0
0.1125,-14912.0,-7232.0,-320.0
0.115,-14912.0,-7232.0,-384.0
0.1175,-14912.0,-7232.0,-384.0
0.12,-14848.0,-7232.0,-320.0
0.1225,-14848.0,-7232.0,-320.0
0.125,-14848.0,-7168.0,-384.0
0.1275,-14848.0,-7104.0,-384.0
0.13,-14784.0,-7168.0,-384.0
0.1325,-14784.0,-7232.0,-384.0
0.135,-14784.0,-7232.0,-384.0
0.1375,-14784.0,-7168.0,-384.0
0.14,-14848.0,-7168.0,-384.0
0.1425,-14848.0,-7168.0,-448.0
0.145,-14848.0,-7168.0,-384.0
0.1475,-14784.0,-7168.0,-384.0
0.15,-14848.0,-7168.0,-384.0
0.1525,-14848.0,-7168.0,-384.0
0.155,-14912.0,-7104.0,-384.0
0.1575,-14784.0,-7168.0,-384.0
0.16,-14848.0,-7168.0,-384.0
0.1625,-14848.0,-7104.0,-256.0
0.165,-14784.0,-7168.0,-320.0
0.1675,-14784.0,-7104.0,-320.0
0.17,-14784.0,-7104.0,-320.0
0.1725,-14784.0,-7104.0,-320.0
0.175,-14784.0,-7104.0,-320.0
0.1775,-14720.0,-7104.0,-384.0
0.18,-14784.0,-7104.0,-320.0
0.1825,-14720.0,-7104.0,-256.0
0.185,-14720.0,-7104.0,-256.0
0.1875,-14720.0,-7104.0,-192.0
0.19,-14656.0,-7104.0,-192.0
0.1925,-14656.0,-7104.0,-256.0
0.195,-14720.0,-7104.0,-256.0
0.1975,-14656.0,-7104.0,-192.0
0.2,-14656.0,-7104.0,-256.0
0.2025,-14720.0,-7168.0,-192.0
0.205,-14720.0,-7168.0,-256.0
0.2075,-14720.0,-7232.0,-192.0
0.21,-14784.0,-7232.0,-192.0
0.2125,-14720.0,-7168.0,-256.0
0.215,-14720.0,-7232.0,-256.0
0.2175,-14720.0,-7168.0,-192.0
0.22,-14784.0,-7168.0,-256.0
0.2225,-14720.0,-7168.0,-256.0
0.225,-14784.0,-7168.0,-320.0
0.2275,-14784.0,-7168.0,-256.0
0.23,-14784.0,-7168.0,-256.0
0.2325,-14784.0,-7168.0,-192.0
0.235,-14720.0,-7168.0,-256.0
0.2375,-14784.0,-7168.0,-320.0
0.24,-14784.0,-7168.0,-256.0
0.2425,-14720.0,-7168.0,-256.0
0.245,-14784.0,-7104.0,-256.0
0.2475,-14720.0,-7168.0,-256.0
0.25,-14784.0,-7232.0,-256.0
0.2525,-14720.0,-7168.0,-192.0
0.255,-14720.0,-7168.0,-192.0
0.2575,-14720.0,-7168.0,-256.0
0.26,-14720.0,-7168.0,-192.0
0.2625,-14720.0,-7168.0,-192.0
0.265,-14784.0,-7168.0,-256.0
0.2675,-14784.0,-7168.0,-256.0
0.27,-14784.0,-7168.0,-256.0
0.2725,-14720.0,-7168.0,-192.0
0.275,-14720.0,-7168.0,-192.0
0.2775,-14720.0,-7232.0,-192.0
0.28,-14720.0,-7232.0,-192.0
0.2825,-14720.0,-7232.0,-256.0
0.285,-14720.0,-7232.0,-256.0
0.2875,-14720.0,-7168.0,-256.0
0.29,-14656.0,-7168.0,-256.0
0.2925,-14656.0,-7168.0,-256.0
0.295,-14720.0,-7232.0,-320.0
0.2975,-14720.0,-7232.0,-256.0
0.3,-14784.0,-7232.0,-192.0
0.3025,-14720.0,-7232.0,-192.0
0.305,-14720.0,-7232.0,-256.0
0.3075,-14720.0,-7232.0,-256.0
0.31,-14720.0,-7296.0,-192.0
0.3125,-14784.0,-7168.0,-256.0
0.315,-14848.0,-7168.0,-192.0
0.3175,-14848.0,-7168.0,-192.0
0.32,-14784.0,-7168.0,-256.0
0.3225,-14848.0,-7168.0,-192.0
0.325,-14784.0,-7168.0,-192.0
0.3275,-14784.0,-7168.0,-192.0
0.33,-14784.0,-7168.0,-192.0
0.3325,-14784.0,-7168.0,-192.0
0.335,-14784.0,-7232.0,-192.0
0.3375,-14784.0,-7232.0,-192.0
0.34,-14784.0,-7232.0,-192.0
0.3425,-14784.0,-7232.0,-192.0
0.345,-14784.0,-7232.0,-256.0
0.3475,-14784.0,-7232.0,-256.0
0.35,-14848.0,-7232.0,-256.0
0.3525,-14784.0,-7232.0,-320.0
0.355,-14784.0,-7232.0,-256.0
0.3575,-14784.0,-7232.0,-192.0
0.36,-14784.0,-7168.0,-256.0
0.3625,-14784.0,-7168.0,-192.0
0.365,-14784.0,-7168.0,-256.0
0.3675,-14784.0,-7168.0,-256.0
0.37,-14784.0,-7168.0,-192.0
0.3725,-14784.0,-7104.0,-192.0
0.375,-14720.0,-7040.0,-192.0
0.3775,-14784.0,-7104.0,-192.0
0.38,-14784.0,-7104.0,-192.0
0.3825,-14784.0,-7104.0,-128.0
0.385,-14784.0,-7104.0,-192.0
0.3875,-14720.0,-7104.0,-128.0
0.39,-14720.0,-7040.0,-128.0
0.3925,-14784.0,-7104.0,-128.0
0.395,-14848.0,-7104.0,-192.0
0.3975,-14784.0,-7104.0,-256.0
0.4,-14848.0,-7104.0,-256.0
0.4025,-14784.0,-7104.0,-192.0
0.405,-14848.0,-7104.0,-192.0
0.4075,-14848.0,-7104.0,-192.0
0.41,-14848.0,-7040.0,-128.0
0.4125,-14848.0,-7104.0,-128.0
0.415,-14912.0,-7104.0,-64.0
0.4175,-14912.0,-7168.0,-128.0
0.42,-14848.0,-7104.0,-128.0
0.4225,-14848.0,-7040.0,-128.0
0.425,-14848.0,-6976.0,-192.0
0.4275,-14912.0,-7040.0,-128.0
0.43,-14848.0,-7104.0,-128.0
0.4325,-14848.0,-7104.0,-64.0
0.435,-14784.0,-7040.0,-128.0
0.4375,-14720.0,-7040.0,-192.0
0.44,-14784.0,-7104.0,-192.0
0.4425,-14784.0,-7104.0,-128.0
0.445,-14784.0,-7104.0,-192.0
0.4475,-14784.0,-7040.0,-192.0
0.45,-14848.0,-7040.0,-192.0
0.4525,-14848.0,-7040.0,-192.0
0.455,-14848.0,-7040.0,-192.0
0.4575,-14848.0,-7040.0,-128.0
0.46,-14784.0,-7040.0,-128.0
0.4625,-14784.0,-6976.0,-256.0
0.465,-14784.0,-7040.0,-256.0
0.4675,-14784.0,-7040.0,-192.0
0.47,-14784.0,-7104.0,-192.0
0.4725,-14720.0,-7040.0,-192.0
0.475,-14784.0,-7040.0,-128.0
0.4775,-14720.0,-7040.0,-64.0
0.48,-14848.0,-6976.0,-128.0
0.4825,-14848.0,-6976.0,-128.0
0.485,-14848.0,-7040.0,-128.0
0.4875,-14848.0,-7040.0,-128.0
0.49,-14848.0,-7104.0,-128.0
0.4925,-14848.0,-7040.0,-128.0
0.495,-14848.0,-7104.0,-64.0
0.4975,-14848.0,-7040.0,-128.0
0.5,-14848.0,-7104.0,-128.0
0.5025,-14848.0,-7104.0,-192.0
0.505,-14848.0,-7168.0,-192.0
0.5075,-14848.0,-7104.0,-192.0
0.51,-14848.0,-7104.0,-192.0
0.5125,-14784.0,-7104.0,-128.0
0.515,-14784.0,-7104.0,-128.0
0.5175,-14848.0,-7040.0,-192.0
0.52,-14848.0,-7040.0,-128.0
0.5225,-14784.0,-7040.0,-192.0
0.525,-14784.0,-7040.0,-192.0
0.5275,-14784.0,-7040.0,-192.0
0.53,-14848.0,-7040.0,-192.0
0.5325,-14784.0,-7040.0,-128.0
0.535,-14848.0,-7040.0,-192.0
0.5375,-14848.0,-7040.0,-192.0
0.54,-14848.0,-7040.0,-192.0
0.5425,-14848.0,-7040.0,-192.0
0.545,-14784.0,-7104.0,-192.0
0.5475,-14848.0,-7040.0,-256.0
0.55,-14848.0,-7040.0,-192.0
0.5525,-14784.0,-7040.0,-192.0
0.555,-14784.0,-7040.0,-192.0
0.5575,-14784.0,-7040.0,-128.0
0.56,-14848.0,-6976.0,-192.0
0.5625,-14784.0,-6976.0,-192.0
0.565,-14784.0,-7040.0,-256.0
0.5675,-14784.0,-7040.0,-256.0
0.57,-14848.0,-7040.0,-192.0
0.5725,-14848.0,-6976.0,-192.0
0.575,-14848.0,-7040.0,-192.0
0.5775,-14784.0,-7040.0,-256.0
0.58,-14848.0,-7040.0,-192.0
0.5825,-14848.0,-7040.0,-192.0
0.585,-14784.0,-7040.0,-256.0
0.5875,-14848.0,-7040.0,-320.0
0.59,-14912.0,-7040.0,-256.0
0.5925,-14976.0,-6976.0,-192.0
0.595,-14912.0,-6912.0,-256.0
0.5975,-14912.0,-6976.0,-192.0
0.6,-14912.0,-6976.0,-192.0
0.6025,-14976.0,-6976.0,-192.0
0.605,-14976.0,-6976.0,-256.0
0.6075,-14976.0,-7040.0,-192.0
0.61,-15040.0,-7040.0,-256.0
0.6125,-14976.0,-7040.0,-256.0
0.615,-15040.0,-7104.0,-256.0
0.6175,-15040.0,-7168.0,-320.0
0.62,-15040.0,-7168.0,-320.0
0.6225,-15040.0,-7168.0,-384.0
0.625,-15040.0,-7104.0,-256.0
0.6275,-15040.0,-7104.0,-256.0
0.63,-14976.0,-7104.0,-256.0
0.6325,-14976.0,-7104.0,-256.0
0.635,-14976.0,-7104.0,-256.0
0.6375,-14912.0,-7168.0,-256.0
0.64,-14912.0,-7104.0,-256.0
0.6425,-14912.0,-7104.0,-320.0
0.645,-14912.0,-7104.0,-320.0
0.6475,-14912.0,-7104.0,-320.0
0.65,-14848.0,-7104.0,-320.0
0.6525,-14848.0,-7168.0,-256.0
0.655,-14848.0,-7168.0,-192.0
0.6575,-14848.0,-7168.0,-192.0
0.66,-14848.0,-7104.0,-256.0
0.6625,-14848.0,-7168.0,-192.0
0.665,-14848.0,-7168.0,-256.0
0.6675,-14784.0,-7168.0,-256.0
0.67,-14784.0,-7168.0,-256.0
0.6725,-14784.0,-7168.0,-256.0
0.675,-14720.0,-7104.0,-320.0
0.6775,-14720.0,-7104.0,-256.0
0.68,-14784.0,-7040.0,-256.0
0.6825,-14720.0,-7040.0,-256.0
0.685,-14720.0,-7040.0,-256.0
0.6875,-14720.0,-7040.0,-256.0
0.69,-14720.0,-7104.0,-256.0
0.6925,-14720.0,-7104.0,-128.0
0.695,-14720.0,-7104.0,-128.0
0.6975,-14720.0,-7104.0,-192.0
0.7,-14720.0,-7040.0,-128.0
0.7025,-14720.0,-6976.0,-128.0
0.705,-14784.0,-7040.0,-128.0
0.7075,-14784.0,-7040.0,-128.0
0.71,-14720.0,-7040.0,-192.0
0.7125,-14720.0,-7040.0,-192.0
0.715,-14720.0,-7040.0,-192.0
0.7175,-14720.0,-7040.0,-192.0
0.72,-14784.0,-7040.0,-128.0
0.7225,-14848.0,-7040.0,-128.0
0.725,-14848.0,-7168.0,-128.0
0.7275,-14784.0,-7104.0,-128.0
0.73,-14848.0,-7104.0,-128.0
0.7325,-14848.0,-7168.0,-128.0
0.735,-14848.0,-7104.0,-128.0
0.7375,-14912.0,-7168.0,-128.0
0.74,-14976.0,-7168.0,-128.0
0.7425,-14976.0,-7168.0,-192.0
0.745,-14912.0,-7232.0,-192.0
0.7475,-14912.0,-7232.0,-192.0
0.75,-14976.0,-7232.0,-192.0
0.7525,-14976.0,-7168.0,-192.0
0.755,-14976.0,-7168.0,-192.0
0.7575,-14976.0,-7104.0,-256.0
0.76,-14976.0,-7104.0,-192.0
0.7625,-14976.0,-7168.0,-192.0
0.765,-14976.0,-7168.0,-192.0
0.7675,-14976.0,-7232.0,-192.0
0.77,-14976.0,-7168.0,-192.0
0.7725,-15040.0,-7232.0,-128.0
0.775,-15040.0,-7232.0,-128.0
0.7775,-15040.0,-7296.0,-128.0
0.78,-15040.0,-7296.0,-128.0
0.7825,-15040.0,-7296.0,-128.0
0.785,-15040.0,-7360.0,-128.0
0.7875,-15040.0,-7360.0,-128.0
0.79,-14976.0,-7424.0,-128.0
0.7925,-14976.0,-7360.0,-128.0
0.795,-14976.0,-7424.0,-128.0
0.7975,-14976.0,-7360.0,-128.0
0.8,-14976.0,-7360.0,-128.0
0.8025,-14976.0,-7360.0,-128.0
0.805,-14976.0,-7360.0,-128.0
0.8075,-14912.0,-7360.0,-64.0
0.81,-14912.0,-7360.0,-64.0
0.8125,-14912.0,-7424.0,-64.0
0.815,-14912.0,-7424.0,-64.0
0.8175,-14912.0,-7424.0,-64.0
0.82,-14912.0,-7424.0,-64.0
0.8225,-14912.0,-7488.0,-128.0
0.825,-14912.0,-7424.0,-192.0
0.8275,-14848.0,-7488.0,-64.0
0.83,-14848.0,-7488.0,-128.0
0.8325,-14848.0,-7424.0,-128.0
0.835,-14848.0,-7424.0,-128.0
0.8375,-14848.0,-7424.0,-128.0
0.84,-14784.0,-7424.0,-128.0
0.8425,-14784.0,-7488.0,-128.0
0.845,-14784.0,-7488.0,-128.0
0.8475,-14784.0,-7424.0,-192.0
0.85,-14784.0,-7488.0,-128.0
0.8525,-14720.0,-7424.0,-128.0
0.855,-14720.0,-7424.0,-128.0
0.8575,-14720.0,-7424.0,-128.0
0.86,-14720.0,-7488.0,-192.0
0.8625,-14720.0,-7488.0,-128.0
0.865,-14720.0,-7488.0,-64.0
0.8675,-14720.0,-7488.0,-128.0
0.87,-14784.0,-7424.0,-192.0
0.8725,-14720.0,-7424.0,-128.0
0.875,-14784.0,-7488.0,-128.0
0.8775,-14784.0,-7424.0,-128.0
0.88,-14720.0,-7360.0,-128.0
0.8825,-14720.0,-7360.0,-64.0
0.885,-14784.0,-7360.0,-64.0
0.8875,-14720.0,-7296.0,-128.0
0.89,-14784.0,-7296.0,-128.0
0.8925,-14784.0,-7296.0,-128.0
0.895,-14784.0,-7296.0,-128.0
0.8975,-14784.0,-7296.0,-64.0
0.9,-14720.0,-7296.0,-64.0
0.9025,-14720.0,-7232.0,-64.0
0.905,-14720.0,-7232.0,0.0
0.9075,-14720.0,-7232.0,0.0
0.91,-14720.0,-7232.0,-128.0
0.9125,-14720.0,-7232.0,-64.0
0.915,-14656.0,-7232.0,-64.0
0.9175,-14656.0,-7168.0,-64.0
0.92,-14720.0,-7168.0,-64.0
0.9225,-14656.0,-7104.0,-64.0
0.925,-14656.0,-7168.0,0.0
0.9275,-14720.0,-7104.0,-64.0
0.93,-14720.0,-7104.0,0.0
0.9325,-14720.0,-7040.0,0.0
0.935,-14656.0,-7040.0,-64.0
0.9375,-14656.0,-7040.0,0.0
0.94,-14720.0,-7040.0,-64.0
0.9425,-14720.0,-7104.0,0.0
0.945,-14656.0,-7040.0,-64.0
0.9475,-14656.0,-7040.0,-64.0
0.95,-14720.0,-7040.0,-64.0
0.9525,-14720.0,-7040.0,-64.0
0.955,-14720.0,-7104.0,-64.0
0.9575,-14720.0,-7040.0,-64.0
0.96,-14720.0,-6976.0,-128.0
0.9625,-14720.0,-6976.0,-128.0
0.965,-14720.0,-6912.0,-128.0
0.9675,-14784.0,-6912.0,-128.0
0.97,-14784.0,-6912.0,-128.0
0.9725,-14720.0,-6848.0,-192.0
0.975,-14720.0,-6912.0,-128.0
0.9775,-14784.0,-6912.0,-128.0
0.98,-14784.0,-6848.0,-64.0
0.9825,-14848.0,-6848.0,-128.0
0.985,-14848.0,-6848.0,-128.0
0.9875,-14784.0,-6848.0,-128.0
0.99,-14848.0,-6848.0,-128.0
0.9925,-14784.0,-6848.0,-128.0
0.995,-14848.0,-6848.0,-192.0
0.9975,-14784.0,-6848.0,-128.0
1.0,-14848.0,-6784.0,-128.0
1.0025,-14848.0,-6848.0,-128.0
1.005,-14848.0,-6848.0,-128.0
1.0075,-14848.0,-6848.0,-128.0
1.01,-14848.0,-6848.0,-192.0
1.0125,-14848.0,-6848.0,-192.0
1.015,-14912.0,-6912.0,-192.0
1.0175,-14912.0,-6848.0,-256.0
1.02,-14912.0,-6848.0,-192.0
1.0225,-14976.0,-6784.0,-192.0
1.025,-14912.0,-6784.0,-192.0
1.0275,-14848.0,-6784.0,-192.0
1.03,-14912.0,-6784.0,-192.0
1.0325,-14912.0,-6784.0,-256.0
1.035,-14912.0,-6784.0,-256.0
1.0375,-14976.0,-6784.0,-256.0
1.04,-14912.0,-6848.0,-256.0
1.0425,-14912.0,-6848.0,-256.0
1.045,-14912.0,-6784.0,-192.0
1.0475,-14912.0,-6720.0,-192.0
1.05,-14912.0,-6784.0,-192.0
1.0525,-14976.0,-6784.0,-256.0
1.055,-14912.0,-6784.0,-128.0
1.0575,-14912.0,-6784.0,-192.0
1.06,-14912.0,-6848.0,-192.0
1.0625,-14912.0,-6784.0,-256.0
1.065,-14912.0,-6784.0,-192.0
1.0675,-14848.0,-6720.0,-192.0
1.07,-14848.0,-6784.0,-192.0
1.0725,-14848.0,-6720.0,-192.0
1.075,-14912.0,-6720.0,-192.0
1.0775,-14848.0,-6784.0,-192.0
1.08,-14848.0,-6784.0,-192.0
1.0825,-14848.0,-6784.0,-192.0
1.085,-14848.0,-6784.0,-192.0
1.0875,-14912.0,-6784.0,-192.0
1.09,-14912.0,-6784.0,-256.0
1.0925,-14912.0,-6784.0,-256.0
1.095,-14912.0,-6784.0,-256.0
1.0975,-14912.0,-6784.0,-256.0
1.1,-14976.0,-6720.0,-192.0
1.1025,-14912.0,-6720.0,-256.0
1.105,-14912.0,-6720.0,-256.0
1.1075,-14848.0,-6784.0,-192.0
1.11,-14912.0,-6848.0,-192.0
1.1125,-14976.0,-6784.0,-256.0
1.115,-14912.0,-6784.0,-256.0
1.1175,-14912.0,-6784.0,-256.0
1.12,-14912.0,-6720.0,-256.0
1.1225,-14912.0,-6784.0,-192.0
1.125,-14912.0,-6784.0,-192.0
1.1275,-14912.0,-6848.0,-192.0
1.13,-14912.0,-6848.0,-256.0
1.1325,-14912.0,-6912.0,-256.0
1.135,-14912.0,-6912.0,-256.0
1.1375,-14848.0,-6912.0,-256.0
1.14,-14848.0,-6848.0,-256.0
1.1425,-14912.0,-6912.0,-192.0
1.145,-14976.0,-6912.0,-192.0
1.1475,-14912.0,-6848.0,-256.0
1.15,-14848.0,-6912.0,-256.0
1.1525,-14912.0,-6912.0,-256.0
1.155,-14912.0,-6848.0,-256.0
1.1575,-14848.0,-6848.0,-128.0
1.16,-14912.0,-6912.0,-192.0
1.1625,-14848.0,-6912.0,-192.0
1.165,-14848.0,-6912.0,-256.0
1.1675,-14848.0,-6976.0,-192.0
1.17,-14912.0,-7040.0,-192.0
1.1725,-14848.0,-6976.0,-128.0
1.175,-14848.0,-6912.0,-128.0
1.1775,-14848.0,-6976.0,-192.0
1.18,-14848.0,-6976.0,-192.0
1.1825,-14848.0,-6976.0,-256.0
1.185,-14784.0,-6976.0,-192.0
1.1875,-14784.0,-6976.0,-192.0
1.19,-14848.0,-7040.0,-256.0
1.1925,-14848.0,-7040.0,-256.0
1.195,-14848.0,-6976.0,-192.0
1.1975,-14848.0,-6976.0,-192.0
1.2,-14848.0,-6976.0,-192.0
1.2025,-14848.0,-7040.0,-256.0
1.205,-14784.0,-7040.0,-256.0
1.2075,-14848.0,-7040.0,-256.0
1.21,-14848.0,-7040.0,-192.0
1.2125,-14848.0,-7104.0,-192.0
1.215,-14848.0,-7104.0,-192.0
1.2175,-14848.0,-7104.0,-192.0
1.22,-14848.0,-7104.0,-128.0
1.2225,-14848.0,-7104.0,-128.0
1.225,-14784.0,-7104.0,-128.0
1.2275,-14784.0,-7232.0,-128.0
1.23,-14784.0,-7168.0,-64.0
1.2325,-14784.0,-7168.0,-64.0
1.235,-14848.0,-7168.0,-64.0
1.2375,-14848.0,-7104.0,-128.0
1.24,-14784.0,-7168.0,-192.0
1.2425,-14848.0,-7104.0,-192.0
1.245,-14784.0,-7168.0,-192.0
1.2475,-14784.0,-7168.0,-192.0
1.25,-14784.0,-7168.0,-128.0
1.2525,-14784.0,-7168.0,-128.0
1.255,-14784.0,-7168.0,-192.0
1.2575,-14784.0,-7168.0,-192.0
1.26,-14848.0,-7232.0,-256.0
1.2625,-14848.0,-7232.0,-192.0
1.265,-14848.0,-7168.0,-192.0
1.2675,-14976.0,-7296.0,-192.0
1.27,-14976.0,-7232.0,-192.0
1.2725,-14976.0,-7296.0,-256.0
1.275,-14912.0,-7296.0,-256.0
1.2775,-14912.0,-7296.0,-256.0
1.28,-14912.0,-7296.0,-192.0
1.2825,-14912.0,-7296.0,-192.0
1.285,-14912.0,-7360.0,-256.0
1.2875,-14912.0,-7296.0,-192.0
1.29,-14848.0,-7296.0,-128.0
1.2925,-14848.0,-7360.0,-192.0
1.295,-14848.0,-7360.0,-128.0
1.2975,-14848.0,-7360.0,-192.0
1.3,-14784.0,-7296.0,-192.0
1.3025,-14784.0,-7296.0,-64.0
1.305,-14720.0,-7360.0,-64.0
1.3075,-14720.0,-7296.0,-128.0
1.31,-14720.0,-7232.0,0.0
1.3125,-14784.0,-7232.0,-64.0
1.315,-14784.0,-7168.0,-64.0
1.3175,-14720.0,-7232.0,-64.0
1.32,-14720.0,-7232.0,-64.0
1.3225,-14720.0,-7232.0,-128.0
1.325,-14720.0,-7168.0,-192.0
1.3275,-14656.0,-7232.0,-192.0
1.33,-14720.0,-7232.0,-192.0
1.3325,-14720.0,-7296.0,-128.0
1.335,-14720.0,-7360.0,-192.0
1.3375,-14784.0,-7296.0,-192.0
1.34,-14784.0,-7296.0,-128.0
1.3425,-14784.0,-7232.0,-192.0
1.345,-14784.0,-7296.0,-192.0
1.3475,-14784.0,-7296.0,-128.0
1.35,-14784.0,-7296.0,-128.0
1.3525,-14720.0,-7296.0,-128.0
1.355,-14720.0,-7296.0,-128.0
1.3575,-14720.0,-7296.0,-128.0
1.36,-14784.0,-7296.0,-64.0
1.3625,-14848.0,-7232.0,-128.0
1.365,-14848.0,-7232.0,-128.0
1.3675,-14912.0,-7232.0,-128.0
1.37,-14848.0,-7232.0,-192.0
1.3725,-14848.0,-7168.0,-128.0
1.375,-14912.0,-7232.0,-128.0
1.3775,-14848.0,-7232.0,-192.0
1.38,-14848.0,-7232.0,-192.0
1.3825,-14912.0,-7232.0,-128.0
1.385,-14912.0,-7232.0,-128.0
1.3875,-14912.0,-7296.0,-128.0
1.39,-14912.0,-7296.0,-192.0
1.3925,-14912.0,-7232.0,-192.0
1.395,-14912.0,-7232.0,-128.0
1.3975,-14976.0,-7232.0,-128.0
1.4,-14976.0,-7232.0,-192.0
1.4025,-15040.0,-7232.0,-192.0
1.405,-15040.0,-7232.0,-256.0
1.4075,-15040.0,-7232.0,-192.0
1.41,-15040.0,-7168.0,-256.0
1.4125,-14976.0,-7232.0,-320.0
1.415,-14976.0,-7168.0,-256.0
1.4175,-14976.0,-7168.0,-192.0
1.42,-14976.0,-7104.0,-256.0
1.4225,-14976.0,-7104.0,-192.0
1.425,-15040.0,-7168.0,-192.0
1.4275,-15040.0,-7168.0,-128.0
1.43,-15040.0,-7104.0,-192.0
1.4325,-14976.0,-7168.0,-192.0
1.435,-14976.0,-7104.0,-192.0
1.4375,-14976.0,-7104.0,-192.0
1.44,-15040.0,-7168.0,-256.0
1.4425,-14976.0,-7104.0,-256.0
1.445,-14912.0,-7104.0,-256.0
1.4475,-14976.0,-7168.0,-192.0
1.45,-14976.0,-7168.0,-256.0
1.4525,-14976.0,-7168.0,-192.0
1.455,-14912.0,-7104.0,-192.0
1.4575,-14912.0,-7104.0,-192.0
1.46,-14912.0,-7104.0,-256.0
1.4625,-14848.0,-7104.0,-256.0
1.465,-14848.0,-7104.0,-256.0
1.4675,-14848.0,-7104.0,-256.0
1.47,-14848.0,-7104.0,-320.0
1.4725,-14848.0,-7104.0,-256.0
1.475,-14784.0,-7104.0,-256.0
1.4775,-14848.0,-7040.0,-320.0
1.48,-14848.0,-7104.0,-320.0
1.4825,-14912.0,-7040.0,-320.0
1.485,-14912.0,-7040.0,-320.0
1.4875,-14912.0,-7040.0,-256.0
1.49,-14912.0,-7040.0,-256.0
1.4925,-14848.0,-7104.0,-320.0
1.495,-14784.0,-7040.0,-320.0
1.4975,-14784.0,-7040.0,-320.0
1.5,-14848.0,-7104.0,-256.0
1.5025,-14912.0,-7040.0,-320.0
1.505,-14912.0,-7040.0,-256.0
1.5075,-14912.0,-7104.0,-320.0
1.51,-14848.0,-7104.0,-320.0
1.5125,-14912.0,-7040.0,-256.0
1.515,-14848.0,-7040.0,-320.0
1.5175,-14848.0,-7040.0,-256.0
1.52,-14848.0,-7104.0,-320.0
1.5225,-14848.0,-7040.0,-320.0
1.525,-14848.0,-7040.0,-384.0
1.5275,-14912.0,-7040.0,-384.0
1.53,-14848.0,-7040.0,-320.0
1.5325,-14912.0,-7040.0,-320.0
1.535,-14912.0,-7040.0,-384.0
1.5375,-14912.0,-7040.0,-320.0
1.54,-14912.0,-7104.0,-320.0
1.5425,-14912.0,-7040.0,-320.0
1.545,-14912.0,-7040.0,-320.0
1.5475,-14912.0,-7104.0,-384.0
1.55,-14976.0,-7104.0,-320.0
1.5525,-14976.0,-7104.0,-320.0
1.555,-14976.0,-7040.0,-320.0
1.5575,-14976.0,-7104.0,-320.0
1.56,-14912.0,-7168.0,-256.0
1.5625,-14976.0,-7104.0,-256.0
1.565,-14976.0,-7040.0,-256.0
1.5675,-14912.0,-7104.0,-256.0
1.57,-14976.0,-7104.0,-320.0
1.5725,-14976.0,-7104.0,-256.0
1.575,-14912.0,-7040.0,-192.0
1.5775,-14912.0,-7104.0,-192.0
1.58,-14912.0,-7040.0,-256.0
1.5825,-14912.0,-7040.0,-320.0
1.585,-14912.0,-7040.0,-320.0
1.5875,-14912.0,-7040.0,-320.0
1.59,-14912.0,-7040.0,-320.0
1.5925,-14848.0,-7104.0,-320.0
1.595,-14912.0,-7104.0,-320.0
1.5975,-15040.0,-7104.0,-384.0
1.6,-14976.0,-7040.0,-320.0
1.6025,-14912.0,-7040.0,-320.0
1.605,-14976.0,-6976.0,-320.0
1.6075,-14912.0,-7040.0,-320.0
1.61,-14976.0,-6976.0,-256.0
1.6125,-14912.0,-6976.0,-320.0
1.615,-14912.0,-6976.0,-384.0
1.6175,-14976.0,-6976.0,-320.0
1.62,-14912.0,-6976.0,-320.0
1.6225,-14912.0,-6976.0,-320.0
1.625,-14912.0,-6912.0,-320.0
1.6275,-14912.0,-6976.0,-192.0
1.63,-14848.0,-6976.0,-256.0
1.6325,-14848.0,-6976.0,-256.0
1.635,-14848.0,-6976.0,-256.0
1.6375,-14848.0,-6912.0,-192.0
1.64,-14912.0,-6912.0,-192.0
1.6425,-14912.0,-6976.0,-128.0
1.645,-14912.0,-6912.0,-128.0
1.6475,-14912.0,-6912.0,-192.0
1.65,-14912.0,-6848.0,-192.0
1.6525,-14848.0,-6912.0,-192.0
1.655,-14848.0,-6848.0,-192.0
1.6575,-14848.0,-6848.0,-128.0
1.66,-14848.0,-6848.0,-192.0
1.6625,-14848.0,-6848.0,-192.0
1.665,-14912.0,-6848.0,-192.0
1.6675,-14848.0,-6848.0,-192.0
1.67,-14848.0,-6848.0,-256.0
1.6725,-14848.0,-6848.0,-320.0
1.675,-14848.0,-6848.0,-256.0
1.6775,-14848.0,-6912.0,-192.0
1.68,-14976.0,-6912.0,-192.0
1.6825,-14976.0,-6848.0,-128.0
1.685,-14976.0,-6848.0,-192.0
1.6875,-15040.0,-6848.0,-192.0
1.69,-14912.0,-6848.0,-192.0
1.6925,-14976.0,-6848.0,-192.0
1.695,-14912.0,-6848.0,-128.0
1.6975,-15040.0,-6848.0,-128.0
1.7,-14976.0,-6848.0,-192.0
1.7025,-14976.0,-6784.0,-256.0
1.705,-14976.0,-6848.0,-192.0
1.7075,-15040.0,-6784.0,-192.0
1.71,-15040.0,-6784.0,-192.0
1.7125,-15040.0,-6848.0,-192.0
1.715,-15040.0,-6848.0,-256.0
1.7175,-14976.0,-6784.0,-192.0
1.72,-15040.0,-6848.0,-192.0
1.7225,-15040.0,-6848.0,-192.0
1.725,-15040.0,-6784.0,-192.0
1.7275,-15040.0,-6784.0,-192.0
1.73,-15040.0,-6784.0,-128.0
1.7325,-15040.0,-6848.0,-192.0
1.735,-14976.0,-6848.0,-192.0
1.7375,-14976.0,-6848.0,-128.0
1.74,-14976.0,-6912.0,-128.0
1.7425,-15040.0,-6912.0,-128.0
1.745,-15040.0,-6848.0,-192.0
1.7475,-15040.0,-6912.0,-128.0
1.75,-15040.0,-6912.0,-128.0
1.7525,-15040.0,-6848.0,-192.0
1.755,-15104.0,-6848.0,-256.0
1.7575,-15040.0,-6912.0,-256.0
1.76,-15104.0,-6848.0,-192.0
1.7625,-15040.0,-6912.0,-192.0
1.765,-15040.0,-6912.0,-256.0
1.7675,-15104.0,-6912.0,-192.0
1.77,-15040.0,-6912.0,-192.0
1.7725,-15040.0,-6912.0,-128.0
1.775,-15040.0,-6976.0,-128.0
1.7775,-15040.0,-6912.0,-128.0
1.78,-15040.0,-6912.0,-128.0
1.7825,-14976.0,-6912.0,-128.0
1.785,-14976.0,-6848.0,-128.0
1.7875,-15040.0,-6912.0,-128.0
1.79,-15040.0,-6912.0,-128.0
1.7925,-14976.0,-6912.0,-128.0
1.795,-14912.0,-6912.0,-128.0
1.7975,-15040.0,-6912.0,-192.0
1.8,-14976.0,-6912.0,-128.0
1.8025,-15040.0,-6912.0,-192.0
1.805,-14976.0,-6912.0,-192.0
1.8075,-14976.0,-6848.0,-192.0
1.81,-14976.0,-6912.0,-192.0
1.8125,-14976.0,-6848.0,-192.0
1.815,-14976.0,-6912.0,-128.0
1.8175,-14912.0,-6976.0,-128.0
1.82,-14912.0,-6912.0,-192.0
1.8225,-14912.0,-6912.0,-64.0
1.825,-14912.0,-6848.0,-128.0
1.8275,-14912.0,-6848.0,-128.0
1.83,-14912.0,-6912.0,-192.0
1.8325,-14976.0,-6912.0,-192.0
1.835,-14976.0,-6912.0,-192.0
1.8375,-14912.0,-6912.0,-192.0
1.84,-14976.0,-6912.0,-128.0
1.8425,-14912.0,-6912.0,-128.0
1.845,-14912.0,-6848.0,-128.0
1.8475,-14912.0,-6848.0,-192.0
1.85,-14848.0,-6848.0,-128.0
1.8525,-14848.0,-6848.0,-128.0
1.855,-14912.0,-6912.0,-64.0
1.8575,-14976.0,-6848.0,-64.0
1.86,-14976.0,-6848.0,-128.0
1.8625,-14976.0,-6848.0,-128.0
1.865,-14976.0,-6848.0,-128.0
1.8675,-14976.0,-6784.0,-64.0
1.87,-15040.0,-6848.0,-128.0
1.8725,-14976.0,-6848.0,-128.0
1.875,-14976.0,-6912.0,-128.0
1.8775,-14976.0,-6912.0,-64.0
1.88,-15040.0,-6848.0,0.0
1.8825,-14912.0,-6912.0,-128.0
1.885,-14912.0,-6848.0,-64.0
1.8875,-14912.0,-6912.0,-64.0
1.89,-14976.0,-6912.0,-64.0
1.8925,-14976.0,-6912.0,-64.0
1.895,-14976.0,-6848.0,-128.0
1.8975,-14976.0,-6912.0,-128.0
1.9,-14976.0,-6848.0,-128.0
1.9025,-14912.0,-6976.0,-192.0
1.905,-14976.0,-6848.0,-128.0
1.9075,-14976.0,-6912.0,-128.0
1.91,-15040.0,-6912.0,-192.0
1.9125,-14976.0,-6912.0,-128.0
1.915,-14976.0,-6976.0,-64.0
1.9175,-14912.0,-6912.0,-128.0
1.92,-14976.0,-6912.0,-192.0
1.9225,-14976.0,-6848.0,-128.0
1.925,-14976.0,-6848.0,-128.0
1.9275,-14976.0,-6848.0,-192.0
1.93,-15040.0,-6848.0,-256.0
1.9325,-14976.0,-6848.0,-256.0
1.935,-15040.0,-6912.0,-256.0
1.9375,-14976.0,-6912.0,-192.0
1.94,-14976.0,-6912.0,-256.0
1.9425,-15040.0,-6912.0,-192.0
1.945,-15040.0,-6912.0,-192.0
1.9475,-15040.0,-6912.0,-192.0
1.95,-14976.0,-6912.0,-128.0
1.9525,-15040.0,-6976.0,-128.0
1.955,-15040.0,-7040.0,-64.0
1.9575,-15040.0,-6976.0,-128.0
1.96,-14976.0,-6976.0,-64.0
1.9625,-14912.0,-6976.0,-128.0
1.965,-14912.0,-6976.0,-192.0
1.9675,-14912.0,-6976.0,-192.0
1.97,-14912.0,-6976.0,-192.0
1.9725,-14848.0,-6912.0,-64.0
1.975,-14848.0,-6912.0,-128.0
1.9775,-14848.0,-6912.0,-128.0
1.98,-14848.0,-6976.0,-128.0
1.9825,-14848.0,-6912.0,-128.0
1.985,-14848.0,-6912.0,-128.0
1.9875,-14848.0,-6912.0,-128.0
1.99,-14848.0,-6848.0,-128.0
1.9925,-14848.0,-6912.0,-192.0
1.995,-14784.0,-6912.0,-192.0
1.9975,-14848.0,-6912.0,-192.0
2.0,-14784.0,-6848.0,-256.0
2.0025,-14848.0,-6848.0,-256.0
2.005,-14848.0,-6848.0,-256.0
2.0075,-14912.0,-6848.0,-192.0
2.01,-14912.0,-6912.0,-256.0
2.0125,-14848.0,-6912.0,-192.0
2.015,-14848.0,-6848.0,-192.0
2.0175,-14848.0,-6848.0,-192.0
2.02,-14912.0,-6848.0,-256.0
2.0225,-14976.0,-6784.0,-192.0
2.025,-14976.0,-6784.0,-256.0
2.0275,-14912.0,-6784.0,-128.0
2.03,-14912.0,-6784.0,-128.0
2.0325,-14912.0,-6784.0,-128.0
2.035,-14912.0,-6784.0,-192.0
2.0375,-14912.0,-6848.0,-192.0
2.04,-14912.0,-6848.0,-192.0
2.0425,-14912.0,-6848.0,-128.0
2.045,-14912.0,-6784.0,-128.0
2.0475,-14976.0,-6720.0,-128.0
2.05,-14976.0,-6720.0,-192.0
2.0525,-14976.0,-6720.0,-192.0
2.055,-14976.0,-6784.0,-128.0
2.0575,-14976.0,-6720.0,-128.0
2.06,-15040.0,-6784.0,-128.0
2.0625,-15040.0,-6784.0,-64.0
2.065,-15040.0,-6720.0,-128.0
2.0675,-14976.0,-6720.0,-128.0
2.07,-15040.0,-6656.0,-64.0
2.0725,-15104.0,-6656.0,-192.0
2.075,-15040.0,-6784.0,-192.0
2.0775,-15104.0,-6720.0,-192.0
2.08,-15040.0,-6720.0,-192.0
2.0825,-15040.0,-6784.0,-192.0
2.085,-15040.0,-6720.0,-64.0
2.0875,-14912.0,-6720.0,-128.0
2.09,-15040.0,-6720.0,-256.0
2.0925,-14976.0,-6720.0,-256.0
2.095,-15040.0,-6656.0,-192.0
2.0975,-14976.0,-6720.0,-192.0
2.1,-14912.0,-6720.0,-192.0
2.1025,-14912.0,-6720.0,-256.0
2.105,-14976.0,-6656.0,-192.0
2.1075,-14912.0,-6720.0,-128.0
2.11,-14976.0,-6784.0,-192.0
2.1125,-14976.0,-6848.0,-256.0
2.115,-14912.0,-6848.0,-192.0
2.1175,-14976.0,-6848.0,-256.0
2.12,-14976.0,-6784.0,-256.0
2.1225,-14976.0,-6784.0,-256.0
2.125,-14976.0,-6784.0,-256.0
2.1275,-14912.0,-6720.0,-320.0
2.13,-14912.0,-6784.0,-320.0
2.1325,-14912.0,-6848.0,-320.0
2.135,-14848.0,-6784.0,-256.0
2.1375,-14976.0,-6848.0,-192.0
2.14,-14912.0,-6848.0,-192.0
2.1425,-14912.0,-6912.0,-192.0
2.145,-14976.0,-6912.0,-192.0
2.1475,-15040.0,-6848.0,-256.0
2.15,-15040.0,-6848.0,-256.0
2.1525,-15104.0,-6912.0,-128.0
2.155,-15040.0,-6912.0,-192.0
2.1575,-15040.0,-6976.0,-256.0
2.16,-14976.0,-6976.0,-256.0
2.1625,-15040.0,-6976.0,-192.0
2.165,-15040.0,-7040.0,-192.0
2.1675,-14976.0,-7040.0,-192.0
2.17,-15040.0,-7104.0,-256.0
2.1725,-15040.0,-7040.0,-320.0
2.175,-14976.0,-7040.0,-256.0
2.1775,-14976.0,-7040.0,-256.0
2.18,-14976.0,-6976.0,-192.0
2.1825,-15040.0,-7040.0,-192.0
2.185,-15040.0,-6976.0,-192.0
2.1875,-15040.0,-6976.0,-192.0
2.19,-15040.0,-7040.0,-192.0
2.1925,-15040.0,-7040.0,-192.0
2.195,-15040.0,-7040.0,-256.0
2.1975,-15040.0,-6976.0,-192.0
2.2,-14976.0,-7040.0,-256.0
2.2025,-15040.0,-7040.0,-256.0
2.205,-14976.0,-7104.0,-192.0
2.2075,-14976.0,-7104.0,-256.0
2.21,-14912.0,-7040.0,-320.0
2.2125,-14912.0,-7104.0,-384.0
2.215,-14848.0,-7040.0,-320.0
2.2175,-14848.0,-7104.0,-320.0
2.22,-14848.0,-7104.0,-256.0
2.2225,-14848.0,-7104.0,-320.0
2.225,-14784.0,-7040.0,-320.0
2.2275,-14848.0,-7104.0,-320.0
2.23,-14912.0,-7168.0,-384.0
2.2325,-14912.0,-7168.0,-448.0
2.235,-14976.0,-7168.0,-320.0
2.2375,-14912.0,-7104.0,-320.0
2.24,-14912.0,-7104.0,-256.0
2.2425,-14976.0,-7104.0,-256.0
2.245,-14976.0,-7168.0,-256.0
2.2475,-14976.0,-7104.0,-256.0
2.25,-14912.0,-7232.0,-384.0
2.2525,-14976.0,-7232.0,-320.0
2.255,-14912.0,-7232.0,-256.0
2.2575,-14976.0,-7168.0,-256.0
2.26,-14976.0,-7296.0,-256.0
2.2625,-15040.0,-7232.0,-256.0
2.265,-14976.0,-7232.0,-256.0
2.2675,-14976.0,-7232.0,-256.0
2.27,-15040.0,-7232.0,-256.0
2.2725,-15040.0,-7168.0,-256.0
2.275,-15104.0,-7168.0,-256.0
2.2775,-15040.0,-7168.0,-256.0
2.28,-15104.0,-7168.0,-256.0
2.2825,-15104.0,-7168.0,-256.0
2.285,-15040.0,-7232.0,-320.0
2.2875,-15104.0,-7232.0,-256.0
2.29,-15104.0,-7232.0,-256.0
2.2925,-15104.0,-7168.0,-256.0
2.295,-15104.0,-7232.0,-192.0
2.2975,-15040.0,-7232.0,-128.0
2.3,-15104.0,-7168.0,-192.0
2.3025,-15104.0,-7168.0,-192.0
2.305,-15104.0,-7104.0,-256.0
2.3075,-15168.0,-7168.0,-192.0
2.31,-15104.0,-7168.0,-192.0
2.3125,-15104.0,-7104.0,-128.0
2.315,-15104.0,-7168.0,-64.0
2.3175,-15104.0,-7040.0,-128.0
2.32,-15040.0,-7040.0,-192.0
2.3225,-15104.0,-7040.0,-192.0
2.325,-15040.0,-7040.0,-192.0
2.3275,-14976.0,-7104.0,-192.0
2.33,-15040.0,-7040.0,-192.0
2.3325,-15040.0,-7104.0,-192.0
2.335,-15104.0,-7104.0,-128.0
2.3375,-15040.0,-7104.0,-192.0
2.34,-15104.0,-6976.0,-192.0
2.3425,-15104.0,-7040.0,-192.0
2.345,-15040.0,-7040.0,-128.0
2.3475,-15040.0,-7040.0,-128.0
2.35,-14976.0,-6976.0,-128.0
2.3525,-15040.0,-7040.0,-128.0
2.355,-15040.0,-7040.0,-128.0
2.3575,-14976.0,-6976.0,0.0
2.36,-14976.0,-6976.0,0.0
2.3625,-14976.0,-6976.0,-64.0
2.365,-14976.0,-6976.0,-128.0
2.3675,-14976.0,-6976.0,-128.0
2.37,-14976.0,-6976.0,-64.0
2.3725,-14912.0,-6976.0,-64.0
2.375,-14912.0,-6976.0,-64.0
2.3775,-14912.0,-6976.0,-64.0
2.38,-14976.0,-6912.0,-64.0
2.3825,-14912.0,-6912.0,0.0
2.385,-14976.0,-6976.0,-64.0
2.3875,-14976.0,-6976.0,0.0
2.39,-14912.0,-6912.0,-64.0
2.3925,-14912.0,-6848.0,-64.0
2.395,-14912.0,-6912.0,64.0
2.3975,-14848.0,-6848.0,0.0
2.4,-14784.0,-6848.0,0.0
2.4025,-14848.0,-6912.0,0.0
2.405,-14848.0,-6848.0,0.0
2.4075,-14784.0,-6848.0,0.0
2.41,-14848.0,-6912.0,0.0
2.4125,-14912.0,-6912.0,0.0
2.415,-14848.0,-6848.0,0.0
2.4175,-14912.0,-6848.0,0.0
2.42,-14912.0,-6848.0,64.0
2.4225,-14912.0,-6912.0,0.0
2.425,-14848.0,-6912.0,0.0
2.4275,-14912.0,-6912.0,0.0
2.43,-14848.0,-6912.0,0.0
2.4325,-14912.0,-6912.0,0.0
2.435,-14912.0,-6912.0,-64.0
2.4375,-14848.0,-6912.0,0.0
2.44,-14848.0,-6912.0,0.0
2.4425,-14912.0,-6912.0,0.0
2.445,-14912.0,-6912.0,64.0
2.4475,-14976.0,-6912.0,0.0
2.45,-14912.0,-6912.0,0.0
2.4525,-14976.0,-6912.0,0.0
2.455,-14912.0,-6912.0,-64.0
2.4575,-14976.0,-6848.0,0.0
2.46,-14976.0,-6848.0,-64.0
2.4625,-14976.0,-6848.0,64.0
2.465,-15040.0,-6912.0,0.0
2.4675,-14976.0,-6848.0,-64.0
2.47,-14976.0,-6848.0,-64.0
2.4725,-14912.0,-6912.0,0.0
2.475,-14912.0,-6784.0,-64.0
2.4775,-14912.0,-6848.0,-64.0
2.48,-14912.0,-6784.0,0.0
2.4825,-14912.0,-6848.0,-64.0
2.485,-14976.0,-6848.0,0.0
2.4875,-15040.0,-6848.0,0.0
2.49,-15040.0,-6784.0,-64.0
2.4925,-15040.0,-6848.0,0.0
2.495,-15040.0,-6848.0,0.0
2.4975,-14976.0,-6848.0,0.0
2.5,-14976.0,-6848.0,0.0
2.5025,-14976.0,-6784.0,0.0
2.505,-14976.0,-6784.0,0.0
2.5075,-14912.0,-6784.0,-64.0
2.51,-14976.0,-6784.0,-64.0
2.5125,-14976.0,-6784.0,-64.0
2.515,-14976.0,-6720.0,-64.0
2.5175,-14912.0,-6720.0,-64.0
2.52,-15040.0,-6720.0,-64.0
2.5225,-15040.0,-6784.0,-64.0
2.525,-15040.0,-6720.0,-64.0
2.5275,-14976.0,-6720.0,0.0
2.53,-14976.0,-6720.0,0.0
2.5325,-14976.0,-6720.0,-64.0
2.535,-15040.0,-6720.0,-128.0
2.5375,-14912.0,-6784.0,-64.0
2.54,-14976.0,-6784.0,-64.0
2.5425,-14912.0,-6784.0,0.0
2.545,-14912.0,-6784.0,64.0
2.5475,-14912.0,-6720.0,0.0
2.55,-14912.0,-6720.0,-64.0
2.5525,-14976.0,-6784.0,0.0
2.555,-14976.0,-6720.0,0.0
2.5575,-14912.0,-6720.0,0.0
2.56,-14912.0,-6784.0,64.0
2.5625,-14912.0,-6784.0,0.0
2.565,-14912.0,-6720.0,0.0
2.5675,-14848.0,-6784.0,0.0
2.57,-14848.0,-6784.0,0.0
2.5725,-14848.0,-6720.0,-64.0
2.575,-14912.0,-6720.0,-64.0
2.5775,-14848.0,-6784.0,-64.0
2.58,-14848.0,-6720.0,-64.0
2.5825,-14912.0,-6720.0,-64.0
2.585,-14848.0,-6720.0,-64.0
2.5875,-14784.0,-6656.0,-128.0
2.59,-14848.0,-6656.0,-128.0
2.5925,-14848.0,-6656.0,-128.0
2.595,-14848.0,-6720.0,-64.0
2.5975,-14848.0,-6720.0,-128.0
2.6,-14912.0,-6720.0,-128.0
2.6025,-14912.0,-6720.0,-192.0
2.605,-14976.0,-6720.0,-192.0
2.6075,-14976.0,-6720.0,-128.0
2.61,-14976.0,-6784.0,-128.0
2.6125,-15040.0,-6848.0,-64.0
2.615,-15040.0,-6784.0,-128.0
2.6175,-15040.0,-6848.0,-128.0
2.62,-14976.0,-6784.0,-128.0
2.6225,-14912.0,-6784.0,-128.0
2.625,-14976.0,-6848.0,-128.0
2.6275,-14976.0,-6784.0,-128.0
2.63,-14976.0,-6784.0,-128.0
2.6325,-14976.0,-6784.0,-128.0
2.635,-14912.0,-6720.0,-64.0
2.6375,-14912.0,-6784.0,-64.0
2.64,-14912.0,-6848.0,-64.0
2.6425,-14848.0,-6848.0,-64.0
2.645,-14912.0,-6848.0,-128.0
2.6475,-14912.0,-6848.0,-128.0
2.65,-14912.0,-6784.0,-128.0
2.6525,-14848.0,-6784.0,-192.0
2.655,-14848.0,-6784.0,-192.0
2.6575,-14848.0,-6784.0,-128.0
2.66,-14848.0,-6720.0,-128.0
2.6625,-14848.0,-6784.0,-128.0
2.665,-14848.0,-6848.0,-128.0
2.6675,-14848.0,-6848.0,-192.0
2.67,-14912.0,-6912.0,-192.0
2.6725,-14848.0,-6912.0,-128.0
2.675,-14848.0,-6912.0,-192.0
2.6775,-14912.0,-6912.0,-192.0
2.68,-14848.0,-6848.0,-192.0
2.6825,-14848.0,-6784.0,-128.0
2.685,-14848.0,-6848.0,-64.0
2.6875,-14848.0,-6784.0,-128.0
2.69,-14848.0,-6784.0,-128.0
2.6925,-14912.0,-6784.0,-128.0
2.695,-14848.0,-6848.0,-128.0
2.6975,-14912.0,-6848.0,-128.0
2.7,-14848.0,-6848.0,-128.0
2.7025,-14912.0,-6848.0,-192.0
2.705,-14912.0,-6848.0,-256.0
2.7075,-14912.0,-6912.0,-192.0
2.71,-14912.0,-6912.0,-128.0
2.7125,-14912.0,-6976.0,-192.0
2.715,-14912.0,-6912.0,-192.0
2.7175,-14912.0,-6912.0,-192.0
2.72,-14976.0,-6912.0,-192.0
2.7225,-14976.0,-6976.0,-128.0
2.725,-14976.0,-6976.0,-64.0
2.7275,-14976.0,-6912.0,-128.0
2.73,-15040.0,-6912.0,-192.0
2.7325,-15040.0,-6912.0,-192.0
2.735,-15040.0,-6912.0,-256.0
2.7375,-14976.0,-6912.0,-192.0
2.74,-15040.0,-6912.0,-256.0
2.7425,-15040.0,-6976.0,-192.0
2.745,-14976.0,-6976.0,-192.0
2.7475,-14976.0,-6976.0,-192.0
2.75,-14976.0,-6912.0,-192.0
2.7525,-14976.0,-6848.0,-256.0
2.755,-14976.0,-6912.0,-192.0
2.7575,-14976.0,-6976.0,-192.0
2.76,-14976.0,-6976.0,-256.0
2.7625,-14976.0,-6976.0,-128.0
2.765,-14976.0,-6912.0,-192.0
2.7675,-14976.0,-6976.0,-192.0
2.77,-14912.0,-6912.0,-128.0
2.7725,-14912.0,-6976.0,-192.0
2.775,-14912.0,-6976.0,-192.0
2.7775,-14912.0,-6976.0,-192.0
2.78,-14912.0,-6976.0,-192.0
2.7825,-14912.0,-6976.0,-192.0
2.785,-14848.0,-6912.0,-192.0
2.7875,-14912.0,-6976.0,-192.0
2.79,-14912.0,-6976.0,-192.0
2.7925,-14912.0,-6976.0,-192.0
2.795,-14976.0,-6912.0,-128.0
2.7975,-14848.0,-6912.0,-192.0
2.8,-14912.0,-6976.0,-128.0
2.8025,-14976.0,-6976.0,-128.0
2.805,-14976.0,-6912.0,-64.0
2.8075,-14912.0,-6912.0,-128.0
2.81,-14976.0,-6912.0,-128.0
2.8125,-14976.0,-6976.0,-64.0
2.815,-14912.0,-6976.0,-64.0
2.8175,-14912.0,-6976.0,-64.0
2.82,-14848.0,-6912.0,-64.0
2.8225,-14912.0,-6976.0,-64.0
2.825,-14912.0,-6976.0,-128.0
2.8275,-14912.0,-6976.0,-64.0
2.83,-14976.0,-6912.0,-64.0
2.8325,-14848.0,-6912.0,-64.0
2.835,-14848.0,-6976.0,-64.0
2.8375,-14848.0,-6912.0,-64.0
2.84,-14848.0,-6912.0,-128.0
2.8425,-14848.0,-6912.0,0.0
2.845,-14912.0,-6912.0,-64.0
2.8475,-14848.0,-6912.0,-64.0
2.85,-14848.0,-6912.0,-128.0
2.8525,-14848.0,-6912.0,-64.0
2.855,-14848.0,-7040.0,0.0
2.8575,-14848.0,-6976.0,-64.0
2.86,-14784.0,-6976.0,-64.0
2.8625,-14848.0,-6912.0,-64.0
2.865,-14848.0,-6912.0,-64.0
2.8675,-14784.0,-6976.0,-64.0
2.87,-14784.0,-6912.0,-64.0
2.8725,-14848.0,-6976.0,-64.0
2.875,-14784.0,-6976.0,0.0
2.8775,-14848.0,-6976.0,-64.0
2.88,-14848.0,-6976.0,-64.0
2.8825,-14912.0,-6912.0,-64.0
2.885,-14848.0,-6976.0,0.0
2.8875,-14784.0,-6912.0,0.0
2.89,-14784.0,-6912.0,64.0
2.8925,-14848.0,-6912.0,64.0
2.895,-14848.0,-6976.0,64.0
2.8975,-14784.0,-6912.0,0.0
2.9,-14848.0,-6912.0,64.0
2.9025,-14848.0,-6976.0,64.0
2.905,-14848.0,-6912.0,0.0
2.9075,-14848.0,-7040.0,-64.0
2.91,-14784.0,-6976.0,64.0
2.9125,-14912.0,-6976.0,0.0
2.915,-14912.0,-7040.0,0.0
2.9175,-14912.0,-6976.0,0.0
2.92,-14976.0,-6976.0,-64.0
2.9225,-14912.0,-6976.0,0.0
2.925,-14912.0,-6976.0,0.0
2.9275,-14912.0,-6976.0,-64.0
2.93,-14912.0,-6976.0,0.0
2.9325,-14848.0,-6912.0,-64.0
2.935,-14912.0,-6912.0,-64.0
2.9375,-14912.0,-6912.0,-64.0
2.94,-14848.0,-6912.0,-64.0
2.9425,-14912.0,-6976.0,-64.0
2.945,-14848.0,-6976.0,0.0
2.9475,-14848.0,-6976.0,0.0
2.95,-14912.0,-6912.0,0.0
2.9525,-14912.0,-6976.0,-64.0
2.955,-14848.0,-6912.0,-64.0
2.9575,-14848.0,-6912.0,-64.0
2.96,-14848.0,-6912.0,0.0
2.9625,-14848.0,-6912.0,-64.0
2.965,-14912.0,-6976.0,0.0
2.9675,-14848.0,-6976.0,-64.0
2.97,-14976.0,-6976.0,-64.0
2.9725,-14848.0,-6976.0,-64.0
2.975,-14976.0,-6976.0,-64.0
2.9775,-14912.0,-6976.0,0.0
2.98,-14912.0,-6912.0,0.0
2.9825,-14912.0,-6976.0,0.0
2.985,-14912.0,-6912.0,-64.0
2.9875,-14912.0,-6912.0,-64.0
2.99,-14912.0,-6912.0,-64.0
2.9925,-14976.0,-6912.0,-64.0
2.995,-14912.0,-6912.0,-64.0
2.9975,-14976.0,-6976.0,-128.0
3.0,-14912.0,-7040.0,-64.0
3.0025,-14912.0,-6912.0,0.0
3.005,-14976.0,-6976.0,-64.0
3.0075,-14912.0,-6912.0,-64.0
3.01,-14912.0,-6976.0,-64.0
3.0125,-14848.0,-6976.0,-64.0
3.015,-14976.0,-6912.0,-64.0
3.0175,-14976.0,-6912.0,-64.0
3.02,-14912.0,-6976.0,0.0
3.0225,-14912.0,-6912.0,0.0
3.025,-14976.0,-6912.0,0.0
3.0275,-14976.0,-6976.0,0.0
3.03,-14912.0,-6912.0,0.0
3.0325,-14912.0,-6976.0,0.0
3.035,-14912.0,-6976.0,0.0
3.0375,-14912.0,-7040.0,-64.0
3.04,-14912.0,-6976.0,-64.0
3.0425,-14912.0,-6912.0,-64.0
3.045,-14912.0,-6912.0,-64.0
3.0475,-14912.0,-6912.0,-64.0
3.05,-14848.0,-6912.0,-64.0
3.0525,-14848.0,-6912.0,-64.0
3.055,-14848.0,-6912.0,-64.0
3.0575,-14912.0,-6848.0,-64.0
3.06,-14912.0,-6912.0,-64.0
3.0625,-14912.0,-6912.0,-64.0
3.065,-14912.0,-6912.0,-128.0
3.0675,-14848.0,-6912.0,-64.0
3.07,-14912.0,-6848.0,-64.0
3.0725,-14848.0,-6912.0,0.0
3.075,-14848.0,-6848.0,0.0
3.0775,-14912.0,-6912.0,0.0
3.08,-14848.0,-6912.0,-128.0
3.0825,-14912.0,-6912.0,-64.0
3.085,-14848.0,-6912.0,-64.0
3.0875,-14912.0,-6912.0,-64.0
3.09,-14912.0,-6848.0,0.0
3.0925,-14912.0,-6912.0,0.0
3.095,-14912.0,-6912.0,0.0
3.0975,-14848.0,-6976.0,-64.0
3.1,-14848.0,-6976.0,-64.0
3.1025,-14848.0,-6976.0,-64.0
3.105,-14912.0,-6976.0,-128.0
3.1075,-14912.0,-6912.0,0.0
3.11,-14912.0,-6912.0,-64.0
3.1125,-14912.0,-6912.0,-128.0
3.115,-14912.0,-6912.0,0.0
3.1175,-14912.0,-6912.0,-64.0
3.12,-14848.0,-6848.0,0.0
3.1225,-14912.0,-6912.0,0.0
3.125,-14912.0,-6912.0,0.0
3.1275,-14912.0,-6912.0,0.0
3.13,-14848.0,-6912.0,-64.0
3.1325,-14912.0,-6912.0,-64.0
3.135,-14848.0,-6912.0,0.0
3.1375,-14784.0,-6912.0,0.0
3.14,-14848.0,-6848.0,0.0
3.1425,-14784.0,-6912.0,0.0
3.145,-14784.0,-6912.0,64.0
3.1475,-14848.0,-6976.0,0.0
3.15,-14912.0,-6976.0,-64.0
3.1525,-14912.0,-6912.0,-64.0
3.155,-14912.0,-6912.0,0.0
3.1575,-14848.0,-6912.0,-64.0
3.16,-14848.0,-6912.0,-64.0
3.1625,-14848.0,-6912.0,-128.0
3.165,-14784.0,-6912.0,-64.0
3.1675,-14784.0,-6912.0,-64.0
3.17,-14848.0,-6912.0,0.0
3.1725,-14848.0,-6912.0,-64.0
3.175,-14912.0,-6912.0,0.0
3.1775,-14912.0,-6912.0,-64.0
3.18,-14912.0,-6912.0,-64.0
3.1825,-14912.0,-6976.0,0.0
3.185,-14912.0,-6976.0,0.0
3.1875,-14976.0,-6976.0,0.0
3.19,-14976.0,-6912.0,-64.0
3.1925,-14848.0,-6912.0,-64.0
3.195,-14848.0,-6912.0,0.0
3.1975,-14848.0,-6912.0,0.0
3.2,-14912.0,-6976.0,64.0
3.2025,-14912.0,-7040.0,64.0
3.205,-14848.0,-6976.0,64.0
3.2075,-14912.0,-6912.0,0.0
3.21,-14912.0,-6976.0,0.0
3.2125,-14912.0,-6912.0,0.0
3.215,-14912.0,-6912.0,0.0
3.2175,-14976.0,-6976.0,-64.0
3.22,-14912.0,-6976.0,0.0
3.2225,-14976.0,-6912.0,0.0
3.225,-14912.0,-6976.0,0.0
3.2275,-14976.0,-6976.0,-64.0
3.23,-14912.0,-6976.0,-128.0
3.2325,-14912.0,-6976.0,-128.0
3.235,-14976.0,-6912.0,-128.0
3.2375,-14976.0,-6976.0,-128.0
3.24,-14976.0,-7040.0,-64.0
3.2425,-15040.0,-6976.0,-64.0
3.245,-15040.0,-6976.0,-64.0
3.2475,-15104.0,-6976.0,-64.0
3.25,-15104.0,-7040.0,-64.0
3.2525,-15104.0,-7104.0,-64.0
3.255,-15040.0,-7104.0,-64.0
3.2575,-15104.0,-7040.0,-64.0
3.26,-15104.0,-6976.0,0.0
3.2625,-15104.0,-7040.0,64.0
3.265,-15104.0,-7040.0,0.0
3.2675,-15040.0,-7040.0,0.0
3.27,-15040.0,-6976.0,64.0
3.2725,-15040.0,-7040.0,64.0
3.275,-15040.0,-7040.0,128.0
3.2775,-14976.0,-6976.0,128.0
3.28,-14976.0,-7040.0,64.0
3.2825,-14912.0,-7040.0,0.0
3.285,-14912.0,-7040.0,0.0
3.2875,-14912.0,-7104.0,64.0
3.29,-14912.0,-7104.0,64.0
3.2925,-14848.0,-7040.0,64.0
3.295,-14912.0,-7104.0,64.0
3.2975,-14976.0,-7040.0,64.0
3.3,-14976.0,-7104.0,64.0
3.3025,-14912.0,-7104.0,64.0
3.305,-14912.0,-7040.0,64.0
3.3075,-14912.0,-7040.0,64.0
3.31,-14912.0,-7040.0,64.0
3.3125,-14912.0,-7104.0,64.0
3.315,-14848.0,-7104.0,64.0
3.3175,-14848.0,-7104.0,0.0
3.32,-14848.0,-7104.0,0.0
3.3225,-14848.0,-7104.0,64.0
3.325,-14848.0,-7104.0,0.0
3.3275,-14784.0,-7104.0,64.0
3.33,-14784.0,-7104.0,0.0
3.3325,-14848.0,-7040.0,0.0
3.335,-14784.0,-7040.0,64.0
3.3375,-14784.0,-7040.0,64.0
3.34,-14784.0,-7104.0,64.0
3.3425,-14720.0,-7104.0,128.0
3.345,-14720.0,-7104.0,128.0
3.3475,-14784.0,-7104.0,128.0
3.35,-14784.0,-7040.0,64.0
3.3525,-14784.0,-7104.0,64.0
3.355,-14848.0,-7104.0,64.0
3.3575,-14784.0,-7104.0,64.0
3.36,-14784.0,-7104.0,64.0
3.3625,-14848.0,-7104.0,64.0
3.365,-14848.0,-7104.0,0.0
3.3675,-14848.0,-7104.0,0.0
3.37,-14848.0,-7104.0,0.0
3.3725,-14848.0,-7168.0,64.0
3.375,-14912.0,-7168.0,64.0
3.3775,-14912.0,-7104.0,64.0
3.38,-14912.0,-7104.0,64.0
3.3825,-14976.0,-7104.0,64.0
3.385,-14976.0,-7168.0,0.0
3.3875,-14976.0,-7168.0,0.0
3.39,-14976.0,-7168.0,64.0
3.3925,-14976.0,-7104.0,64.0
3.395,-15040.0,-7104.0,0.0
3.3975,-15040.0,-7168.0,64.0
3.4,-15040.0,-7104.0,64.0
3.4025,-15104.0,-7168.0,64.0
3.405,-15104.0,-7168.0,64.0
3.4075,-15104.0,-7168.0,64.0
3.41,-15104.0,-7104.0,64.0
3.4125,-15104.0,-7104.0,192.0
3.415,-15104.0,-7104.0,64.0
3.4175,-15104.0,-7104.0,64.0
3.42,-15104.0,-7104.0,64.0
3.4225,-15168.0,-7104.0,64.0
3.425,-15104.0,-7104.0,128.0
3.4275,-15104.0,-7104.0,128.0
3.43,-15168.0,-7104.0,192.0
3.4325,-15104.0,-7104.0,192.0
3.435,-15104.0,-7168.0,192.0
3.4375,-15104.0,-7168.0,192.0
3.44,-15104.0,-7104.0,192.0
3.4425,-15168.0,-7104.0,192.0
3.445,-15168.0,-7104.0,192.0
3.4475,-15168.0,-7104.0,192.0
3.45,-15168.0,-7040.0,192.0
3.4525,-15168.0,-7104.0,192.0
3.455,-15232.0,-7104.0,192.0
3.4575,-15232.0,-7168.0,192.0
3.46,-15232.0,-7168.0,192.0
3.4625,-15296.0,-7168.0,192.0
3.465,-15232.0,-7104.0,256.0
3.4675,-15232.0,-7168.0,256.0
3.47,-15296.0,-7168.0,320.0
3.4725,-15296.0,-7168.0,320.0
3.475,-15168.0,-7168.0,384.0
3.4775,-15168.0,-7168.0,384.0
3.48,-15168.0,-7168.0,384.0
3.4825,-15168.0,-7168.0,320.0
3.485,-15168.0,-7168.0,448.0
3.4875,-15168.0,-7104.0,384.0
3.49,-15104.0,-7104.0,384.0
3.4925,-15040.0,-7104.0,384.0
3.495,-15040.0,-7104.0,384.0
3.4975,-15104.0,-7104.0,384.0
3.5,-15104.0,-7168.0,384.0
3.5025,-15168.0,-7168.0,448.0
3.505,-15104.0,-7104.0,384.0
3.5075,-15104.0,-7104.0,384.0
3.51,-15104.0,-7104.0,448.0
3.5125,-15104.0,-7104.0,448.0
3.515,-15040.0,-7104.0,512.0
3.5175,-15104.0,-7104.0,512.0
3.52,-15104.0,-7040.0,448.0
3.5225,-15168.0,-6976.0,512.0
3.525,-15104.0,-7040.0,576.0
3.5275,-15040.0,-7040.0,576.0
3.53,-15104.0,-7040.0,576.0
3.5325,-15104.0,-7104.0,576.0
3.535,-15040.0,-7104.0,640.0
3.5375,-15040.0,-7104.0,640.0
3.54,-15040.0,-7040.0,576.0
3.5425,-14976.0,-7104.0,512.0
3.545,-14976.0,-7040.0,512.0
3.5475,-14976.0,-7040.0,448.0
3.55,-14912.0,-7040.0,448.0
3.5525,-14976.0,-6976.0,448.0
3.555,-14912.0,-6976.0,448.0
3.5575,-14848.0,-6976.0,448.0
3.56,-14784.0,-6976.0,448.0
3.5625,-14784.0,-7040.0,384.0
3.565,-14784.0,-6976.0,448.0
3.5675,-14784.0,-6976.0,448.0
3.57,-14784.0,-7040.0,384.0
3.5725,-14848.0,-6976.0,384.0
3.575,-14784.0,-6976.0,384.0
3.5775,-14720.0,-6976.0,320.0
3.58,-14720.0,-6912.0,384.0
3.5825,-14656.0,-6912.0,320.0
3.585,-14656.0,-6848.0,320.0
3.5875,-14656.0,-6848.0,256.0
3.59,-14656.0,-6912.0,320.0
3.5925,-14656.0,-6912.0,320.0
3.595,-14656.0,-6912.0,320.0
3.5975,-14656.0,-6976.0,256.0
3.6,-14656.0,-6976.0,256.0
3.6025,-14656.0,-6912.0,256.0
3.605,-14656.0,-6976.0,320.0
3.6075,-14720.0,-6976.0,256.0
3.61,-14656.0,-7040.0,256.0
3.6125,-14656.0,-6976.0,256.0
3.615,-14720.0,-6976.0,256.0
3.6175,-14720.0,-6976.0,320.0
3.62,-14720.0,-6976.0,256.0
3.6225,-14720.0,-7040.0,320.0
3.625,-14784.0,-7104.0,320.0
3.6275,-14784.0,-7104.0,256.0
3.63,-14848.0,-7104.0,192.0
3.6325,-14848.0,-7104.0,192.0
3.635,-14848.0,-7104.0,192.0
3.6375,-14848.0,-7104.0,128.0
3.64,-14848.0,-7168.0,192.0
3.6425,-14912.0,-7104.0,192.0
3.645,-14912.0,-7168.0,192.0
3.6475,-14912.0,-7104.0,192.0
3.65,-14848.0,-7104.0,128.0
3.6525,-14912.0,-7104.0,192.0
3.655,-14912.0,-7104.0,192.0
3.6575,-14912.0,-7040.0,192.0
3.66,-14912.0,-7104.0,128.0
3.6625,-14848.0,-7104.0,128.0
3.665,-14912.0,-7104.0,192.0
3.6675,-14848.0,-7104.0,128.0
3.67,-14784.0,-7040.0,192.0
3.6725,-14784.0,-7040.0,192.0
3.675,-14848.0,-7040.0,192.0
3.6775,-14784.0,-7040.0,128.0
3.68,-14720.0,-6976.0,64.0
3.6825,-14720.0,-6976.0,128.0
3.685,-14656.0,-6976.0,128.0
3.6875,-14656.0,-6976.0,192.0
3.69,-14720.0,-6976.0,192.0
3.6925,-14656.0,-7040.0,128.0
3.695,-14720.0,-6976.0,128.0
3.6975,-14720.0,-6976.0,128.0
3.7,-14656.0,-6912.0,192.0
3.7025,-14656.0,-6912.0,128.0
3.705,-14656.0,-6912.0,192.0
3.7075,-14656.0,-6912.0,128.0
3.71,-14656.0,-6912.0,128.0
3.7125,-14720.0,-6912.0,64.0
3.715,-14720.0,-6848.0,128.0
3.7175,-14784.0,-6848.0,64.0
3.72,-14848.0,-6848.0,64.0
3.7225,-14848.0,-6848.0,64.0
3.725,-14848.0,-6848.0,0.0
3.7275,-14848.0,-6848.0,0.0
3.73,-14848.0,-6912.0,-64.0
3.7325,-14912.0,-6912.0,0.0
3.735,-14912.0,-6848.0,-64.0
3.7375,-14976.0,-6848.0,0.0
3.74,-15040.0,-6912.0,-64.0
3.7425,-14976.0,-6848.0,-64.0
3.745,-15040.0,-6912.0,0.0
3.7475,-15104.0,-6912.0,-64.0
3.75,-15104.0,-6912.0,-192.0
3.7525,-15104.0,-6912.0,-128.0
3.755,-15104.0,-6784.0,-128.0
3.7575,-15168.0,-6784.0,-192.0
3.76,-15168.0,-6784.0,-256.0
3.7625,-15232.0,-6720.0,-256.0
3.765,-15232.0,-6784.0,-256.0
3.7675,-15296.0,-6784.0,-192.0
3.77,-15360.0,-6848.0,-320.0
3.7725,-15360.0,-6912.0,-320.0
3.775,-15360.0,-6784.0,-320.0
3.7775,-15360.0,-6848.0,-320.0
3.78,-15360.0,-6784.0,-320.0
3.7825,-15360.0,-6848.0,-256.0
3.785,-15424.0,-6784.0,-320.0
3.7875,-15424.0,-6784.0,-320.0
3.79,-15424.0,-6720.0,-320.0
3.7925,-15424.0,-6720.0,-384.0
3.795,-15424.0,-6720.0,-384.0
3.7975,-15424.0,-6720.0,-384.0
3.8,-15424.0,-6656.0,-384.0
3.8025,-15360.0,-6720.0,-448.0
3.805,-15424.0,-6656.0,-448.0
3.8075,-15424.0,-6720.0,-448.0
3.81,-15424.0,-6720.0,-512.0
3.8125,-15424.0,-6720.0,-512.0
3.815,-15424.0,-6656.0,-448.0
3.8175,-15424.0,-6720.0,-576.0
3.82,-15488.0,-6720.0,-448.0
3.8225,-15424.0,-6720.0,-448.0
3.825,-15360.0,-6656.0,-448.0
3.8275,-15296.0,-6656.0,-512.0
3.83,-15360.0,-6656.0,-448.0
3.8325,-15296.0,-6592.0,-448.0
3.835,-15296.0,-6592.0,-448.0
3.8375,-15296.0,-6528.0,-448.0
3.84,-15232.0,-6528.0,-512.0
3.8425,-15168.0,-6528.0,-512.0
3.845,-15168.0,-6464.0,-512.0
3.8475,-15168.0,-6528.0,-512.0
3.85,-15168.0,-6464.0,-512.0
3.8525,-15168.0,-6464.0,-512.0
3.855,-15104.0,-6464.0,-512.0
3.8575,-15168.0,-6464.0,-512.0
3.86,-15040.0,-6400.0,-576.0
3.8625,-15040.0,-6336.0,-576.0
3.865,-15104.0,-6336.0,-576.0
3.8675,-15040.0,-6336.0,-576.0
3.87,-15040.0,-6400.0,-576.0
3.8725,-15040.0,-6336.0,-640.0
3.875,-15040.0,-6336.0,-640.0
3.8775,-15040.0,-6272.0,-640.0
3.88,-15040.0,-6208.0,-640.0
3.8825,-15040.0,-6208.0,-640.0
3.885,-15040.0,-6208.0,-640.0
3.8875,-14976.0,-6144.0,-640.0
3.89,-14976.0,-6208.0,-640.0
3.8925,-14976.0,-6272.0,-576.0
3.895,-14976.0,-6272.0,-576.0
3.8975,-14912.0,-6208.0,-576.0
3.9,-14912.0,-6208.0,-640.0
3.9025,-14976.0,-6144.0,-640.0
3.905,-14912.0,-6144.0,-512.0
3.9075,-14912.0,-6272.0,-512.0
3.91,-14848.0,-6208.0,-576.0
3.9125,-14912.0,-6208.0,-576.0
3.915,-14912.0,-6208.0,-448.0
3.9175,-14848.0,-6144.0,-384.0
3.92,-14784.0,-6080.0,-384.0
3.9225,-14784.0,-6080.0,-384.0
3.925,-14784.0,-6080.0,-384.0
3.9275,-14720.0,-6144.0,-448.0
3.93,-14784.0,-6144.0,-384.0
3.9325,-14720.0,-6144.0,-448.0
3.935,-14720.0,-6144.0,-448.0
3.9375,-14720.0,-6080.0,-512.0
3.94,-14720.0,-6080.0,-512.0
3.9425,-14720.0,-6144.0,-512.0
3.945,-14784.0,-6144.0,-512.0
3.9475,-14720.0,-6144.0,-576.0
3.95,-14784.0,-6144.0,-576.0
3.9525,-14784.0,-6144.0,-640.0
3.955,-14784.0,-6144.0,-640.0
3.9575,-14784.0,-6080.0,-640.0
3.96,-14784.0,-6208.0,-640.0
3.9625,-14848.0,-6208.0,-640.0
3.965,-14784.0,-6272.0,-512.0
3.9675,-14848.0,-6208.0,-576.0
3.97,-14912.0,-6208.0,-576.0
3.9725,-14912.0,-6272.0,-512.0
3.975,-14912.0,-6272.0,-512.0
3.9775,-14912.0,-6336.0,-512.0
3.98,-14976.0,-6336.0,-576.0
3.9825,-15040.0,-6336.0,-576.0
3.985,-15040.0,-6336.0,-576.0
3.9875,-15040.0,-6336.0,-512.0
3.99,-15104.0,-6336.0,-576.0
3.9925,-15104.0,-6400.0,-512.0
3.995,-15104.0,-6400.0,-512.0
3.9975,-15104.0,-6400.0,-512.0
4.0,-15104.0,-6464.0,-512.0
4.0025,-15104.0,-6464.0,-576.0
4.005,-15104.0,-6528.0,-512.0
4.0075,-15104.0,-6528.0,-576.0
4.01,-15168.0,-6464.0,-576.0
4.0125,-15168.0,-6400.0,-576.0
4.015,-15168.0,-6464.0,-576.0
4.0175,-15168.0,-6528.0,-640.0
4.02,-15168.0,-6528.0,-640.0
4.0225,-15104.0,-6528.0,-704.0
4.025,-15104.0,-6592.0,-704.0
4.0275,-15104.0,-6528.0,-704.0
4.03,-15168.0,-6528.0,-640.0
4.0325,-15104.0,-6528.0,-640.0
4.035,-15104.0,-6528.0,-640.0
4.0375,-15104.0,-6592.0,-640.0
4.04,-15040.0,-6592.0,-576.0
4.0425,-15040.0,-6592.0,-576.0
4.045,-14976.0,-6592.0,-576.0
4.0475,-14976.0,-6592.0,-512.0
4.05,-14976.0,-6592.0,-512.0
4.0525,-14976.0,-6592.0,-448.0
4.055,-14976.0,-6528.0,-576.0
4.0575,-14976.0,-6528.0,-640.0
4.06,-14912.0,-6528.0,-640.0
4.0625,-14912.0,-6592.0,-576.0
4.065,-14912.0,-6592.0,-576.0
4.0675,-14976.0,-6592.0,-576.0
4.07,-14912.0,-6656.0,-576.0
4.0725,-14912.0,-6656.0,-512.0
4.075,-14848.0,-6592.0,-512.0
4.0775,-14912.0,-6592.0,-512.0
4.08,-14848.0,-6592.0,-512.0
4.0825,-14848.0,-6592.0,-512.0
4.085,-14848.0,-6592.0,-448.0
4.0875,-14848.0,-6592.0,-512.0
4.09,-14784.0,-6592.0,-576.0
4.0925,-14848.0,-6592.0,-512.0
4.095,-14784.0,-6592.0,-576.0
4.0975,-14912.0,-6592.0,-512.0
4.1,-14912.0,-6592.0,-448.0
4.1025,-14912.0,-6592.0,-448.0
4.105,-14912.0,-6592.0,-512.0
4.1075,-14912.0,-6528.0,-512.0
4.11,-14912.0,-6592.0,-448.0
4.1125,-14976.0,-6592.0,-448.0
4.115,-14912.0,-6592.0,-448.0
4.1175,-14912.0,-6656.0,-384.0
4.12,-14912.0,-6720.0,-384.0
4.1225,-14912.0,-6720.0,-384.0
4.125,-14912.0,-6720.0,-384.0
4.1275,-14976.0,-6720.0,-384.0
4.13,-14912.0,-6720.0,-384.0
4.1325,-14848.0,-6720.0,-384.0
4.135,-14848.0,-6656.0,-320.0
4.1375,-14912.0,-6720.0,-320.0
4.14,-14912.0,-6784.0,-320.0
4.1425,-14912.0,-6720.0,-384.0
4.145,-14912.0,-6656.0,-384.0
4.1475,-14912.0,-6656.0,-384.0
4.15,-14848.0,-6720.0,-384.0
4.1525,-14848.0,-6720.0,-384.0
4.155,-14912.0,-6784.0,-384.0
4.1575,-14912.0,-6720.0,-448.0
4.16,-14976.0,-6720.0,-448.0
4.1625,-14976.0,-6720.0,-384.0
4.165,-14912.0,-6784.0,-384.0
4.1675,-14912.0,-6784.0,-384.0
4.17,-14848.0,-6848.0,-384.0
4.1725,-14848.0,-6784.0,-384.0
4.175,-14848.0,-6784.0,-320.0
4.1775,-14848.0,-6784.0,-384.0
4.18,-14848.0,-6720.0,-320.0
4.1825,-14848.0,-6784.0,-384.0
4.185,-14912.0,-6720.0,-384.0
4.1875,-14848.0,-6720.0,-384.0
4.19,-14784.0,-6720.0,-384.0
4.1925,-14720.0,-6720.0,-384.0
4.195,-14720.0,-6592.0,-384.0
4.1975,-14720.0,-6656.0,-320.0
4.2,-14720.0,-6656.0,-384.0
4.2025,-14720.0,-6720.0,-384.0
4.205,-14656.0,-6720.0,-320.0
4.2075,-14656.0,-6720.0,-384.0
4.21,-14656.0,-6656.0,-384.0
4.2125,-14656.0,-6720.0,-384.0
4.215,-14592.0,-6720.0,-384.0
4.2175,-14592.0,-6656.0,-384.0
4.22,-14592.0,-6592.0,-320.0
4.2225,-14592.0,-6656.0,-320.0
4.225,-14592.0,-6656.0,-320.0
4.2275,-14528.0,-6656.0,-320.0
4.23,-14528.0,-6592.0,-384.0
4.2325,-14464.0,-6656.0,-320.0
4.235,-14464.0,-6656.0,-384.0
4.2375,-14464.0,-6592.0,-384.0
4.24,-14464.0,-6656.0,-320.0
4.2425,-14528.0,-6656.0,-320.0
4.245,-14528.0,-6656.0,-320.0
4.2475,-14464.0,-6656.0,-384.0
4.25,-14528.0,-6784.0,-384.0
4.2525,-14528.0,-6720.0,-320.0
4.255,-14528.0,-6720.0,-384.0
4.2575,-14592.0,-6656.0,-384.0
4.26,-14656.0,-6720.0,-384.0
4.2625,-14592.0,-6720.0,-448.0
4.265,-14592.0,-6784.0,-448.0
4.2675,-14592.0,-6784.0,-448.0
4.27,-14592.0,-6784.0,-448.0
4.2725,-14720.0,-6848.0,-448.0
4.275,-14656.0,-6848.0,-512.0
4.2775,-14656.0,-6784.0,-576.0
4.28,-14720.0,-6848.0,-448.0
4.2825,-14720.0,-6848.0,-576.0
4.285,-14720.0,-6912.0,-576.0
4.2875,-14784.0,-6848.0,-576.0
4.29,-14848.0,-6848.0,-576.0
4.2925,-14912.0,-6912.0,-576.0
4.295,-14912.0,-6912.0,-640.0
4.2975,-14976.0,-6912.0,-576.0
4.3,-15040.0,-6976.0,-640.0
4.3025,-15104.0,-6976.0,-640.0
4.305,-15168.0,-7040.0,-576.0
4.3075,-15232.0,-6976.0,-704.0
4.31,-15232.0,-7040.0,-640.0
4.3125,-15360.0,-7104.0,-704.0
4.315,-15424.0,-7168.0,-640.0
4.3175,-15424.0,-7168.0,-640.0
4.32,-15552.0,-7168.0,-640.0
4.3225,-15616.0,-7168.0,-640.0
4.325,-15616.0,-7232.0,-704.0
4.3275,-15680.0,-7232.0,-704.0
4.33,-15744.0,-7232.0,-768.0
4.3325,-15744.0,-7232.0,-768.0
4.335,-15744.0,-7232.0,-832.0
4.3375,-15744.0,-7296.0,-768.0
4.34,-15808.0,-7296.0,-832.0
4.3425,-15872.0,-7296.0,-832.0
4.345,-15872.0,-7232.0,-832.0
4.3475,-15936.0,-7296.0,-832.0
4.35,-15936.0,-7296.0,-896.0
4.3525,-15872.0,-7296.0,-896.0
4.355,-15872.0,-7232.0,-896.0
4.3575,-15872.0,-7232.0,-832.0
4.36,-15936.0,-7232.0,-832.0
4.3625,-15936.0,-7232.0,-832.0
4.365,-15872.0,-7296.0,-832.0
4.3675,-15936.0,-7296.0,-832.0
4.37,-15936.0,-7232.0,-768.0
4.3725,-15936.0,-7296.0,-832.0
4.375,-15872.0,-7232.0,-768.0
4.3775,-15872.0,-7232.0,-768.0
4.38,-15872.0,-7232.0,-832.0
4.3825,-15872.0,-7296.0,-960.0
4.385,-15872.0,-7296.0,-832.0
4.3875,-15872.0,-7232.0,-960.0
4.39,-15872.0,-7232.0,-960.0
4.3925,-15936.0,-7296.0,-960.0
4.395,-15936.0,-7232.0,-1024.0
4.3975,-15936.0,-7232.0,-960.0
4.4,-16000.0,-7232.0,-960.0
4.4025,-16000.0,-7168.0,-896.0
4.405,-16000.0,-7168.0,-896.0
4.4075,-15936.0,-7232.0,-896.0
4.41,-15936.0,-7168.0,-832.0
4.4125,-15936.0,-7168.0,-896.0
4.415,-15936.0,-7104.0,-832.0
4.4175,-15936.0,-7104.0,-832.0
4.42,-16000.0,-7168.0,-832.0
4.4225,-16000.0,-7104.0,-704.0
4.425,-16000.0,-7168.0,-704.0
4.4275,-16000.0,-7104.0,-768.0
4.43,-16000.0,-7104.0,-704.0
4.4325,-16064.0,-7104.0,-768.0
4.435,-16000.0,-7104.0,-832.0
4.4375,-16064.0,-7104.0,-768.0
4.44,-16064.0,-7104.0,-768.0
4.4425,-16128.0,-7104.0,-704.0
4.445,-16128.0,-7104.0,-704.0
4.4475,-16128.0,-7168.0,-704.0
4.45,-16192.0,-7104.0,-640.0
4.4525,-16192.0,-7104.0,-640.0
4.455,-16192.0,-7104.0,-640.0
4.4575,-16192.0,-7104.0,-640.0
4.46,-16192.0,-7040.0,-640.0
4.4625,-16256.0,-7040.0,-640.0
4.465,-16256.0,-7104.0,-512.0
4.4675,-16192.0,-7040.0,-512.0
4.47,-16256.0,-7040.0,-512.0
4.4725,-16192.0,-7040.0,-448.0
4.475,-16256.0,-6976.0,-448.0
4.4775,-16192.0,-7040.0,-448.0
4.48,-16192.0,-7040.0,-384.0
4.4825,-16192.0,-7104.0,-320.0
4.485,-16192.0,-7040.0,-320.0
4.4875,-16128.0,-7104.0,-256.0
4.49,-16128.0,-7040.0,-192.0
4.4925,-16128.0,-7104.0,-256.0
4.495,-16192.0,-7104.0,-256.0
4.4975,-16192.0,-7104.0,-192.0
4.5,-16128.0,-7104.0,-192.0
4.5025,-16128.0,-7104.0,-192.0
4.505,-16064.0,-7104.0,-256.0
4.5075,-16064.0,-7104.0,-192.0
4.51,-16128.0,-7040.0,-256.0
4.5125,-16128.0,-7104.0,-256.0
4.515,-16192.0,-7104.0,-256.0
4.5175,-16192.0,-7104.0,-256.0
4.52,-16192.0,-7104.0,-256.0
4.5225,-16128.0,-7104.0,-320.0
4.525,-16128.0,-7104.0,-320.0
4.5275,-16192.0,-7104.0,-256.0
4.53,-16128.0,-7040.0,-256.0
4.5325,-16128.0,-7040.0,-320.0
4.535,-16192.0,-7104.0,-192.0
4.5375,-16192.0,-7168.0,-192.0
4.54,-16192.0,-7104.0,-192.0
4.5425,-16192.0,-7040.0,-256.0
4.545,-16256.0,-7168.0,-320.0
4.5475,-16256.0,-7104.0,-320.0
4.55,-16256.0,-7168.0,-256.0
4.5525,-16192.0,-7104.0,-256.0
4.555,-16256.0,-7040.0,-128.0
4.5575,-16256.0,-7040.0,-192.0
4.56,-16256.0,-6976.0,-192.0
4.5625,-16320.0,-6976.0,-192.0
4.565,-16320.0,-6912.0,-256.0
4.5675,-16384.0,-6976.0,-192.0
4.57,-16448.0,-7040.0,-64.0
4.5725,-16448.0,-6912.0,-64.0
4.575,-16512.0,-6912.0,-128.0
4.5775,-16448.0,-6912.0,-64.0
4.58,-16512.0,-6912.0,-64.0
4.5825,-16512.0,-6912.0,-128.0
4.585,-16512.0,-6912.0,-128.0
4.5875,-16576.0,-6912.0,-128.0
4.59,-16576.0,-6848.0,-128.0
4.5925,-16640.0,-6912.0,-128.0
4.595,-16576.0,-6848.0,-128.0
4.5975,-16576.0,-6848.0,-64.0
4.6,-16640.0,-6912.0,-64.0
4.6025,-16576.0,-6912.0,-64.0
4.605,-16576.0,-6976.0,-64.0
4.6075,-16576.0,-6912.0,-64.0
4.61,-16576.0,-6912.0,-64.0
4.6125,-16512.0,-6912.0,0.0
4.615,-16512.0,-6912.0,-64.0
4.6175,-16512.0,-6912.0,-64.0
4.62,-16512.0,-6912.0,0.0
4.6225,-16512.0,-6784.0,-64.0
4.625,-16448.0,-6784.0,-64.0
4.6275,-16384.0,-6784.0,-64.0
4.63,-16320.0,-6848.0,-64.0
4.6325,-16320.0,-6784.0,0.0
4.635,-16256.0,-6784.0,-64.0
4.6375,-16320.0,-6720.0,0.0
4.64,-16320.0,-6784.0,0.0
4.6425,-16256.0,-6784.0,64.0
4.645,-16256.0,-6784.0,64.0
4.6475,-16256.0,-6784.0,64.0
4.65,-16256.0,-6784.0,0.0
4.6525,-16256.0,-6848.0,0.0
4.655,-16320.0,-6848.0,0.0
4.6575,-16320.0,-6848.0,0.0
4.66,-16320.0,-6848.0,64.0
4.6625,-16320.0,-6848.0,64.0
4.665,-16384.0,-6784.0,64.0
4.6675,-16384.0,-6848.0,0.0
4.67,-16384.0,-6912.0,0.0
4.6725,-16448.0,-6912.0,64.0
4.675,-16448.0,-6976.0,64.0
4.6775,-16512.0,-6912.0,0.0
4.68,-16576.0,-6976.0,128.0
4.6825,-16576.0,-6976.0,128.0
4.685,-16576.0,-6912.0,192.0
4.6875,-16640.0,-6912.0,192.0
4.69,-16640.0,-6912.0,128.0
4.6925,-16640.0,-7040.0,128.0
4.695,-16704.0,-6976.0,192.0
4.6975,-16704.0,-6976.0,192.0
4.7,-16768.0,-7040.0,192.0
4.7025,-16768.0,-7040.0,192.0
4.705,-16832.0,-7040.0,256.0
4.7075,-16832.0,-7040.0,320.0
4.71,-16832.0,-7040.0,320.0
4.7125,-16832.0,-7040.0,320.0
4.715,-16768.0,-6976.0,384.0
4.7175,-16768.0,-6976.0,256.0
4.72,-16832.0,-6976.0,320.0
4.7225,-16832.0,-6976.0,320.0
4.725,-16832.0,-6912.0,320.0
4.7275,-16832.0,-6976.0,320.0
4.73,-16768.0,-6976.0,320.0
4.7325,-16768.0,-7040.0,320.0
4.735,-16768.0,-6976.0,320.0
4.7375,-16768.0,-6976.0,320.0
4.74,-16832.0,-6976.0,256.0
4.7425,-16768.0,-6912.0,256.0
4.745,-16704.0,-6848.0,320.0
4.7475,-16640.0,-6912.0,384.0
4.75,-16640.0,-6912.0,320.0
4.7525,-16512.0,-6848.0,320.0
4.755,-16448.0,-6784.0,320.0
4.7575,-16448.0,-6848.0,320.0
4.76,-16384.0,-6784.0,384.0
4.7625,-16320.0,-6784.0,384.0
4.765,-16256.0,-6720.0,448.0
4.7675,-16192.0,-6720.0,384.0
4.77,-16064.0,-6720.0,448.0
4.7725,-16000.0,-6656.0,448.0
4.775,-15872.0,-6592.0,448.0
4.7775,-15744.0,-6592.0,448.0
4.78,-15616.0,-6528.0,448.0
4.7825,-15552.0,-6592.0,448.0
4.785,-15488.0,-6528.0,384.0
4.7875,-15488.0,-6464.0,384.0
4.79,-15296.0,-6400.0,320.0
4.7925,-15168.0,-6336.0,384.0
4.795,-15040.0,-6336.0,384.0
4.7975,-14976.0,-6336.0,384.0
4.8,-14784.0,-6272.0,384.0
4.8025,-14720.0,-6208.0,384.0
4.805,-14656.0,-6208.0,384.0
4.8075,-14528.0,-6272.0,384.0
4.81,-14464.0,-6272.0,384.0
4.8125,-14272.0,-6208.0,384.0
4.815,-14208.0,-6144.0,320.0
4.8175,-14080.0,-6144.0,320.0
4.82,-14016.0,-6080.0,256.0
4.8225,-13952.0,-5952.0,320.0
4.825,-13888.0,-5952.0,320.0
4.8275,-13824.0,-5888.0,384.0
4.83,-13760.0,-5888.0,384.0
4.8325,-13696.0,-5824.0,384.0
4.835,-13632.0,-5760.0,384.0
4.8375,-13696.0,-5760.0,384.0
4.84,-13632.0,-5824.0,384.0
4.8425,-13632.0,-5888.0,320.0
4.845,-13568.0,-5824.0,384.0
4.8475,-13568.0,-5888.0,384.0
4.85,-13568.0,-5888.0,384.0
4.8525,-13568.0,-5824.0,448.0
4.855,-13632.0,-5888.0,384.0
4.8575,-13568.0,-5888.0,384.0
4.86,-13632.0,-5888.0,448.0
4.8625,-13696.0,-5888.0,448.0
4.865,-13696.0,-5888.0,448.0
4.8675,-13632.0,-5888.0,512.0
4.87,-13632.0,-5952.0,448.0
4.8725,-13632.0,-5952.0,448.0
4.875,-13632.0,-5888.0,512.0
4.8775,-13696.0,-5888.0,448.0
4.88,-13696.0,-5824.0,448.0
4.8825,-13632.0,-5760.0,512.0
4.885,-13696.0,-5760.0,448.0
4.8875,-13696.0,-5824.0,448.0
4.89,-13760.0,-5888.0,448.0
4.8925,-13760.0,-5824.0,448.0
4.895,-13760.0,-5824.0,448.0
4.8975,-13760.0,-5824.0,448.0
4.9,-13824.0,-5888.0,512.0
4.9025,-13824.0,-5824.0,512.0
4.905,-13888.0,-5888.0,512.0
4.9075,-13952.0,-5952.0,448.0
4.91,-14016.0,-5952.0,512.0
4.9125,-14080.0,-5952.0,448.0
4.915,-14080.0,-5952.0,384.0
4.9175,-14080.0,-5888.0,448.0
4.92,-14080.0,-5952.0,384.0
4.9225,-14144.0,-5952.0,448.0
4.925,-14208.0,-5952.0,512.0
4.9275,-14208.0,-5952.0,448.0
4.93,-14336.0,-5952.0,384.0
4.9325,-14400.0,-5952.0,320.0
4.935,-14400.0,-6016.0,448.0
4.9375,-14464.0,-5952.0,448.0
4.94,-14528.0,-6016.0,448.0
4.9425,-14528.0,-6016.0,384.0
4.945,-14592.0,-6016.0,448.0
4.9475,-14656.0,-6080.0,576.0
4.95,-14720.0,-6144.0,512.0
4.9525,-14784.0,-6144.0,576.0
4.955,-14848.0,-6208.0,512.0
4.9575,-14912.0,-6144.0,576.0
4.96,-14976.0,-6208.0,640.0
4.9625,-15104.0,-6272.0,640.0
4.965,-15104.0,-6208.0,704.0
4.9675,-15168.0,-6272.0,704.0
4.97,-15232.0,-6272.0,704.0
4.9725,-15232.0,-6272.0,640.0
4.975,-15168.0,-6272.0,640.0
4.9775,-15296.0,-6400.0,704.0
4.98,-15296.0,-6400.0,640.0
4.9825,-15296.0,-6400.0,640.0
4.985,-15232.0,-6336.0,576.0
4.9875,-15360.0,-6336.0,704.0
4.99,-15360.0,-6464.0,640.0
4.9925,-15360.0,-6464.0,640.0
4.995,-15360.0,-6464.0,704.0
4.9975,-15488.0,-6528.0,704.0
5.0,-15488.0,-6592.0,768.0
5.0025,-15488.0,-6592.0,704.0
5.005,-15488.0,-6528.0,704.0
5.0075,-15488.0,-6656.0,704.0
5.01,-15488.0,-6656.0,768.0
5.0125,-15488.0,-6720.0,768.0
5.015,-15552.0,-6720.0,704.0
5.0175,-15616.0,-6784.0,768.0
5.02,-15616.0,-6848.0,704.0
5.0225,-15680.0,-6848.0,704.0
5.025,-15680.0,-6912.0,768.0
5.0275,-15744.0,-6848.0,768.0
5.03,-15744.0,-6912.0,768.0
5.0325,-15744.0,-6976.0,768.0
5.035,-15744.0,-6912.0,768.0
5.0375,-15808.0,-6912.0,832.0
5.04,-15872.0,-7040.0,832.0
5.0425,-15872.0,-7040.0,832.0
5.045,-15808.0,-7040.0,896.0
5.0475,-15872.0,-7104.0,896.0
5.05,-15808.0,-7104.0,896.0
5.0525,-15808.0,-7104.0,896.0
5.055,-15808.0,-7104.0,832.0
5.0575,-15808.0,-7168.0,832.0
5.06,-15808.0,-7168.0,832.0
5.0625,-15744.0,-7168.0,832.0
5.065,-15680.0,-7232.0,832.0
5.0675,-15744.0,-7296.0,896.0
5.07,-15680.0,-7296.0,896.0
5.0725,-15680.0,-7296.0,832.0
5.075,-15616.0,-7296.0,832.0
5.0775,-15616.0,-7296.0,832.0
5.08,-15552.0,-7296.0,832.0
5.0825,-15552.0,-7296.0,832.0
5.085,-15488.0,-7296.0,832.0
5.0875,-15488.0,-7296.0,768.0
5.09,-15424.0,-7296.0,704.0
5.0925,-15424.0,-7296.0,704.0
5.095,-15360.0,-7232.0,704.0
5.0975,-15360.0,-7232.0,704.0
5.1,-15232.0,-7296.0,704.0
5.1025,-15104.0,-7232.0,704.0
5.105,-15104.0,-7296.0,768.0
5.1075,-15040.0,-7232.0,768.0
5.11,-14976.0,-7232.0,704.0
5.1125,-14912.0,-7168.0,768.0
5.115,-14784.0,-7168.0,832.0
5.1175,-14720.0,-7168.0,832.0
5.12,-14528.0,-7104.0,704.0
5.1225,-14400.0,-7104.0,640.0
5.125,-14400.0,-7040.0,640.0
5.1275,-14272.0,-7040.0,640.0
5.13,-14208.0,-7040.0,640.0
5.1325,-14144.0,-7040.0,448.0
5.135,-14144.0,-6976.0,448.0
5.1375,-14080.0,-7040.0,512.0
5.14,-14016.0,-7040.0,512.0
5.1425,-14016.0,-7040.0,448.0
5.145,-14016.0,-7040.0,448.0
5.1475,-13952.0,-7040.0,448.0
5.15,-13888.0,-7040.0,448.0
5.1525,-13888.0,-7040.0,448.0
5.155,-13888.0,-7040.0,384.0
5.1575,-13952.0,-7040.0,384.0
5.16,-14016.0,-7040.0,384.0
5.1625,-13952.0,-7104.0,384.0
5.165,-13952.0,-7040.0,384.0
5.1675,-13888.0,-7104.0,384.0
5.17,-13888.0,-7040.0,448.0
5.1725,-13888.0,-7104.0,448.0
5.175,-13824.0,-7040.0,384.0
5.1775,-13824.0,-7040.0,384.0
5.18,-13824.0,-7040.0,448.0
5.1825,-13760.0,-6976.0,512.0
5.185,-13760.0,-7040.0,448.0
5.1875,-13760.0,-7040.0,512.0
5.19,-13760.0,-7040.0,512.0
5.1925,-13760.0,-7040.0,448.0
5.195,-13760.0,-6976.0,384.0
5.1975,-13760.0,-6976.0,320.0
5.2,-13760.0,-6912.0,384.0
5.2025,-13760.0,-6912.0,320.0
5.205,-13760.0,-6976.0,320.0
5.2075,-13696.0,-6912.0,384.0
5.21,-13696.0,-6976.0,384.0
5.2125,-13696.0,-6912.0,320.0
5.215,-13632.0,-6976.0,320.0
5.2175,-13632.0,-6912.0,384.0
5.22,-13632.0,-6976.0,384.0
5.2225,-13632.0,-6912.0,448.0
5.225,-13632.0,-6976.0,448.0
5.2275,-13568.0,-6912.0,384.0
5.23,-13568.0,-6912.0,384.0
5.2325,-13504.0,-6848.0,384.0
5.235,-13504.0,-6848.0,384.0
5.2375,-13504.0,-6848.0,448.0
5.24,-13440.0,-6848.0,512.0
5.2425,-13376.0,-6848.0,448.0
5.245,-13376.0,-6912.0,512.0
5.2475,-13376.0,-6848.0,576.0
5.25,-13248.0,-6848.0,512.0
5.2525,-13248.0,-6784.0,512.0
5.255,-13184.0,-6720.0,512.0
5.2575,-13184.0,-6720.0,512.0
5.26,-13120.0,-6656.0,512.0
5.2625,-13120.0,-6720.0,448.0
5.265,-13056.0,-6720.0,512.0
5.2675,-13056.0,-6656.0,448.0
5.27,-12992.0,-6656.0,448.0
5.2725,-12992.0,-6656.0,512.0
5.275,-12928.0,-6592.0,448.0
5.2775,-12864.0,-6592.0,448.0
5.28,-12928.0,-6592.0,384.0
5.2825,-12928.0,-6528.0,448.0
5.285,-12928.0,-6592.0,512.0
5.2875,-12928.0,-6592.0,512.0
5.29,-12928.0,-6528.0,512.0
5.2925,-12928.0,-6464.0,512.0
5.295,-12928.0,-6464.0,512.0
5.2975,-12864.0,-6464.0,512.0
5.3,-12800.0,-6464.0,576.0
5.3025,-12800.0,-6400.0,576.0
5.305,-12864.0,-6400.0,576.0
5.3075,-12800.0,-6464.0,576.0
5.31,-12864.0,-6464.0,576.0
5.3125,-12800.0,-6528.0,512.0
5.315,-12864.0,-6528.0,512.0
5.3175,-12864.0,-6464.0,576.0
5.32,-12864.0,-6464.0,512.0
5.3225,-12864.0,-6400.0,512.0
5.325,-12864.0,-6464.0,512.0
5.3275,-12928.0,-6400.0,576.0
5.33,-12928.0,-6400.0,512.0
5.3325,-12992.0,-6400.0,576.0
5.335,-12992.0,-6464.0,512.0
5.3375,-13056.0,-6400.0,576.0
5.34,-13056.0,-6464.0,640.0
5.3425,-13056.0,-6464.0,640.0
5.345,-13056.0,-6464.0,512.0
5.3475,-13184.0,-6528.0,576.0
5.35,-13184.0,-6528.0,512.0
5.3525,-13248.0,-6528.0,512.0
5.355,-13312.0,-6528.0,512.0
5.3575,-13312.0,-6592.0,576.0
5.36,-13504.0,-6592.0,448.0
5.3625,-13632.0,-6656.0,448.0
5.365,-13696.0,-6656.0,512.0
5.3675,-13824.0,-6720.0,512.0
5.37,-13888.0,-6656.0,512.0
5.3725,-14016.0,-6720.0,512.0
5.375,-14016.0,-6784.0,576.0
5.3775,-14016.0,-6848.0,576.0
5.38,-14144.0,-6912.0,512.0
5.3825,-14144.0,-6912.0,512.0
5.385,-14272.0,-6912.0,512.0
5.3875,-14336.0,-6976.0,512.0
5.39,-14400.0,-7040.0,512.0
5.3925,-14464.0,-7040.0,512.0
5.395,-14528.0,-7040.0,512.0
5.3975,-14592.0,-7040.0,512.0
5.4,-14592.0,-7040.0,512.0
5.4025,-14592.0,-7040.0,576.0
5.405,-14656.0,-7104.0,512.0
5.4075,-14656.0,-7104.0,512.0
5.41,-14656.0,-7040.0,576.0
5.4125,-14656.0,-7040.0,576.0
5.415,-14720.0,-7040.0,640.0
5.4175,-14720.0,-7040.0,576.0
5.42,-14784.0,-7168.0,576.0
5.4225,-14656.0,-7104.0,576.0
5.425,-14656.0,-7168.0,640.0
5.4275,-14656.0,-7168.0,576.0
5.43,-14592.0,-7104.0,512.0
5.4325,-14656.0,-7168.0,576.0
5.435,-14656.0,-7104.0,576.0
5.4375,-14592.0,-7168.0,512.0
5.44,-14656.0,-7168.0,512.0
5.4425,-14656.0,-7168.0,512.0
5.445,-14656.0,-7104.0,512.0
5.4475,-14592.0,-7168.0,576.0
5.45,-14592.0,-7168.0,576.0
5.4525,-14592.0,-7104.0,512.0
5.455,-14592.0,-7232.0,576.0
5.4575,-14592.0,-7104.0,512.0
5.46,-14592.0,-7168.0,512.0
5.4625,-14464.0,-7104.0,576.0
5.465,-14464.0,-7104.0,576.0
5.4675,-14464.0,-7104.0,512.0
5.47,-14464.0,-7104.0,576.0
5.4725,-14400.0,-7104.0,640.0
5.475,-14336.0,-7104.0,640.0
5.4775,-14272.0,-7104.0,640.0
5.48,-14272.0,-7104.0,704.0
5.4825,-14272.0,-7040.0,640.0
5.485,-14208.0,-7040.0,576.0
5.4875,-14208.0,-7040.0,512.0
5.49,-14080.0,-7040.0,640.0
5.4925,-14080.0,-6976.0,576.0
5.495,-14016.0,-6976.0,512.0
5.4975,-14016.0,-6976.0,512.0
5.5,-13952.0,-6976.0,512.0
5.5025,-14016.0,-6976.0,512.0
5.505,-14016.0,-6976.0,512.0
5.5075,-14080.0,-6912.0,512.0
5.51,-14080.0,-6912.0,448.0
5.5125,-14080.0,-6912.0,448.0
5.515,-14080.0,-6912.0,512.0
5.5175,-14080.0,-6912.0,512.0
5.52,-14144.0,-6912.0,512.0
5.5225,-14144.0,-6848.0,512.0
5.525,-14208.0,-6848.0,448.0
5.5275,-14272.0,-6848.0,448.0
5.53,-14336.0,-6912.0,448.0
5.5325,-14400.0,-6912.0,448.0
5.535,-14464.0,-6848.0,512.0
5.5375,-14528.0,-6848.0,512.0
5.54,-14592.0,-6848.0,512.0
5.5425,-14720.0,-6848.0,576.0
5.545,-14720.0,-6848.0,512.0
5.5475,-14784.0,-6848.0,512.0
5.55,-14848.0,-6848.0,512.0
5.5525,-14976.0,-6848.0,448.0
5.555,-15040.0,-6848.0,448.0
5.5575,-15104.0,-6912.0,448.0
5.56,-15168.0,-6976.0,448.0
5.5625,-15232.0,-6912.0,448.0
5.565,-15296.0,-6976.0,512.0
5.5675,-15296.0,-6912.0,512.0
5.57,-15360.0,-6912.0,512.0
5.5725,-15424.0,-6912.0,512.0
5.575,-15424.0,-6912.0,576.0
5.5775,-15424.0,-6848.0,576.0
5.58,-15424.0,-6848.0,640.0
5.5825,-15424.0,-6784.0,704.0
5.585,-15360.0,-6784.0,704.0
5.5875,-15296.0,-6720.0,704.0
5.59,-15296.0,-6720.0,832.0
5.5925,-15168.0,-6656.0,704.0
5.595,-15168.0,-6656.0,704.0
5.5975,-15168.0,-6592.0,704.0
5.6,-14976.0,-6528.0,704.0
5.6025,-14976.0,-6528.0,768.0
5.605,-14912.0,-6464.0,768.0
5.6075,-14848.0,-6464.0,704.0
5.61,-14784.0,-6464.0,704.0
5.6125,-14720.0,-6528.0,640.0
5.615,-14720.0,-6464.0,704.0
5.6175,-14656.0,-6464.0,640.0
5.62,-14592.0,-6400.0,640.0
5.6225,-14656.0,-6400.0,640.0
5.625,-14592.0,-6464.0,576.0
5.6275,-14592.0,-6464.0,576.0
5.63,-14592.0,-6464.0,576.0
5.6325,-14656.0,-6464.0,576.0
5.635,-14592.0,-6400.0,640.0
5.6375,-14592.0,-6400.0,512.0
5.64,-14528.0,-6400.0,512.0
5.6425,-14592.0,-6400.0,576.0
5.645,-14592.0,-6400.0,640.0
5.6475,-14720.0,-6464.0,512.0
5.65,-14720.0,-6400.0,576.0
5.6525,-14720.0,-6400.0,576.0
5.655,-14784.0,-6336.0,576.0
5.6575,-14784.0,-6272.0,640.0
5.66,-14848.0,-6336.0,576.0
5.6625,-14848.0,-6272.0,576.0
5.665,-14848.0,-6272.0,576.0
5.6675,-15104.0,-6272.0,576.0
5.67,-15040.0,-6272.0,512.0
5.6725,-15168.0,-6272.0,512.0
5.675,-15104.0,-6336.0,576.0
5.6775,-15104.0,-6272.0,512.0
5.68,-15168.0,-6272.0,512.0
5.6825,-15168.0,-6272.0,512.0
5.685,-15232.0,-6272.0,512.0
5.6875,-15296.0,-6272.0,448.0
5.69,-15232.0,-6208.0,448.0
5.6925,-15296.0,-6208.0,512.0
5.695,-15296.0,-6144.0,576.0
5.6975,-15360.0,-6080.0,576.0
5.7,-15424.0,-6144.0,512.0
5.7025,-15488.0,-6144.0,576.0
5.705,-15424.0,-6144.0,448.0
5.7075,-15424.0,-6080.0,448.0
5.71,-15424.0,-6080.0,384.0
5.7125,-15424.0,-6016.0,448.0
5.715,-15488.0,-6080.0,512.0
5.7175,-15552.0,-6080.0,448.0
5.72,-15616.0,-6080.0,384.0
5.7225,-15616.0,-6080.0,448.0
5.725,-15616.0,-6144.0,448.0
5.7275,-15680.0,-6208.0,448.0
5.73,-15616.0,-6208.0,384.0
5.7325,-15680.0,-6208.0,384.0
5.735,-15680.0,-6272.0,384.0
5.7375,-15680.0,-6272.0,320.0
5.74,-15680.0,-6272.0,320.0
5.7425,-15680.0,-6272.0,384.0
5.745,-15680.0,-6272.0,448.0
5.7475,-15680.0,-6272.0,512.0
5.75,-15680.0,-6272.0,512.0
5.7525,-15616.0,-6336.0,512.0
5.755,-15616.0,-6336.0,448.0
5.7575,-15552.0,-6336.0,448.0
5.76,-15616.0,-6336.0,320.0
5.7625,-15616.0,-6336.0,256.0
5.765,-15488.0,-6272.0,320.0
5.7675,-15552.0,-6272.0,192.0
5.77,-15488.0,-6272.0,192.0
5.7725,-15488.0,-6272.0,192.0
5.775,-15488.0,-6272.0,192.0
5.7775,-15424.0,-6272.0,192.0
5.78,-15424.0,-6208.0,128.0
5.7825,-15424.0,-6272.0,192.0
5.785,-15424.0,-6272.0,192.0
5.7875,-15424.0,-6272.0,192.0
5.79,-15360.0,-6208.0,128.0
5.7925,-15360.0,-6208.0,192.0
5.795,-15296.0,-6272.0,192.0
5.7975,-15232.0,-6208.0,192.0
5.8,-15232.0,-6208.0,256.0
5.8025,-15168.0,-6208.0,256.0
5.805,-15104.0,-6208.0,256.0
5.8075,-15040.0,-6144.0,256.0
5.81,-15040.0,-6080.0,192.0
5.8125,-14976.0,-6144.0,256.0
5.815,-14976.0,-6080.0,256.0
5.8175,-14848.0,-6080.0,256.0
5.82,-14848.0,-6080.0,320.0
5.8225,-14784.0,-6016.0,256.0
5.825,-14656.0,-6016.0,256.0
5.8275,-14592.0,-6016.0,192.0
5.83,-14592.0,-5952.0,192.0
5.8325,-14528.0,-6016.0,192.0
5.835,-14528.0,-5952.0,256.0
5.8375,-14464.0,-5952.0,128.0
5.84,-14400.0,-5952.0,256.0
5.8425,-14400.0,-5952.0,128.0
5.845,-14400.0,-6016.0,192.0
5.8475,-14464.0,-6016.0,128.0
5.85,-14464.0,-6016.0,128.0
5.8525,-14528.0,-6016.0,128.0
5.855,-14528.0,-6080.0,192.0
5.8575,-14592.0,-6080.0,128.0
5.86,-14720.0,-6080.0,128.0
5.8625,-14720.0,-6080.0,128.0
5.865,-14720.0,-6080.0,128.0
5.8675,-14784.0,-6144.0,128.0
5.87,-14784.0,-6144.0,192.0
5.8725,-14848.0,-6080.0,192.0
5.875,-14848.0,-6080.0,192.0
5.8775,-14848.0,-6080.0,192.0
5.88,-14784.0,-6080.0,192.0
5.8825,-14784.0,-6080.0,192.0
5.885,-14784.0,-6144.0,192.0
5.8875,-14720.0,-6080.0,128.0
5.89,-14784.0,-6080.0,128.0
5.8925,-14784.0,-6016.0,192.0
5.895,-14784.0,-6016.0,128.0
5.8975,-14912.0,-6016.0,128.0
5.9,-14912.0,-6016.0,128.0
5.9025,-14912.0,-6080.0,128.0
5.905,-14784.0,-6144.0,192.0
5.9075,-14848.0,-6080.0,256.0
5.91,-14848.0,-6080.0,192.0
5.9125,-14848.0,-6080.0,192.0
5.915,-14848.0,-6080.0,128.0
5.9175,-14848.0,-6080.0,192.0
5.92,-14784.0,-6080.0,192.0
5.9225,-14784.0,-6016.0,256.0
5.925,-14848.0,-6016.0,192.0
5.9275,-14912.0,-6016.0,128.0
5.93,-14976.0,-6016.0,128.0
5.9325,-14912.0,-6016.0,128.0
5.935,-14912.0,-6016.0,192.0
5.9375,-14912.0,-6016.0,192.0
5.94,-14912.0,-6016.0,192.0
5.9425,-14848.0,-5952.0,128.0
5.945,-14848.0,-5952.0,128.0
5.9475,-14848.0,-5952.0,128.0
5.95,-14784.0,-5952.0,192.0
5.9525,-14784.0,-5952.0,128.0
5.955,-14784.0,-5888.0,128.0
5.9575,-14720.0,-5952.0,64.0
5.96,-14784.0,-5952.0,64.0
5.9625,-14720.0,-6016.0,64.0
5.965,-14720.0,-5952.0,64.0
5.9675,-14720.0,-5952.0,192.0
5.97,-14656.0,-6016.0,128.0
5.9725,-14656.0,-6016.0,128.0
5.975,-14592.0,-6016.0,128.0
5.9775,-14592.0,-6016.0,64.0
5.98,-14464.0,-6016.0,64.0
5.9825,-14528.0,-6080.0,64.0
5.985,-14464.0,-6080.0,128.0
5.9875,-14464.0,-6080.0,64.0
5.99,-14464.0,-6144.0,64.0
5.9925,-14464.0,-6080.0,0.0
5.995,-14464.0,-6144.0,64.0
5.9975,-14464.0,-6080.0,0.0
6.0,-14528.0,-6016.0,-64.0
6.0025,-14528.0,-6080.0,0.0
6.005,-14528.0,-6144.0,0.0
6.0075,-14464.0,-6080.0,-64.0
6.01,-14528.0,-6016.0,-64.0
6.0125,-14528.0,-6080.0,-64.0
6.015,-14528.0,-6080.0,-64.0
6.0175,-14592.0,-6016.0,-64.0
6.02,-14592.0,-6080.0,-64.0
6.0225,-14656.0,-6080.0,-64.0
6.025,-14656.0,-6080.0,-64.0
6.0275,-14656.0,-6144.0,-64.0
6.03,-14656.0,-6144.0,-64.0
6.0325,-14720.0,-6144.0,-64.0
6.035,-14720.0,-6208.0,-64.0
6.0375,-14720.0,-6144.0,-64.0
6.04,-14784.0,-6208.0,-64.0
6.0425,-14784.0,-6144.0,-64.0
6.045,-14784.0,-6208.0,-64.0
6.0475,-14848.0,-6272.0,-64.0
6.05,-14976.0,-6272.0,-64.0
6.0525,-15040.0,-6272.0,-64.0
6.055,-14976.0,-6272.0,-64.0
6.0575,-15040.0,-6336.0,0.0
6.06,-15104.0,-6336.0,0.0
6.0625,-15104.0,-6400.0,-64.0
6.065,-15104.0,-6336.0,0.0
6.0675,-15104.0,-6336.0,0.0
6.07,-15168.0,-6400.0,64.0
6.0725,-15104.0,-6400.0,64.0
6.075,-15104.0,-6336.0,0.0
6.0775,-15168.0,-6400.0,0.0
6.08,-15104.0,-6400.0,0.0
6.0825,-15104.0,-6400.0,0.0
6.085,-15104.0,-6400.0,-64.0
6.0875,-15104.0,-6400.0,-64.0
6.09,-15104.0,-6528.0,-64.0
6.0925,-15104.0,-6464.0,-128.0
6.095,-15040.0,-6528.0,-128.0
6.0975,-15040.0,-6464.0,-192.0
6.1,-15104.0,-6464.0,-192.0
6.1025,-15104.0,-6464.0,-128.0
6.105,-15040.0,-6464.0,-192.0
6.1075,-15040.0,-6464.0,-128.0
6.11,-15104.0,-6464.0,-64.0
6.1125,-15104.0,-6464.0,-128.0
6.115,-14976.0,-6528.0,-64.0
6.1175,-14976.0,-6464.0,-128.0
6.12,-14912.0,-6464.0,-128.0
6.1225,-14848.0,-6400.0,-64.0
6.125,-14784.0,-6400.0,-64.0
6.1275,-14720.0,-6400.0,0.0
6.13,-14656.0,-6400.0,-64.0
6.1325,-14656.0,-6400.0,-64.0
6.135,-14592.0,-6400.0,0.0
6.1375,-14528.0,-6464.0,-64.0
6.14,-14464.0,-6400.0,-64.0
6.1425,-14400.0,-6336.0,-128.0
6.145,-14400.0,-6272.0,-128.0
6.1475,-14336.0,-6336.0,-64.0
6.15,-14336.0,-6272.0,0.0
6.1525,-14272.0,-6272.0,64.0
6.155,-14272.0,-6336.0,64.0
6.1575,-14208.0,-6336.0,64.0
6.16,-14272.0,-6272.0,0.0
6.1625,-14272.0,-6272.0,64.0
6.165,-14272.0,-6272.0,64.0
6.1675,-14272.0,-6272.0,128.0
6.17,-14272.0,-6336.0,128.0
6.1725,-14272.0,-6336.0,192.0
6.175,-14272.0,-6336.0,128.0
6.1775,-14272.0,-6336.0,128.0
6.18,-14272.0,-6400.0,128.0
6.1825,-14272.0,-6400.0,128.0
6.185,-14272.0,-6336.0,128.0
6.1875,-14272.0,-6336.0,128.0
6.19,-14208.0,-6272.0,128.0
6.1925,-14272.0,-6272.0,128.0
6.195,-14272.0,-6272.0,192.0
6.1975,-14208.0,-6272.0,192.0
6.2,-14208.0,-6272.0,192.0
6.2025,-14208.0,-6272.0,128.0
6.205,-14144.0,-6272.0,128.0
6.2075,-14080.0,-6272.0,128.0
6.21,-14080.0,-6208.0,128.0
6.2125,-14080.0,-6272.0,128.0
6.215,-14080.0,-6208.0,192.0
6.2175,-14080.0,-6272.0,192.0
6.22,-14080.0,-6272.0,256.0
6.2225,-14080.0,-6272.0,192.0
6.225,-14080.0,-6272.0,192.0
6.2275,-14080.0,-6336.0,192.0
6.23,-14080.0,-6336.0,128.0
6.2325,-14144.0,-6400.0,192.0
6.235,-14080.0,-6464.0,192.0
6.2375,-14144.0,-6400.0,192.0
6.24,-14272.0,-6400.0,192.0
6.2425,-14272.0,-6464.0,128.0
6.245,-14336.0,-6464.0,128.0
6.2475,-14272.0,-6528.0,192.0
6.25,-14336.0,-6528.0,128.0
6.2525,-14336.0,-6528.0,192.0
6.255,-14336.0,-6592.0,192.0
6.2575,-14336.0,-6528.0,192.0
6.26,-14336.0,-6528.0,192.0
6.2625,-14336.0,-6592.0,128.0
6.265,-14400.0,-6592.0,128.0
6.2675,-14336.0,-6656.0,192.0
6.27,-14400.0,-6720.0,192.0
6.2725,-14400.0,-6720.0,192.0
6.275,-14400.0,-6720.0,192.0
6.2775,-14464.0,-6784.0,192.0
6.28,-14464.0,-6720.0,192.0
6.2825,-14400.0,-6720.0,192.0
6.285,-14464.0,-6656.0,256.0
6.2875,-14464.0,-6720.0,256.0
6.29,-14464.0,-6720.0,256.0
6.2925,-14400.0,-6720.0,256.0
6.295,-14400.0,-6784.0,320.0
6.2975,-14336.0,-6784.0,320.0
6.3,-14272.0,-6784.0,320.0
6.3025,-14272.0,-6720.0,320.0
6.305,-14272.0,-6720.0,384.0
6.3075,-14208.0,-6720.0,320.0
6.31,-14208.0,-6784.0,256.0
6.3125,-14208.0,-6720.0,320.0
6.315,-14144.0,-6720.0,256.0
6.3175,-14208.0,-6784.0,384.0
6.32,-14272.0,-6784.0,384.0
6.3225,-14208.0,-6784.0,384.0
6.325,-14208.0,-6784.0,384.0
6.3275,-14208.0,-6848.0,384.0
6.33,-14272.0,-6912.0,384.0
6.3325,-14272.0,-6912.0,448.0
6.335,-14272.0,-6912.0,448.0
6.3375,-14272.0,-6976.0,448.0
6.34,-14272.0,-7040.0,448.0
6.3425,-14272.0,-6976.0,512.0
6.345,-14336.0,-7104.0,576.0
6.3475,-14272.0,-7040.0,576.0
6.35,-14272.0,-7040.0,512.0
6.3525,-14336.0,-7104.0,512.0
6.355,-14336.0,-7168.0,512.0
6.3575,-14336.0,-7168.0,448.0
6.36,-14272.0,-7168.0,448.0
6.3625,-14272.0,-7168.0,448.0
6.365,-14336.0,-7168.0,448.0
6.3675,-14336.0,-7168.0,448.0
6.37,-14336.0,-7232.0,384.0
6.3725,-14336.0,-7232.0,384.0
6.375,-14336.0,-7232.0,448.0
6.3775,-14336.0,-7296.0,384.0
6.38,-14336.0,-7296.0,384.0
6.3825,-14336.0,-7360.0,448.0
6.385,-14400.0,-7296.0,384.0
6.3875,-14400.0,-7232.0,384.0
6.39,-14336.0,-7296.0,384.0
6.3925,-14272.0,-7296.0,384.0
6.395,-14336.0,-7296.0,384.0
6.3975,-14272.0,-7232.0,320.0
6.4,-14400.0,-7232.0,384.0
6.4025,-14400.0,-7232.0,384.0
6.405,-14400.0,-7232.0,320.0
6.4075,-14400.0,-7232.0,256.0
6.41,-14464.0,-7232.0,192.0
6.4125,-14464.0,-7296.0,128.0
6.415,-14528.0,-7360.0,128.0
6.4175,-14528.0,-7360.0,192.0
6.42,-14528.0,-7360.0,128.0
6.4225,-14592.0,-7360.0,128.0
6.425,-14720.0,-7424.0,64.0
6.4275,-14720.0,-7424.0,64.0
6.43,-14784.0,-7424.0,64.0
6.4325,-14848.0,-7360.0,128.0
6.435,-14848.0,-7424.0,128.0
6.4375,-14976.0,-7424.0,128.0
6.44,-14976.0,-7488.0,128.0
6.4425,-14976.0,-7488.0,128.0
6.445,-15104.0,-7488.0,192.0
6.4475,-15104.0,-7552.0,64.0
6.45,-15104.0,-7488.0,128.0
6.4525,-15104.0,-7616.0,128.0
6.455,-15104.0,-7616.0,192.0
6.4575,-15040.0,-7616.0,192.0
6.46,-15040.0,-7680.0,192.0
6.4625,-15040.0,-7680.0,192.0
6.465,-14976.0,-7680.0,192.0
6.4675,-14976.0,-7680.0,192.0
6.47,-14848.0,-7744.0,128.0
6.4725,-14848.0,-7744.0,64.0
6.475,-14784.0,-7808.0,128.0
6.4775,-14720.0,-7808.0,128.0
6.48,-14656.0,-7808.0,0.0
6.4825,-14592.0,-7872.0,64.0
6.485,-14464.0,-7808.0,64.0
6.4875,-14336.0,-7872.0,0.0
6.49,-14272.0,-7872.0,-64.0
6.4925,-14144.0,-7936.0,-64.0
6.495,-14016.0,-7872.0,0.0
6.4975,-13952.0,-7936.0,-64.0
6.5,-13888.0,-7872.0,0.0
6.5025,-13824.0,-7936.0,64.0
6.505,-13824.0,-7872.0,0.0
6.5075,-13824.0,-7872.0,0.0
6.51,-13760.0,-7872.0,0.0
6.5125,-13824.0,-7936.0,-64.0
6.515,-13888.0,-7936.0,-64.0
6.5175,-13952.0,-7936.0,-128.0
6.52,-14080.0,-8000.0,-192.0
6.5225,-14208.0,-8000.0,-128.0
6.525,-14336.0,-8128.0,-256.0
6.5275,-14400.0,-8192.0,-192.0
6.53,-14464.0,-8256.0,-256.0
6.5325,-14528.0,-8384.0,-256.0
6.535,-14528.0,-8384.0,-256.0
6.5375,-14656.0,-8384.0,-320.0
6.54,-14656.0,-8448.0,-320.0
6.5425,-14720.0,-8512.0,-384.0
6.545,-14656.0,-8512.0,-384.0
6.5475,-14656.0,-8640.0,-320.0
6.55,-14592.0,-8576.0,-320.0
6.5525,-14528.0,-8576.0,-320.0
6.555,-14592.0,-8576.0,-320.0
6.5575,-14528.0,-8512.0,-384.0
6.56,-14400.0,-8512.0,-448.0
6.5625,-14336.0,-8512.0,-384.0
6.565,-14336.0,-8512.0,-320.0
6.5675,-14272.0,-8512.0,-320.0
6.57,-14208.0,-8512.0,-320.0
6.5725,-14144.0,-8576.0,-320.0
6.575,-14080.0,-8576.0,-320.0
6.5775,-14080.0,-8576.0,-384.0
6.58,-13952.0,-8640.0,-320.0
6.5825,-13952.0,-8640.0,-384.0
6.585,-13888.0,-8640.0,-384.0
6.5875,-13824.0,-8640.0,-320.0
6.59,-13696.0,-8704.0,-320.0
6.5925,-13632.0,-8704.0,-384.0
6.595,-13568.0,-8768.0,-448.0
6.5975,-13568.0,-8768.0,-448.0
6.6,-13504.0,-8768.0,-448.0
6.6025,-13440.0,-8896.0,-448.0
6.605,-13440.0,-8896.0,-448.0
6.6075,-13440.0,-8960.0,-448.0
6.61,-13504.0,-8896.0,-576.0
6.6125,-13440.0,-8896.0,-576.0
6.615,-13440.0,-9024.0,-640.0
6.6175,-13440.0,-9024.0,-640.0
6.62,-13504.0,-9024.0,-640.0
6.6225,-13568.0,-9024.0,-640.0
6.625,-13632.0,-9088.0,-704.0
6.6275,-13632.0,-9088.0,-768.0
6.63,-13632.0,-9152.0,-768.0
6.6325,-13696.0,-9216.0,-768.0
6.635,-13760.0,-9280.0,-768.0
6.6375,-13760.0,-9344.0,-832.0
6.64,-13824.0,-9344.0,-896.0
6.6425,-13824.0,-9408.0,-832.0
6.645,-13824.0,-9472.0,-832.0
6.6475,-13824.0,-9536.0,-960.0
6.65,-13824.0,-9536.0,-1024.0
6.6525,-13760.0,-9536.0,-1024.0
6.655,-13696.0,-9600.0,-1024.0
6.6575,-13760.0,-9600.0,-960.0
6.66,-13760.0,-9536.0,-960.0
6.6625,-13760.0,-9600.0,-960.0
6.665,-13760.0,-9600.0,-960.0
6.6675,-13760.0,-9536.0,-960.0
6.67,-13760.0,-9600.0,-960.0
6.6725,-13888.0,-9600.0,-960.0
6.675,-13888.0,-9664.0,-896.0
6.6775,-13952.0,-9728.0,-960.0
6.68,-13952.0,-9728.0,-960.0
6.6825,-14016.0,-9792.0,-896.0
6.685,-14016.0,-9856.0,-896.0
6.6875,-14080.0,-9856.0,-1024.0
6.69,-14080.0,-9920.0,-960.0
6.6925,-14144.0,-9984.0,-1024.0
6.695,-14208.0,-9984.0,-1088.0
6.6975,-14208.0,-9984.0,-1024.0
6.7,-14272.0,-10048.0,-1024.0
6.7025,-14272.0,-10112.0,-960.0
6.705,-14336.0,-10048.0,-960.0
6.7075,-14336.0,-10048.0,-960.0
6.71,-14336.0,-10112.0,-1088.0
6.7125,-14336.0,-10112.0,-1024.0
6.715,-14400.0,-10176.0,-1024.0
6.7175,-14400.0,-10112.0,-1024.0
6.72,-14464.0,-10176.0,-1152.0
6.7225,-14528.0,-10176.0,-1152.0
6.725,-14528.0,-10176.0,-1152.0
6.7275,-14528.0,-10176.0,-1216.0
6.73,-14592.0,-10176.0,-1152.0
6.7325,-14528.0,-10240.0,-1152.0
6.735,-14528.0,-10240.0,-1152.0
6.7375,-14464.0,-10240.0,-1216.0
6.74,-14528.0,-10304.0,-1088.0
6.7425,-14528.0,-10304.0,-1024.0
6.745,-14464.0,-10368.0,-1152.0
6.7475,-14464.0,-10304.0,-1152.0
6.75,-14464.0,-10304.0,-1088.0
6.7525,-14464.0,-10304.0,-1152.0
6.755,-14528.0,-10368.0,-1088.0
6.7575,-14528.0,-10304.0,-1152.0
6.76,-14464.0,-10304.0,-1088.0
6.7625,-14464.0,-10368.0,-1024.0
6.765,-14464.0,-10304.0,-1024.0
6.7675,-14464.0,-10368.0,-960.0
6.77,-14400.0,-10368.0,-960.0
6.7725,-14400.0,-10368.0,-960.0
6.775,-14400.0,-10368.0,-1024.0
6.7775,-14400.0,-10304.0,-960.0
6.78,-14400.0,-10240.0,-960.0
6.7825,-14336.0,-10240.0,-1024.0
6.785,-14400.0,-10176.0,-1024.0
6.7875,-14144.0,-10176.0,-1024.0
6.79,-14272.0,-10176.0,-960.0
6.7925,-14336.0,-10112.0,-960.0
6.795,-14336.0,-10176.0,-896.0
6.7975,-14336.0,-10176.0,-1024.0
6.8,-14336.0,-10240.0,-1024.0
6.8025,-14336.0,-10240.0,-960.0
6.805,-14400.0,-10240.0,-960.0
6.8075,-14400.0,-10240.0,-1024.0
6.81,-14528.0,-10240.0,-960.0
6.8125,-14528.0,-10240.0,-896.0
6.815,-14528.0,-10240.0,-1024.0
6.8175,-14528.0,-10240.0,-960.0
6.82,-14528.0,-10304.0,-1024.0
6.8225,-14464.0,-10240.0,-960.0
6.825,-14528.0,-10240.0,-1024.0
6.8275,-14592.0,-10304.0,-960.0
6.83,-14592.0,-10304.0,-960.0
6.8325,-14656.0,-10304.0,-896.0
6.835,-14592.0,-10304.0,-960.0
6.8375,-14592.0,-10304.0,-896.0
6.84,-14592.0,-10304.0,-896.0
6.8425,-14656.0,-10304.0,-960.0
6.845,-14656.0,-10304.0,-896.0
6.8475,-14656.0,-10304.0,-960.0
6.85,-14592.0,-10304.0,-896.0
6.8525,-14528.0,-10304.0,-896.0
6.855,-14528.0,-10304.0,-960.0
6.8575,-14528.0,-10368.0,-896.0
6.86,-14464.0,-10368.0,-896.0
6.8625,-14400.0,-10432.0,-960.0
6.865,-14400.0,-10368.0,-896.0
6.8675,-14336.0,-10432.0,-960.0
6.87,-14272.0,-10368.0,-832.0
6.8725,-14272.0,-10432.0,-896.0
6.875,-14208.0,-10432.0,-832.0
6.8775,-14144.0,-10432.0,-960.0
6.88,-14144.0,-10432.0,-960.0
6.8825,-14080.0,-10368.0,-896.0
6.885,-14016.0,-10368.0,-896.0
6.8875,-14016.0,-10368.0,-896.0
6.89,-13952.0,-10304.0,-960.0
6.8925,-13952.0,-10368.0,-960.0
6.895,-13952.0,-10368.0,-1024.0
6.8975,-13888.0,-10368.0,-1024.0
6.9,-13888.0,-10304.0,-1024.0
6.9025,-13952.0,-10368.0,-960.0
6.905,-13952.0,-10368.0,-1024.0
6.9075,-14016.0,-10368.0,-1024.0
6.91,-14080.0,-10368.0,-1088.0
6.9125,-14080.0,-10432.0,-1088.0
6.915,-14144.0,-10368.0,-1088.0
6.9175,-14144.0,-10368.0,-1088.0
6.92,-14144.0,-10432.0,-1024.0
6.9225,-14144.0,-10432.0,-1024.0
6.925,-14208.0,-10432.0,-1024.0
6.9275,-14272.0,-10496.0,-1088.0
6.93,-14208.0,-10496.0,-1088.0
6.9325,-14208.0,-10496.0,-1216.0
6.935,-14272.0,-10496.0,-1088.0
6.9375,-14272.0,-10496.0,-1088.0
6.94,-14272.0,-10432.0,-1024.0
6.9425,-14272.0,-10432.0,-1088.0
6.945,-14336.0,-10432.0,-1152.0
6.9475,-14272.0,-10432.0,-1152.0
6.95,-14336.0,-10496.0,-1088.0
6.9525,-14336.0,-10496.0,-960.0
6.955,-14272.0,-10496.0,-960.0
6.9575,-14208.0,-10432.0,-960.0
6.96,-14272.0,-10368.0,-896.0
6.9625,-14208.0,-10368.0,-768.0
6.965,-14080.0,-10304.0,-896.0
6.9675,-14080.0,-10304.0,-896.0
6.97,-14016.0,-10304.0,-832.0
6.9725,-13952.0,-10240.0,-896.0
6.975,-13824.0,-10304.0,-832.0
6.9775,-13824.0,-10304.0,-832.0
6.98,-13696.0,-10304.0,-768.0
6.9825,-13632.0,-10176.0,-704.0
6.985,-13504.0,-10176.0,-768.0
6.9875,-13504.0,-10176.0,-704.0
6.99,-13376.0,-10176.0,-640.0
6.9925,-13312.0,-10176.0,-640.0
6.995,-13184.0,-10112.0,-576.0
6.9975,-13120.0,-10048.0,-576.0
7.0,-13056.0,-10112.0,-512.0
7.0025,-12992.0,-10048.0,-576.0
7.005,-12992.0,-10048.0,-576.0
7.0075,-12992.0,-10048.0,-512.0
7.01,-12800.0,-10048.0,-576.0
7.0125,-12800.0,-10048.0,-576.0
7.015,-12736.0,-10048.0,-512.0
7.0175,-12736.0,-10048.0,-512.0
7.02,-12672.0,-10048.0,-512.0
7.0225,-12672.0,-9984.0,-576.0
7.025,-12608.0,-10048.0,-640.0
7.0275,-12480.0,-10048.0,-576.0
7.03,-12480.0,-9984.0,-640.0
7.0325,-12416.0,-9984.0,-640.0
7.035,-12416.0,-9984.0,-640.0
7.0375,-12352.0,-9920.0,-704.0
7.04,-12416.0,-9920.0,-768.0
7.0425,-12352.0,-9920.0,-640.0
7.045,-12288.0,-9920.0,-704.0
7.0475,-12288.0,-9856.0,-704.0
7.05,-12352.0,-9856.0,-768.0
7.0525,-12288.0,-9856.0,-768.0
7.055,-12288.0,-9856.0,-768.0
7.0575,-12224.0,-9856.0,-768.0
7.06,-12160.0,-9856.0,-704.0
7.0625,-12160.0,-9920.0,-704.0
7.065,-12160.0,-9856.0,-768.0
7.0675,-12160.0,-9920.0,-640.0
7.07,-12160.0,-9920.0,-704.0
7.0725,-12096.0,-9920.0,-704.0
7.075,-12096.0,-9984.0,-640.0
7.0775,-12096.0,-9920.0,-640.0
7.08,-12160.0,-9984.0,-576.0
7.0825,-12096.0,-9984.0,-576.0
7.085,-12096.0,-9984.0,-512.0
7.0875,-12160.0,-9984.0,-640.0
7.09,-12160.0,-9920.0,-576.0
7.0925,-12160.0,-9920.0,-576.0
7.095,-12096.0,-9984.0,-576.0
7.0975,-12160.0,-9984.0,-512.0
7.1,-12224.0,-9984.0,-576.0
7.1025,-12224.0,-9984.0,-640.0
7.105,-12160.0,-10048.0,-704.0
7.1075,-12160.0,-10048.0,-768.0
7.11,-12224.0,-10048.0,-768.0
7.1125,-12224.0,-10048.0,-832.0
7.115,-12288.0,-10048.0,-896.0
7.1175,-12288.0,-10048.0,-896.0
7.12,-12352.0,-10112.0,-960.0
7.1225,-12352.0,-10112.0,-1024.0
7.125,-12288.0,-10112.0,-960.0
7.1275,-12352.0,-10048.0,-1024.0
7.13,-12352.0,-10048.0,-1024.0
7.1325,-12352.0,-10112.0,-960.0
7.135,-12416.0,-10112.0,-1088.0
7.1375,-12352.0,-10112.0,-1088.0
7.14,-12416.0,-10176.0,-1024.0
7.1425,-12480.0,-10176.0,-1024.0
7.145,-12480.0,-10176.0,-1024.0
7.1475,-12544.0,-10176.0,-1024.0
7.15,-12480.0,-10240.0,-1024.0
7.1525,-12544.0,-10240.0,-1152.0
7.155,-12544.0,-10176.0,-1152.0
7.1575,-12544.0,-10176.0,-1088.0
7.16,-12544.0,-10176.0,-1216.0
7.1625,-12544.0,-10240.0,-1152.0
7.165,-12544.0,-10240.0,-1088.0
7.1675,-12544.0,-10240.0,-1088.0
7.17,-12544.0,-10240.0,-1088.0
7.1725,-12544.0,-10304.0,-1088.0
7.175,-12544.0,-10304.0,-1152.0
7.1775,-12480.0,-10368.0,-1152.0
7.18,-12480.0,-10304.0,-1152.0
7.1825,-12480.0,-10304.0,-1152.0
7.185,-12544.0,-10304.0,-1216.0
7.1875,-12480.0,-10304.0,-1280.0
7.19,-12480.0,-10304.0,-1216.0
7.1925,-12544.0,-10304.0,-1216.0
7.195,-12544.0,-10304.0,-1216.0
7.1975,-12544.0,-10304.0,-1216.0
7.2,-12480.0,-10304.0,-1280.0
7.2025,-12480.0,-10304.0,-1344.0
7.205,-12480.0,-10304.0,-1408.0
7.2075,-12480.0,-10304.0,-1344.0
7.21,-12480.0,-10240.0,-1344.0
7.2125,-12544.0,-10240.0,-1344.0
7.215,-12480.0,-10240.0,-1344.0
7.2175,-12480.0,-10112.0,-1344.0
7.22,-12544.0,-10240.0,-1408.0
7.2225,-12544.0,-10176.0,-1344.0
7.225,-12480.0,-10240.0,-1344.0
7.2275,-12544.0,-10176.0,-1344.0
7.23,-12544.0,-10176.0,-1408.0
7.2325,-12544.0,-10240.0,-1408.0
7.235,-12608.0,-10240.0,-1408.0
7.2375,-12608.0,-10176.0,-1408.0
7.24,-12608.0,-10176.0,-1408.0
7.2425,-12608.0,-10112.0,-1408.0
7.245,-12608.0,-10176.0,-1472.0
7.2475,-12608.0,-10176.0,-1600.0
7.25,-12608.0,-10176.0,-1600.0
7.2525,-12544.0,-10240.0,-1600.0
7.255,-12608.0,-10176.0,-1536.0
7.2575,-12608.0,-10240.0,-1600.0
7.26,-12544.0,-10240.0,-1472.0
7.2625,-12608.0,-10240.0,-1536.0
7.265,-12608.0,-10176.0,-1600.0
7.2675,-12608.0,-10240.0,-1536.0
7.27,-12544.0,-10176.0,-1536.0
7.2725,-12608.0,-10176.0,-1536.0
7.275,-12608.0,-10176.0,-1536.0
7.2775,-12608.0,-10176.0,-1536.0
7.28,-12608.0,-10112.0,-1536.0
7.2825,-12672.0,-10112.0,-1536.0
7.285,-12736.0,-10176.0,-1536.0
7.2875,-12672.0,-10176.0,-1536.0
7.29,-12672.0,-10176.0,-1536.0
7.2925,-12672.0,-10176.0,-1472.0
7.295,-12672.0,-10112.0,-1536.0
7.2975,-12672.0,-10176.0,-1536.0
7.3,-12736.0,-10176.0,-1600.0
7.3025,-12736.0,-10112.0,-1536.0
7.305,-12736.0,-10176.0,-1536.0
7.3075,-12736.0,-10112.0,-1472.0
7.31,-12800.0,-10176.0,-1536.0
7.3125,-12800.0,-10176.0,-1536.0
7.315,-12800.0,-10112.0,-1536.0
7.3175,-12736.0,-10112.0,-1472.0
7.32,-12800.0,-10112.0,-1536.0
7.3225,-12800.0,-10112.0,-1472.0
7.325,-12800.0,-10112.0,-1472.0
7.3275,-12800.0,-10112.0,-1472.0
7.33,-12800.0,-10112.0,-1536.0
7.3325,-12800.0,-10112.0,-1536.0
7.335,-12864.0,-10048.0,-1600.0
7.3375,-12800.0,-10048.0,-1472.0
7.34,-12800.0,-10048.0,-1472.0
7.3425,-12864.0,-9984.0,-1472.0
7.345,-12928.0,-10048.0,-1472.0
7.3475,-12992.0,-10048.0,-1600.0
7.35,-12928.0,-10048.0,-1600.0
7.3525,-12928.0,-9984.0,-1600.0
7.355,-12928.0,-10048.0,-1600.0
7.3575,-12928.0,-10048.0,-1600.0
7.36,-12864.0,-10048.0,-1472.0
7.3625,-12928.0,-10048.0,-1472.0
7.365,-12992.0,-10048.0,-1472.0
7.3675,-12992.0,-9984.0,-1472.0
7.37,-12928.0,-9984.0,-1408.0
7.3725,-12928.0,-9984.0,-1408.0
7.375,-12928.0,-9984.0,-1344.0
7.3775,-12928.0,-9984.0,-1408.0
7.38,-12928.0,-9984.0,-1408.0
7.3825,-12864.0,-9920.0,-1408.0
7.385,-12736.0,-9984.0,-1408.0
7.3875,-12736.0,-9856.0,-1344.0
7.39,-12736.0,-9856.0,-1344.0
7.3925,-12736.0,-9856.0,-1280.0
7.395,-12736.0,-9920.0,-1216.0
7.3975,-12736.0,-9856.0,-1216.0
7.4,-12736.0,-9856.0,-1280.0
7.4025,-12800.0,-9856.0,-1280.0
7.405,-12736.0,-9792.0,-1280.0
7.4075,-12736.0,-9856.0,-1280.0
7.41,-12736.0,-9856.0,-1280.0
7.4125,-12736.0,-9920.0,-1344.0
7.415,-12736.0,-9856.0,-1344.0
7.4175,-12864.0,-9856.0,-1344.0
7.42,-12800.0,-9792.0,-1344.0
7.4225,-12864.0,-9792.0,-1344.0
7.425,-12864.0,-9792.0,-1344.0
7.4275,-12864.0,-9856.0,-1344.0
7.43,-12864.0,-9792.0,-1280.0
7.4325,-12928.0,-9792.0,-1280.0
7.435,-12928.0,-9792.0,-1280.0
7.4375,-12928.0,-9792.0,-1280.0
7.44,-12928.0,-9728.0,-1280.0
7.4425,-12864.0,-9728.0,-1280.0
7.445,-12928.0,-9600.0,-1280.0
7.4475,-12928.0,-9600.0,-1216.0
7.45,-12864.0,-9600.0,-1216.0
7.4525,-12800.0,-9728.0,-1280.0
7.455,-12864.0,-9664.0,-1280.0
7.4575,-12800.0,-9600.0,-1216.0
7.46,-12800.0,-9664.0,-1152.0
7.4625,-12864.0,-9664.0,-1152.0
7.465,-12864.0,-9664.0,-1216.0
7.4675,-12800.0,-9600.0,-1280.0
7.47,-12864.0,-9664.0,-1280.0
7.4725,-12864.0,-9664.0,-1280.0
7.475,-12864.0,-9664.0,-1216.0
7.4775,-12864.0,-9664.0,-1280.0
7.48,-12928.0,-9664.0,-1216.0
7.4825,-12928.0,-9664.0,-1152.0
7.485,-12928.0,-9600.0,-1216.0
7.4875,-12928.0,-9664.0,-1152.0
7.49,-12992.0,-9664.0,-1152.0
7.4925,-12992.0,-9600.0,-1152.0
7.495,-12992.0,-9600.0,-1216.0
7.4975,-12928.0,-9536.0,-1216.0
7.5,-13056.0,-9536.0,-1152.0
7.5025,-13056.0,-9472.0,-1152.0
7.505,-13056.0,-9536.0,-1152.0
7.5075,-13056.0,-9600.0,-1088.0
7.51,-13120.0,-9536.0,-1152.0
7.5125,-13120.0,-9472.0,-1152.0
7.515,-13120.0,-9472.0,-1152.0
7.5175,-13120.0,-9536.0,-1152.0
7.52,-13120.0,-9408.0,-1152.0
7.5225,-13184.0,-9408.0,-1088.0
7.525,-13184.0,-9408.0,-1088.0
7.5275,-13248.0,-9472.0,-1024.0
7.53,-13248.0,-9536.0,-1088.0
7.5325,-13184.0,-9472.0,-1088.0
7.535,-13248.0,-9472.0,-1088.0
7.5375,-13312.0,-9472.0,-960.0
7.54,-13184.0,-9472.0,-960.0
7.5425,-13184.0,-9472.0,-960.0
7.545,-13312.0,-9408.0,-896.0
7.5475,-13312.0,-9472.0,-896.0
7.55,-13312.0,-9344.0,-896.0
7.5525,-13312.0,-9408.0,-896.0
7.555,-13376.0,-9408.0,-768.0
7.5575,-13312.0,-9408.0,-832.0
7.56,-13312.0,-9408.0,-896.0
7.5625,-13312.0,-9408.0,-832.0
7.565,-13376.0,-9408.0,-832.0
7.5675,-13312.0,-9408.0,-832.0
7.57,-13376.0,-9408.0,-768.0
7.5725,-13376.0,-9408.0,-832.0
7.575,-13440.0,-9472.0,-832.0
7.5775,-13504.0,-9536.0,-704.0
7.58,-13504.0,-9472.0,-640.0
7.5825,-13504.0,-9472.0,-640.0
7.585,-13376.0,-9536.0,-640.0
7.5875,-13440.0,-9472.0,-576.0
7.59,-13376.0,-9536.0,-704.0
7.5925,-13376.0,-9600.0,-640.0
7.595,-13376.0,-9536.0,-640.0
7.5975,-13376.0,-9472.0,-640.0
7.6,-13440.0,-9728.0,-512.0
7.6025,-13440.0,-9536.0,-576.0
7.605,-13376.0,-9664.0,-640.0
7.6075,-13440.0,-9600.0,-640.0
7.61,-13376.0,-9600.0,-640.0
7.6125,-13376.0,-9600.0,-640.0
7.615,-13312.0,-9600.0,-640.0
7.6175,-13376.0,-9536.0,-640.0
7.62,-13312.0,-9600.0,-576.0
7.6225,-13312.0,-9536.0,-512.0
7.625,-13312.0,-9536.0,-576.0
7.6275,-13376.0,-9536.0,-512.0
7.63,-13376.0,-9600.0,-576.0
7.6325,-13376.0,-9664.0,-512.0
7.635,-13312.0,-9664.0,-512.0
7.6375,-13312.0,-9664.0,-512.0
7.64,-13312.0,-9600.0,-512.0
7.6425,-13312.0,-9664.0,-448.0
7.645,-13248.0,-9600.0,-448.0
7.6475,-13248.0,-9664.0,-512.0
7.65,-13248.0,-9600.0,-576.0
7.6525,-13184.0,-9600.0,-512.0
7.655,-13184.0,-9600.0,-448.0
7.6575,-13184.0,-9600.0,-448.0
7.66,-13184.0,-9600.0,-448.0
7.6625,-13184.0,-9600.0,-512.0
7.665,-13120.0,-9600.0,-576.0
7.6675,-13120.0,-9664.0,-512.0
7.67,-13120.0,-9664.0,-448.0
7.6725,-13120.0,-9664.0,-384.0
7.675,-13120.0,-9664.0,-448.0
7.6775,-13120.0,-9600.0,-448.0
7.68,-13120.0,-9600.0,-448.0
7.6825,-13120.0,-9600.0,-448.0
7.685,-13120.0,-9536.0,-512.0
7.6875,-13120.0,-9536.0,-512.0
7.69,-13120.0,-9600.0,-512.0
7.6925,-13184.0,-9536.0,-576.0
7.695,-13248.0,-9536.0,-576.0
7.6975,-13248.0,-9536.0,-640.0
7.7,-13312.0,-9472.0,-576.0
7.7025,-13376.0,-9536.0,-576.0
7.705,-13440.0,-9536.0,-640.0
7.7075,-13504.0,-9600.0,-704.0
7.71,-13568.0,-9600.0,-704.0
7.7125,-13632.0,-9600.0,-704.0
7.715,-13632.0,-9600.0,-768.0
7.7175,-13760.0,-9600.0,-768.0
7.72,-13760.0,-9600.0,-768.0
7.7225,-13760.0,-9600.0,-704.0
7.725,-13760.0,-9600.0,-768.0
7.7275,-13760.0,-9600.0,-768.0
7.73,-13760.0,-9536.0,-768.0
7.7325,-13760.0,-9472.0,-704.0
7.735,-13696.0,-9408.0,-768.0
7.7375,-13696.0,-9408.0,-768.0
7.74,-13568.0,-9408.0,-640.0
7.7425,-13504.0,-9344.0,-704.0
7.745,-13440.0,-9280.0,-640.0
7.7475,-13376.0,-9216.0,-704.0
7.75,-13248.0,-9152.0,-704.0
7.7525,-13120.0,-9088.0,-640.0
7.755,-13120.0,-9024.0,-576.0
7.7575,-12928.0,-8960.0,-640.0
7.76,-12736.0,-8832.0,-768.0
7.7625,-12672.0,-8768.0,-704.0
7.765,-12544.0,-8704.0,-704.0
7.7675,-12480.0,-8704.0,-640.0
7.77,-12416.0,-8704.0,-704.0
7.7725,-12288.0,-8704.0,-704.0
7.775,-12224.0,-8640.0,-704.0
7.7775,-12160.0,-8576.0,-704.0
7.78,-12160.0,-8640.0,-768.0
7.7825,-12096.0,-8576.0,-832.0
7.785,-12096.0,-8576.0,-768.0
7.7875,-12096.0,-8576.0,-768.0
7.79,-12096.0,-8512.0,-768.0
7.7925,-12096.0,-8512.0,-768.0
7.795,-12096.0,-8512.0,-832.0
7.7975,-12096.0,-8448.0,-832.0
7.8,-12096.0,-8448.0,-896.0
7.8025,-12160.0,-8448.0,-896.0
7.805,-12224.0,-8448.0,-896.0
7.8075,-12352.0,-8512.0,-960.0
7.81,-12416.0,-8512.0,-960.0
7.8125,-12480.0,-8576.0,-896.0
7.815,-12544.0,-8576.0,-960.0
7.8175,-12544.0,-8576.0,-1024.0
7.82,-12608.0,-8640.0,-960.0
7.8225,-12736.0,-8704.0,-960.0
7.825,-12800.0,-8768.0,-960.0
7.8275,-12928.0,-8768.0,-1024.0
7.83,-12992.0,-8832.0,-1088.0
7.8325,-13056.0,-8832.0,-1152.0
7.835,-13056.0,-8832.0,-1152.0
7.8375,-13184.0,-8832.0,-1152.0
7.84,-13376.0,-9024.0,-1216.0
7.8425,-13504.0,-9024.0,-1152.0
7.845,-13568.0,-9088.0,-1152.0
7.8475,-13696.0,-9024.0,-1152.0
7.85,-13760.0,-9152.0,-1152.0
7.8525,-13824.0,-9088.0,-1216.0
7.855,-13952.0,-9152.0,-1216.0
7.8575,-14080.0,-9152.0,-1280.0
7.86,-14208.0,-9152.0,-1216.0
7.8625,-14272.0,-9216.0,-1280.0
7.865,-14336.0,-9216.0,-1216.0
7.8675,-14400.0,-9280.0,-1280.0
7.87,-14336.0,-9280.0,-1344.0
7.8725,-14464.0,-9408.0,-1280.0
7.875,-14528.0,-9408.0,-1280.0
7.8775,-14592.0,-9408.0,-1216.0
7.88,-14592.0,-9408.0,-1216.0
7.8825,-14656.0,-9408.0,-1280.0
7.885,-14720.0,-9408.0,-1280.0
7.8875,-14720.0,-9408.0,-1280.0
7.89,-14720.0,-9408.0,-1280.0
7.8925,-14784.0,-9408.0,-1280.0
7.895,-14784.0,-9408.0,-1344.0
7.8975,-14784.0,-9408.0,-1280.0
7.9,-14784.0,-9408.0,-1280.0
7.9025,-14720.0,-9408.0,-1344.0
7.905,-14720.0,-9408.0,-1344.0
7.9075,-14720.0,-9344.0,-1344.0
7.91,-14656.0,-9408.0,-1344.0
7.9125,-14592.0,-9344.0,-1408.0
7.915,-14528.0,-9280.0,-1472.0
7.9175,-14464.0,-9216.0,-1408.0
7.92,-14336.0,-9088.0,-1408.0
7.9225,-14272.0,-9024.0,-1344.0
7.925,-14208.0,-9024.0,-1344.0
7.9275,-14144.0,-9024.0,-1344.0
7.93,-14080.0,-8960.0,-1280.0
7.9325,-14080.0,-8960.0,-1280.0
7.935,-13952.0,-8896.0,-1280.0
7.9375,-13888.0,-8896.0,-1280.0
7.94,-13888.0,-8896.0,-1344.0
7.9425,-13824.0,-8896.0,-1408.0
7.945,-13888.0,-8896.0,-1344.0
7.9475,-13824.0,-8832.0,-1344.0
7.95,-13824.0,-8896.0,-1344.0
7.9525,-13760.0,-8896.0,-1408.0
7.955,-13760.0,-8896.0,-1344.0
7.9575,-13760.0,-8832.0,-1408.0
7.96,-13696.0,-8832.0,-1408.0
7.9625,-13696.0,-8832.0,-1344.0
7.965,-13696.0,-8832.0,-1408.0
7.9675,-13696.0,-8832.0,-1408.0
7.97,-13632.0,-8896.0,-1344.0
7.9725,-13696.0,-8832.0,-1472.0
7.975,-13696.0,-8832.0,-1344.0
7.9775,-13760.0,-8768.0,-1344.0
7.98,-13696.0,-8768.0,-1280.0
7.9825,-13696.0,-8768.0,-1344.0
7.985,-13696.0,-8832.0,-1472.0
7.9875,-13696.0,-8832.0,-1536.0
7.99,-13824.0,-8832.0,-1472.0
7.9925,-13824.0,-8832.0,-1472.0
7.995,-13888.0,-8832.0,-1472.0
7.9975,-13888.0,-8896.0,-1536.0
8.0,-13824.0,-8896.0,-1536.0
8.0025,-13888.0,-8832.0,-1536.0
8.005,-13952.0,-8832.0,-1600.0
8.0075,-13952.0,-8960.0,-1600.0
8.01,-13952.0,-8896.0,-1600.0
8.0125,-13888.0,-8896.0,-1600.0
8.015,-13888.0,-8896.0,-1664.0
8.0175,-13952.0,-8896.0,-1664.0
8.02,-14016.0,-8896.0,-1664.0
8.0225,-14016.0,-8896.0,-1664.0
8.025,-13952.0,-8960.0,-1664.0
8.0275,-13952.0,-8960.0,-1728.0
8.03,-13888.0,-9024.0,-1664.0
8.0325,-13952.0,-9024.0,-1664.0
8.035,-13952.0,-8960.0,-1664.0
8.0375,-13888.0,-8960.0,-1664.0
8.04,-13888.0,-8832.0,-1600.0
8.0425,-13824.0,-8896.0,-1600.0
8.045,-13824.0,-8832.0,-1664.0
8.0475,-13888.0,-8768.0,-1664.0
8.05,-13888.0,-8768.0,-1728.0
8.0525,-13888.0,-8832.0,-1664.0
8.055,-13888.0,-8832.0,-1792.0
8.0575,-13888.0,-8832.0,-1792.0
8.06,-13888.0,-8832.0,-1728.0
8.0625,-13888.0,-8768.0,-1728.0
8.065,-14016.0,-8832.0,-1792.0
8.0675,-13952.0,-8896.0,-1792.0
8.07,-13888.0,-8896.0,-1792.0
8.0725,-13952.0,-8896.0,-1792.0
8.075,-13952.0,-8832.0,-1792.0
8.0775,-13888.0,-8832.0,-1728.0
8.08,-13952.0,-8768.0,-1856.0
8.0825,-13888.0,-8768.0,-1920.0
8.085,-13888.0,-8832.0,-1920.0
8.0875,-13888.0,-8768.0,-1920.0
8.09,-13888.0,-8768.0,-1856.0
8.0925,-13824.0,-8768.0,-1856.0
8.095,-13888.0,-8832.0,-1856.0
8.0975,-13888.0,-8768.0,-1856.0
8.1,-13824.0,-8704.0,-1856.0
8.1025,-13888.0,-8640.0,-1920.0
8.105,-13824.0,-8768.0,-1856.0
8.1075,-13824.0,-8704.0,-1792.0
8.11,-13824.0,-8768.0,-1920.0
8.1125,-13824.0,-8768.0,-1920.0
8.115,-13824.0,-8768.0,-1920.0
8.1175,-13760.0,-8704.0,-1984.0
8.12,-13760.0,-8704.0,-1984.0
8.1225,-13824.0,-8704.0,-1984.0
8.125,-13824.0,-8704.0,-1984.0
8.1275,-13824.0,-8704.0,-1984.0
8.13,-13760.0,-8768.0,-1984.0
8.1325,-13760.0,-8704.0,-2048.0
8.135,-13760.0,-8768.0,-2112.0
8.1375,-13760.0,-8768.0,-2112.0
8.14,-13760.0,-8768.0,-2112.0
8.1425,-13824.0,-8832.0,-2112.0
8.145,-13824.0,-8768.0,-2112.0
8.1475,-13824.0,-8832.0,-2112.0
8.15,-13888.0,-8704.0,-2048.0
8.1525,-13952.0,-8768.0,-2048.0
8.155,-14016.0,-8832.0,-1984.0
8.1575,-14016.0,-8768.0,-2048.0
8.16,-14080.0,-8832.0,-2048.0
8.1625,-14144.0,-8768.0,-1984.0
8.165,-14144.0,-8704.0,-1984.0
8.1675,-14272.0,-8768.0,-1984.0
8.17,-14272.0,-8768.0,-1984.0
8.1725,-14272.0,-8768.0,-1984.0
8.175,-14336.0,-8768.0,-1920.0
8.1775,-14336.0,-8768.0,-1920.0
8.18,-14336.0,-8704.0,-1920.0
8.1825,-14400.0,-8768.0,-1856.0
8.185,-14464.0,-8704.0,-1856.0
8.1875,-14464.0,-8704.0,-1856.0
8.19,-14464.0,-8768.0,-1920.0
8.1925,-14528.0,-8704.0,-1856.0
8.195,-14592.0,-8704.0,-1792.0
8.1975,-14592.0,-8704.0,-1792.0
8.2,-14528.0,-8640.0,-1728.0
8.2025,-14528.0,-8704.0,-1728.0
8.205,-14528.0,-8704.0,-1728.0
8.2075,-14528.0,-8704.0,-1664.0
8.21,-14464.0,-8640.0,-1600.0
8.2125,-14400.0,-8576.0,-1536.0
8.215,-14336.0,-8576.0,-1600.0
8.2175,-14272.0,-8576.0,-1536.0
8.22,-14208.0,-8576.0,-1408.0
8.2225,-14144.0,-8512.0,-1344.0
8.225,-14144.0,-8512.0,-1408.0
8.2275,-14080.0,-8512.0,-1408.0
8.23,-14080.0,-8512.0,-1408.0
8.2325,-14016.0,-8512.0,-1344.0
8.235,-13952.0,-8576.0,-1408.0
8.2375,-13888.0,-8512.0,-1408.0
8.24,-13824.0,-8512.0,-1408.0
8.2425,-13824.0,-8448.0,-1408.0
8.245,-13760.0,-8448.0,-1344.0
8.2475,-13760.0,-8448.0,-1280.0
8.25,-13696.0,-8384.0,-1280.0
8.2525,-13696.0,-8384.0,-1280.0
8.255,-13696.0,-8384.0,-1216.0
8.2575,-13632.0,-8384.0,-1344.0
8.26,-13632.0,-8384.0,-1344.0
8.2625,-13568.0,-8384.0,-1280.0
8.265,-13632.0,-8384.0,-1280.0
8.2675,-13568.0,-8384.0,-1280.0
8.27,-13504.0,-8384.0,-1216.0
8.2725,-13568.0,-8384.0,-1152.0
8.275,-13568.0,-8320.0,-1088.0
8.2775,-13568.0,-8384.0,-1152.0
8.28,-13568.0,-8384.0,-1088.0
8.2825,-13568.0,-8384.0,-1088.0
8.285,-13504.0,-8384.0,-1088.0
8.2875,-13504.0,-8448.0,-1088.0
8.29,-13504.0,-8448.0,-1024.0
8.2925,-13504.0,-8448.0,-1088.0
8.295,-13568.0,-8384.0,-1088.0
8.2975,-13568.0,-8448.0,-1088.0
8.3,-13504.0,-8448.0,-1088.0
8.3025,-13504.0,-8448.0,-1088.0
8.305,-13504.0,-8512.0,-1024.0
8.3075,-13504.0,-8448.0,-1024.0
8.31,-13568.0,-8448.0,-1088.0
8.3125,-13504.0,-8448.0,-960.0
8.315,-13568.0,-8448.0,-960.0
8.3175,-13568.0,-8448.0,-1024.0
8.32,-13568.0,-8448.0,-960.0
8.3225,-13568.0,-8448.0,-960.0
8.325,-13568.0,-8384.0,-960.0
8.3275,-13568.0,-8384.0,-960.0
8.33,-13568.0,-8384.0,-896.0
8.3325,-13568.0,-8384.0,-896.0
8.335,-13632.0,-8384.0,-896.0
8.3375,-13632.0,-8448.0,-896.0
8.34,-13632.0,-8448.0,-896.0
8.3425,-13632.0,-8448.0,-832.0
8.345,-13632.0,-8384.0,-832.0
8.3475,-13568.0,-8384.0,-896.0
8.35,-13632.0,-8384.0,-832.0
8.3525,-13632.0,-8448.0,-896.0
8.355,-13632.0,-8384.0,-832.0
8.3575,-13632.0,-8448.0,-832.0
8.36,-13632.0,-8448.0,-832.0
8.3625,-13568.0,-8384.0,-832.0
8.365,-13696.0,-8448.0,-832.0
8.3675,-13632.0,-8448.0,-832.0
8.37,-13632.0,-8384.0,-768.0
8.3725,-13568.0,-8384.0,-896.0
8.375,-13568.0,-8384.0,-896.0
8.3775,-13504.0,-8320.0,-832.0
8.38,-13376.0,-8384.0,-832.0
8.3825,-13440.0,-8384.0,-832.0
8.385,-13440.0,-8384.0,-896.0
8.3875,-13440.0,-8320.0,-960.0
8.39,-13440.0,-8384.0,-960.0
8.3925,-13504.0,-8384.0,-896.0
8.395,-13568.0,-8384.0,-896.0
8.3975,-13568.0,-8384.0,-896.0
8.4,-13504.0,-8384.0,-960.0
8.4025,-13568.0,-8384.0,-960.0
8.405,-13568.0,-8448.0,-960.0
8.4075,-13568.0,-8384.0,-1024.0
8.41,-13632.0,-8448.0,-1024.0
8.4125,-13568.0,-8448.0,-1088.0
8.415,-13568.0,-8448.0,-1152.0
8.4175,-13632.0,-8512.0,-1088.0
8.42,-13632.0,-8576.0,-1088.0
8.4225,-13632.0,-8576.0,-1216.0
8.425,-13696.0,-8576.0,-1152.0
8.4275,-13696.0,-8576.0,-1216.0
8.43,-13760.0,-8512.0,-1216.0
8.4325,-13760.0,-8512.0,-1216.0
8.435,-13760.0,-8512.0,-1216.0
8.4375,-13760.0,-8512.0,-1280.0
8.44,-13760.0,-8512.0,-1216.0
8.4425,-13824.0,-8576.0,-1216.0
8.445,-13824.0,-8576.0,-1280.0
8.4475,-13824.0,-8576.0,-1344.0
8.45,-13760.0,-8512.0,-1344.0
8.4525,-13760.0,-8512.0,-1344.0
8.455,-13760.0,-8576.0,-1408.0
8.4575,-13760.0,-8640.0,-1472.0
8.46,-13824.0,-8640.0,-1408.0
8.4625,-13888.0,-8640.0,-1472.0
8.465,-13888.0,-8640.0,-1472.0
8.4675,-13632.0,-8640.0,-1472.0
8.47,-13824.0,-8640.0,-1472.0
8.4725,-13824.0,-8704.0,-1408.0
8.475,-13824.0,-8704.0,-1408.0
8.4775,-13888.0,-8704.0,-1536.0
8.48,-13952.0,-8640.0,-1536.0
8.4825,-13952.0,-8640.0,-1600.0
8.485,-13952.0,-8640.0,-1536.0
8.4875,-14016.0,-8640.0,-1600.0
8.49,-14016.0,-8704.0,-1600.0
8.4925,-14080.0,-8704.0,-1600.0
8.495,-14080.0,-8704.0,-1664.0
8.4975,-14144.0,-8768.0,-1664.0
8.5,-14144.0,-8768.0,-1664.0
8.5025,-14272.0,-8768.0,-1600.0
8.505,-14336.0,-8768.0,-1664.0
8.5075,-14400.0,-8704.0,-1728.0
8.51,-14464.0,-8704.0,-1728.0
8.5125,-14464.0,-8704.0,-1728.0
8.515,-14528.0,-8704.0,-1728.0
8.5175,-14528.0,-8704.0,-1792.0
8.52,-14528.0,-8704.0,-1856.0
8.5225,-14656.0,-8704.0,-1792.0
8.525,-14720.0,-8704.0,-1792.0
8.5275,-14784.0,-8704.0,-1792.0
8.53,-14784.0,-8704.0,-1792.0
8.5325,-14784.0,-8768.0,-1792.0
8.535,-14784.0,-8704.0,-1856.0
8.5375,-14784.0,-8640.0,-1856.0
8.54,-14848.0,-8640.0,-1920.0
8.5425,-14784.0,-8640.0,-1984.0
8.545,-14848.0,-8640.0,-1920.0
8.5475,-14848.0,-8704.0,-1856.0
8.55,-14848.0,-8704.0,-1920.0
8.5525,-14912.0,-8768.0,-1920.0
8.555,-14976.0,-8704.0,-1920.0
8.5575,-14976.0,-8704.0,-1856.0
8.56,-14976.0,-8704.0,-1856.0
8.5625,-14912.0,-8704.0,-1728.0
8.565,-14912.0,-8704.0,-1728.0
8.5675,-14976.0,-8768.0,-1728.0
8.57,-14976.0,-8768.0,-1728.0
8.5725,-14976.0,-8704.0,-1664.0
8.575,-15040.0,-8768.0,-1664.0
8.5775,-14976.0,-8768.0,-1600.0
8.58,-15040.0,-8832.0,-1536.0
8.5825,-15040.0,-8768.0,-1600.0
8.585,-15104.0,-8832.0,-1600.0
8.5875,-15104.0,-8832.0,-1536.0
8.59,-15168.0,-8896.0,-1600.0
8.5925,-15168.0,-8960.0,-1600.0
8.595,-15168.0,-8896.0,-1600.0
8.5975,-15168.0,-8896.0,-1536.0
8.6,-15232.0,-8960.0,-1536.0
8.6025,-15232.0,-8960.0,-1600.0
8.605,-15232.0,-8960.0,-1664.0
8.6075,-15360.0,-9024.0,-1728.0
8.61,-15360.0,-9024.0,-1728.0
8.6125,-15424.0,-9024.0,-1664.0
8.615,-15488.0,-9024.0,-1728.0
8.6175,-15616.0,-9088.0,-1600.0
8.62,-15616.0,-9152.0,-1600.0
8.6225,-15680.0,-9088.0,-1600.0
8.625,-15744.0,-9088.0,-1664.0
8.6275,-15872.0,-9088.0,-1664.0
8.63,-16000.0,-9216.0,-1664.0
8.6325,-16000.0,-9280.0,-1600.0
8.635,-16192.0,-9280.0,-1600.0
8.6375,-16256.0,-9280.0,-1664.0
8.64,-16384.0,-9280.0,-1600.0
8.6425,-16512.0,-9344.0,-1664.0
8.645,-16576.0,-9408.0,-1600.0
8.6475,-16704.0,-9472.0,-1472.0
8.65,-16768.0,-9536.0,-1472.0
8.6525,-16832.0,-9536.0,-1344.0
8.655,-16896.0,-9536.0,-1344.0
8.6575,-16960.0,-9536.0,-1280.0
8.66,-17024.0,-9536.0,-1216.0
8.6625,-17024.0,-9536.0,-1152.0
8.665,-17088.0,-9536.0,-1088.0
8.6675,-17152.0,-9536.0,-1024.0
8.67,-17216.0,-9536.0,-1024.0
8.6725,-17216.0,-9536.0,-960.0
8.675,-17216.0,-9472.0,-960.0
8.6775,-17216.0,-9536.0,-896.0
8.68,-17216.0,-9536.0,-896.0
8.6825,-17216.0,-9536.0,-960.0
8.685,-17216.0,-9536.0,-832.0
8.6875,-17216.0,-9536.0,-768.0
8.69,-17216.0,-9536.0,-832.0
8.6925,-17152.0,-9536.0,-832.0
8.695,-17152.0,-9472.0,-896.0
8.6975,-17088.0,-9472.0,-832.0
8.7,-17088.0,-9472.0,-832.0
8.7025,-17088.0,-9408.0,-832.0
8.705,-17024.0,-9408.0,-896.0
8.7075,-17024.0,-9344.0,-896.0
8.71,-16960.0,-9344.0,-896.0
8.7125,-16896.0,-9344.0,-832.0
8.715,-16896.0,-9280.0,-768.0
8.7175,-16832.0,-9216.0,-768.0
8.72,-16832.0,-9216.0,-768.0
8.7225,-16768.0,-9152.0,-704.0
8.725,-16704.0,-9088.0,-704.0
8.7275,-16640.0,-9152.0,-704.0
8.73,-16640.0,-9088.0,-640.0
8.7325,-16576.0,-9024.0,-576.0
8.735,-16576.0,-8960.0,-576.0
8.7375,-16512.0,-8960.0,-576.0
8.74,-16512.0,-8896.0,-576.0
8.7425,-16512.0,-8896.0,-640.0
8.745,-16384.0,-8832.0,-512.0
8.7475,-16384.0,-8832.0,-576.0
8.75,-16320.0,-8768.0,-576.0
8.7525,-16256.0,-8768.0,-576.0
8.755,-16192.0,-8768.0,-512.0
8.7575,-16192.0,-8768.0,-512.0
8.76,-16064.0,-8704.0,-448.0
8.7625,-16064.0,-8640.0,-448.0
8.765,-15936.0,-8512.0,-384.0
8.7675,-15936.0,-8576.0,-448.0
8.77,-15872.0,-8512.0,-448.0
8.7725,-15808.0,-8512.0,-448.0
8.775,-15744.0,-8512.0,-448.0
8.7775,-15744.0,-8448.0,-448.0
8.78,-15616.0,-8448.0,-448.0
8.7825,-15552.0,-8384.0,-384.0
8.785,-15552.0,-8320.0,-320.0
8.7875,-15488.0,-8384.0,-320.0
8.79,-15360.0,-8256.0,-256.0
8.7925,-15360.0,-8256.0,-256.0
8.795,-15232.0,-8192.0,-192.0
8.7975,-15168.0,-8192.0,-192.0
8.8,-15168.0,-8192.0,-192.0
8.8025,-15168.0,-8192.0,-128.0
8.805,-15104.0,-8128.0,-128.0
8.8075,-14976.0,-8128.0,-128.0
8.81,-14976.0,-8064.0,-128.0
8.8125,-14848.0,-8064.0,-64.0
8.815,-14848.0,-8064.0,-64.0
8.8175,-14848.0,-8000.0,-64.0
8.82,-14784.0,-7936.0,-64.0
8.8225,-14656.0,-7872.0,-64.0
8.825,-14592.0,-7936.0,0.0
8.8275,-14528.0,-7872.0,0.0
8.83,-14528.0,-7936.0,-64.0
8.8325,-14464.0,-7872.0,0.0
8.835,-14400.0,-7936.0,0.0
8.8375,-14400.0,-7936.0,-64.0
8.84,-14400.0,-7872.0,-64.0
8.8425,-14400.0,-7808.0,-128.0
8.845,-14400.0,-7744.0,-64.0
8.8475,-14336.0,-7744.0,-64.0
8.85,-14272.0,-7744.0,-64.0
8.8525,-14272.0,-7744.0,-64.0
8.855,-14208.0,-7744.0,-64.0
8.8575,-14208.0,-7680.0,-64.0
8.86,-14208.0,-7680.0,-128.0
8.8625,-14208.0,-7744.0,-64.0
8.865,-14208.0,-7680.0,-128.0
8.8675,-14144.0,-7616.0,-64.0
8.87,-14144.0,-7616.0,-64.0
8.8725,-14144.0,-7616.0,-64.0
8.875,-14080.0,-7616.0,-64.0
8.8775,-14080.0,-7616.0,-64.0
8.88,-14016.0,-7552.0,-64.0
8.8825,-14016.0,-7488.0,-64.0
8.885,-13952.0,-7424.0,0.0
8.8875,-13888.0,-7424.0,64.0
8.89,-13888.0,-7360.0,0.0
8.8925,-13824.0,-7424.0,-64.0
8.895,-13696.0,-7296.0,0.0
8.8975,-13696.0,-7296.0,0.0
8.9,-13696.0,-7232.0,-64.0
8.9025,-13632.0,-7168.0,0.0
8.905,-13632.0,-7104.0,64.0
8.9075,-13632.0,-7104.0,128.0
8.91,-13568.0,-7104.0,128.0
8.9125,-13504.0,-6976.0,128.0
8.915,-13568.0,-6976.0,128.0
8.9175,-13568.0,-7040.0,256.0
8.92,-13504.0,-7040.0,256.0
8.9225,-13568.0,-7040.0,192.0
8.925,-13568.0,-7040.0,256.0
8.9275,-13568.0,-6976.0,256.0
8.93,-13632.0,-7040.0,256.0
8.9325,-13568.0,-7040.0,192.0
8.935,-13568.0,-6976.0,192.0
8.9375,-13568.0,-6976.0,192.0
8.94,-13632.0,-6912.0,128.0
8.9425,-13696.0,-6976.0,192.0
8.945,-13760.0,-6976.0,192.0
8.9475,-13824.0,-6912.0,192.0
8.95,-13760.0,-6912.0,256.0
8.9525,-13824.0,-6976.0,192.0
8.955,-13888.0,-6912.0,128.0
8.9575,-13952.0,-6912.0,128.0
8.96,-14080.0,-6912.0,128.0
8.9625,-14144.0,-6912.0,128.0
8.965,-14272.0,-6912.0,192.0
8.9675,-14400.0,-6912.0,192.0
8.97,-14400.0,-6912.0,192.0
8.9725,-14464.0,-6912.0,192.0
8.975,-14464.0,-6976.0,256.0
8.9775,-14592.0,-7040.0,320.0
8.98,-14592.0,-6976.0,384.0
8.9825,-14656.0,-6976.0,384.0
8.985,-14656.0,-7040.0,384.0
8.9875,-14656.0,-7104.0,512.0
8.99,-14720.0,-7040.0,512.0
8.9925,-14720.0,-7104.0,576.0
8.995,-14720.0,-7104.0,576.0
8.9975,-14720.0,-7104.0,640.0
9.0,-14656.0,-7104.0,576.0
9.0025,-14720.0,-7040.0,576.0
9.005,-14784.0,-7040.0,640.0
9.0075,-14720.0,-7104.0,640.0
9.01,-14784.0,-7040.0,640.0
9.0125,-14784.0,-7040.0,640.0
9.015,-14784.0,-7104.0,704.0
9.0175,-14784.0,-7104.0,704.0
9.02,-14720.0,-7104.0,704.0
9.0225,-14656.0,-7040.0,704.0
9.025,-14592.0,-7104.0,768.0
9.0275,-14592.0,-7040.0,768.0
9.03,-14656.0,-7104.0,704.0
9.0325,-14528.0,-7040.0,768.0
9.035,-14528.0,-6976.0,704.0
9.0375,-14464.0,-6976.0,704.0
9.04,-14400.0,-6976.0,832.0
9.0425,-14336.0,-6976.0,832.0
9.045,-14336.0,-7040.0,768.0
9.0475,-14272.0,-7040.0,832.0
9.05,-14272.0,-7040.0,832.0
9.0525,-14272.0,-7040.0,896.0
9.055,-14272.0,-7040.0,896.0
9.0575,-14272.0,-6976.0,896.0
9.06,-14208.0,-7040.0,832.0
9.0625,-14208.0,-7040.0,896.0
9.065,-14144.0,-7040.0,896.0
9.0675,-14080.0,-6976.0,896.0
9.07,-14080.0,-6976.0,832.0
9.0725,-14016.0,-6976.0,832.0
9.075,-14016.0,-6912.0,832.0
9.0775,-14080.0,-6976.0,768.0
9.08,-14080.0,-6976.0,704.0
9.0825,-14016.0,-6976.0,704.0
9.085,-14144.0,-6976.0,704.0
9.0875,-14080.0,-6976.0,640.0
9.09,-14080.0,-7040.0,704.0
9.0925,-14080.0,-7040.0,640.0
9.095,-14144.0,-7040.0,576.0
9.0975,-14144.0,-7104.0,576.0
9.1,-14144.0,-7104.0,576.0
9.1025,-14208.0,-7168.0,576.0
9.105,-14144.0,-7296.0,576.0
9.1075,-14272.0,-7232.0,640.0
9.11,-14272.0,-7296.0,640.0
9.1125,-14400.0,-7296.0,576.0
9.115,-14400.0,-7232.0,576.0
9.1175,-14400.0,-7296.0,640.0
9.12,-14592.0,-7360.0,576.0
9.1225,-14656.0,-7424.0,576.0
9.125,-14656.0,-7424.0,512.0
9.1275,-14784.0,-7424.0,576.0
9.13,-14784.0,-7424.0,576.0
9.1325,-14784.0,-7488.0,512.0
9.135,-14784.0,-7488.0,512.0
9.1375,-14784.0,-7424.0,512.0
9.14,-14784.0,-7488.0,448.0
9.1425,-14848.0,-7488.0,384.0
9.145,-14784.0,-7552.0,384.0
9.1475,-14848.0,-7680.0,320.0
9.15,-14848.0,-7680.0,320.0
9.1525,-14848.0,-7744.0,320.0
9.155,-14848.0,-7744.0,256.0
9.1575,-14912.0,-7808.0,192.0
9.16,-14912.0,-7808.0,128.0
9.1625,-14912.0,-7808.0,128.0
9.165,-14784.0,-7808.0,192.0
9.1675,-14784.0,-7808.0,192.0
9.17,-14656.0,-7808.0,128.0
9.1725,-14720.0,-7808.0,128.0
9.175,-14656.0,-7808.0,128.0
9.1775,-14656.0,-7808.0,64.0
9.18,-14592.0,-7744.0,128.0
9.1825,-14592.0,-7744.0,128.0
9.185,-14464.0,-7744.0,128.0
9.1875,-14400.0,-7744.0,128.0
9.19,-14272.0,-7744.0,64.0
9.1925,-14272.0,-7808.0,128.0
9.195,-14144.0,-7744.0,64.0
9.1975,-14080.0,-7744.0,128.0
9.2,-14016.0,-7680.0,128.0
9.2025,-13824.0,-7744.0,128.0
9.205,-13760.0,-7680.0,128.0
9.2075,-13696.0,-7680.0,128.0
9.21,-13632.0,-7680.0,128.0
9.2125,-13568.0,-7744.0,128.0
9.215,-13440.0,-7744.0,64.0
9.2175,-13376.0,-7744.0,64.0
9.22,-13312.0,-7680.0,64.0
9.2225,-13184.0,-7680.0,0.0
9.225,-13184.0,-7616.0,0.0
9.2275,-13120.0,-7616.0,-64.0
9.23,-13056.0,-7680.0,0.0
9.2325,-12992.0,-7680.0,-64.0
9.235,-12992.0,-7680.0,-64.0
9.2375,-12928.0,-7616.0,-128.0
9.24,-12864.0,-7680.0,-64.0
9.2425,-12864.0,-7744.0,-64.0
9.245,-12800.0,-7744.0,-128.0
9.2475,-12736.0,-7744.0,-128.0
9.25,-12736.0,-7744.0,-192.0
9.2525,-12672.0,-7744.0,-192.0
9.255,-12608.0,-7680.0,-128.0
9.2575,-12608.0,-7680.0,-192.0
9.26,-12544.0,-7680.0,-192.0
9.2625,-12544.0,-7680.0,-192.0
9.265,-12544.0,-7680.0,-192.0
9.2675,-12544.0,-7616.0,-192.0
9.27,-12480.0,-7744.0,-256.0
9.2725,-12416.0,-7744.0,-192.0
9.275,-12416.0,-7616.0,-192.0
9.2775,-12352.0,-7680.0,-256.0
9.28,-12352.0,-7744.0,-256.0
9.2825,-12352.0,-7744.0,-192.0
9.285,-12416.0,-7744.0,-256.0
9.2875,-12352.0,-7744.0,-192.0
9.29,-12352.0,-7744.0,-256.0
9.2925,-12352.0,-7744.0,-192.0
9.295,-12352.0,-7808.0,-192.0
9.2975,-12352.0,-7808.0,-192.0
9.3,-12288.0,-7808.0,-192.0
9.3025,-12288.0,-7808.0,-128.0
9.305,-12288.0,-7872.0,-192.0
9.3075,-12224.0,-7808.0,-192.0
9.31,-12224.0,-7872.0,-192.0
9.3125,-12224.0,-7936.0,-192.0
9.315,-12224.0,-7936.0,-192.0
9.3175,-12224.0,-7936.0,-192.0
9.32,-12288.0,-8000.0,-256.0
9.3225,-12288.0,-8000.0,-256.0
9.325,-12288.0,-8000.0,-320.0
9.3275,-12288.0,-8000.0,-256.0
9.33,-12288.0,-8000.0,-320.0
9.3325,-12352.0,-8064.0,-320.0
9.335,-12352.0,-8128.0,-384.0
9.3375,-12288.0,-8128.0,-384.0
9.34,-12352.0,-8128.0,-384.0
9.3425,-12416.0,-8064.0,-448.0
9.345,-12416.0,-8128.0,-448.0
9.3475,-12416.0,-8128.0,-448.0
9.35,-12480.0,-8128.0,-448.0
9.3525,-12480.0,-8128.0,-384.0
9.355,-12480.0,-8064.0,-384.0
9.3575,-12480.0,-8064.0,-384.0
9.36,-12544.0,-8128.0,-448.0
9.3625,-12544.0,-8128.0,-384.0
9.365,-12608.0,-8128.0,-384.0
9.3675,-12672.0,-8128.0,-384.0
9.37,-12672.0,-8192.0,-448.0
9.3725,-12736.0,-8128.0,-384.0
9.375,-12800.0,-8128.0,-448.0
9.3775,-12800.0,-8192.0,-448.0
9.38,-12800.0,-8256.0,-448.0
9.3825,-12864.0,-8192.0,-448.0
9.385,-12800.0,-8256.0,-448.0
9.3875,-12864.0,-8256.0,-384.0
9.39,-12992.0,-8256.0,-384.0
9.3925,-12992.0,-8320.0,-448.0
9.395,-13056.0,-8320.0,-448.0
9.3975,-13120.0,-8320.0,-448.0
9.4,-13056.0,-8320.0,-448.0
9.4025,-13056.0,-8320.0,-384.0
9.405,-13120.0,-8384.0,-384.0
9.4075,-13120.0,-8320.0,-384.0
9.41,-13120.0,-8384.0,-448.0
9.4125,-13120.0,-8384.0,-448.0
9.415,-13120.0,-8384.0,-384.0
9.4175,-13184.0,-8384.0,-384.0
9.42,-13184.0,-8320.0,-448.0
9.4225,-13248.0,-8384.0,-320.0
9.425,-13248.0,-8384.0,-384.0
9.4275,-13312.0,-8384.0,-448.0
9.43,-13248.0,-8384.0,-448.0
9.4325,-13248.0,-8448.0,-384.0
9.435,-13312.0,-8384.0,-384.0
9.4375,-13312.0,-8384.0,-384.0
9.44,-13312.0,-8384.0,-384.0
9.4425,-13376.0,-8384.0,-448.0
9.445,-13312.0,-8384.0,-384.0
9.4475,-13376.0,-8448.0,-448.0
9.45,-13376.0,-8384.0,-512.0
9.4525,-13312.0,-8384.0,-448.0
9.455,-13312.0,-8384.0,-384.0
9.4575,-13376.0,-8448.0,-384.0
9.46,-13376.0,-8448.0,-448.0
9.4625,-13376.0,-8448.0,-320.0
9.465,-13376.0,-8384.0,-384.0
9.4675,-13376.0,-8448.0,-384.0
9.47,-13440.0,-8448.0,-320.0
9.4725,-13440.0,-8448.0,-320.0
9.475,-13440.0,-8448.0,-320.0
9.4775,-13440.0,-8448.0,-320.0
9.48,-13504.0,-8384.0,-320.0
9.4825,-13504.0,-8384.0,-256.0
9.485,-13568.0,-8384.0,-320.0
9.4875,-13568.0,-8448.0,-256.0
9.49,-13568.0,-8384.0,-256.0
9.4925,-13568.0,-8448.0,-320.0
9.495,-13632.0,-8384.0,-320.0
9.4975,-13632.0,-8384.0,-320.0
9.5,-13632.0,-8384.0,-320.0
9.5025,-13632.0,-8384.0,-320.0
9.505,-13632.0,-8384.0,-320.0
9.5075,-13696.0,-8448.0,-320.0
9.51,-13696.0,-8384.0,-320.0
9.5125,-13632.0,-8384.0,-320.0
9.515,-13696.0,-8384.0,-320.0
9.5175,-13696.0,-8384.0,-320.0
9.52,-13824.0,-8320.0,-256.0
9.5225,-13824.0,-8384.0,-192.0
9.525,-13888.0,-8384.0,-192.0
9.5275,-13888.0,-8320.0,-320.0
9.53,-13888.0,-8384.0,-256.0
9.5325,-13952.0,-8320.0,-256.0
9.535,-13952.0,-8320.0,-256.0
9.5375,-13952.0,-8384.0,-192.0
9.54,-13952.0,-8320.0,-256.0
9.5425,-13888.0,-8320.0,-256.0
9.545,-13952.0,-8256.0,-320.0
9.5475,-13952.0,-8320.0,-256.0
9.55,-13888.0,-8320.0,-256.0
9.5525,-13952.0,-8192.0,-192.0
9.555,-13888.0,-8192.0,-256.0
9.5575,-13952.0,-8192.0,-256.0
9.56,-13888.0,-8192.0,-192.0
9.5625,-13952.0,-8192.0,-192.0
9.565,-13952.0,-8192.0,-256.0
9.5675,-14016.0,-8192.0,-256.0
9.57,-14016.0,-8192.0,-320.0
9.5725,-14080.0,-8192.0,-192.0
9.575,-14208.0,-8192.0,-192.0
9.5775,-14208.0,-8256.0,-192.0
9.58,-14336.0,-8192.0,-192.0
9.5825,-14336.0,-8256.0,-256.0
9.585,-14464.0,-8256.0,-256.0
9.5875,-14528.0,-8320.0,-256.0
9.59,-14592.0,-8320.0,-192.0
9.5925,-14656.0,-8320.0,-256.0
9.595,-14784.0,-8320.0,-192.0
9.5975,-14848.0,-8320.0,-192.0
9.6,-14912.0,-8384.0,-192.0
9.6025,-15040.0,-8448.0,-192.0
9.605,-14976.0,-8448.0,-192.0
9.6075,-14976.0,-8384.0,-192.0
9.61,-14976.0,-8448.0,-128.0
9.6125,-15040.0,-8320.0,-128.0
9.615,-14976.0,-8320.0,-192.0
9.6175,-14912.0,-8256.0,-128.0
9.62,-14848.0,-8192.0,-192.0
9.6225,-14848.0,-8192.0,-128.0
9.625,-14848.0,-8128.0,-128.0
9.6275,-14784.0,-8128.0,-128.0
9.63,-14720.0,-8064.0,-128.0
9.6325,-14592.0,-8064.0,-128.0
9.635,-14528.0,-8064.0,-128.0
9.6375,-14464.0,-8000.0,-128.0
9.64,-14336.0,-8000.0,-128.0
9.6425,-14208.0,-8000.0,-64.0
9.645,-14144.0,-7936.0,-128.0
9.6475,-14016.0,-7872.0,-128.0
9.65,-13952.0,-7872.0,-64.0
9.6525,-13824.0,-7808.0,-64.0
9.655,-13760.0,-7808.0,-64.0
9.6575,-13696.0,-7808.0,-64.0
9.66,-13696.0,-7744.0,0.0
9.6625,-13632.0,-7744.0,0.0
9.665,-13568.0,-7680.0,0.0
9.6675,-13504.0,-7680.0,0.0
9.67,-13568.0,-7680.0,64.0
9.6725,-13504.0,-7616.0,0.0
9.675,-13504.0,-7616.0,0.0
9.6775,-13568.0,-7616.0,64.0
9.68,-13568.0,-7616.0,0.0
9.6825,-13568.0,-7616.0,0.0
9.685,-13632.0,-7616.0,0.0
9.6875,-13696.0,-7616.0,-64.0
9.69,-13696.0,-7552.0,-128.0
9.6925,-13760.0,-7616.0,-192.0
9.695,-13824.0,-7552.0,-192.0
9.6975,-13952.0,-7488.0,-192.0
9.7,-14016.0,-7488.0,-192.0
9.7025,-14080.0,-7552.0,-256.0
9.705,-14208.0,-7616.0,-256.0
9.7075,-14336.0,-7680.0,-320.0
9.71,-14400.0,-7744.0,-320.0
9.7125,-14400.0,-7744.0,-320.0
9.715,-14528.0,-7744.0,-320.0
9.7175,-14656.0,-7744.0,-320.0
9.72,-14720.0,-7680.0,-320.0
9.7225,-14784.0,-7680.0,-384.0
9.725,-14848.0,-7744.0,-384.0
9.7275,-14912.0,-7808.0,-384.0
9.73,-14976.0,-7872.0,-384.0
9.7325,-15104.0,-7872.0,-320.0
9.735,-15104.0,-7936.0,-320.0
9.7375,-15168.0,-8000.0,-320.0
9.74,-15232.0,-8000.0,-320.0
9.7425,-15232.0,-7936.0,-256.0
9.745,-15296.0,-7936.0,-320.0
9.7475,-15296.0,-8000.0,-320.0
9.75,-15296.0,-8000.0,-256.0
9.7525,-15360.0,-8000.0,-320.0
9.755,-15296.0,-8000.0,-256.0
9.7575,-15296.0,-8000.0,-256.0
9.76,-15168.0,-8000.0,-320.0
9.7625,-15168.0,-7936.0,-320.0
9.765,-15168.0,-8000.0,-320.0
9.7675,-15104.0,-7936.0,-320.0
9.77,-15040.0,-7936.0,-320.0
9.7725,-15040.0,-7872.0,-384.0
9.775,-14976.0,-7936.0,-320.0
9.7775,-14912.0,-7872.0,-320.0
9.78,-14848.0,-7872.0,-320.0
9.7825,-14784.0,-7872.0,-384.0
9.785,-14656.0,-7872.0,-448.0
9.7875,-14592.0,-7872.0,-448.0
9.79,-14528.0,-7936.0,-384.0
9.7925,-14336.0,-7872.0,-448.0
9.795,-14336.0,-7936.0,-384.0
9.7975,-14208.0,-7936.0,-384.0
9.8,-14144.0,-7936.0,-448.0
9.8025,-14080.0,-7808.0,-448.0
9.805,-14016.0,-7872.0,-384.0
9.8075,-13888.0,-7808.0,-448.0
9.81,-13888.0,-7808.0,-512.0
9.8125,-13824.0,-7744.0,-512.0
9.815,-13824.0,-7808.0,-512.0
9.8175,-13824.0,-7808.0,-576.0
9.82,-13888.0,-7808.0,-576.0
9.8225,-13888.0,-7808.0,-576.0
9.825,-13888.0,-7808.0,-640.0
9.8275,-13952.0,-7808.0,-704.0
9.83,-13952.0,-7808.0,-704.0
9.8325,-14016.0,-7808.0,-704.0
9.835,-14016.0,-7872.0,-704.0
9.8375,-14016.0,-7808.0,-768.0
9.84,-14080.0,-7872.0,-768.0
9.8425,-14144.0,-7872.0,-832.0
9.845,-14144.0,-7936.0,-832.0
9.8475,-14144.0,-7936.0,-832.0
9.85,-14208.0,-7872.0,-832.0
9.8525,-14208.0,-7936.0,-768.0
9.855,-14272.0,-7936.0,-832.0
9.8575,-14208.0,-7936.0,-768.0
9.86,-14144.0,-7936.0,-832.0
9.8625,-14208.0,-7936.0,-832.0
9.865,-14208.0,-7936.0,-832.0
9.8675,-14208.0,-7872.0,-768.0
9.87,-14144.0,-7936.0,-768.0
9.8725,-14080.0,-7872.0,-768.0
9.875,-14144.0,-7872.0,-768.0
9.8775,-14144.0,-7872.0,-768.0
9.88,-14016.0,-7808.0,-832.0
9.8825,-13952.0,-7808.0,-768.0
9.885,-13888.0,-7808.0,-832.0
9.8875,-13888.0,-7808.0,-896.0
9.89,-13824.0,-7744.0,-832.0
9.8925,-13760.0,-7744.0,-768.0
9.895,-13696.0,-7744.0,-768.0
9.8975,-13632.0,-7744.0,-768.0
9.9,-13568.0,-7680.0,-768.0
9.9025,-13504.0,-7552.0,-832.0
9.905,-13504.0,-7552.0,-768.0
9.9075,-13440.0,-7488.0,-832.0
9.91,-13504.0,-7552.0,-832.0
9.9125,-13504.0,-7552.0,-896.0
9.915,-13568.0,-7552.0,-832.0
9.9175,-13632.0,-7552.0,-896.0
9.92,-13696.0,-7616.0,-960.0
9.9225,-13696.0,-7616.0,-960.0
9.925,-13760.0,-7552.0,-960.0
9.9275,-13824.0,-7616.0,-896.0
9.93,-13952.0,-7680.0,-960.0
9.9325,-14016.0,-7744.0,-960.0
9.935,-14080.0,-7680.0,-1024.0
9.9375,-14144.0,-7744.0,-960.0
9.94,-14208.0,-7744.0,-960.0
9.9425,-14272.0,-7744.0,-960.0
9.945,-14336.0,-7744.0,-1024.0
9.9475,-14464.0,-7680.0,-1024.0
9.95,-14528.0,-7680.0,-1024.0
9.9525,-14528.0,-7744.0,-1024.0
9.955,-14592.0,-7744.0,-960.0
9.9575,-14656.0,-7808.0,-960.0
9.96,-14784.0,-7680.0,-960.0
9.9625,-14784.0,-7744.0,-896.0
9.965,-14848.0,-7808.0,-896.0
9.9675,-14912.0,-7744.0,-896.0
9.97,-14912.0,-7808.0,-960.0
9.9725,-14912.0,-7808.0,-960.0
9.975,-14976.0,-7808.0,-896.0
9.9775,-14912.0,-7808.0,-896.0
9.98,-14912.0,-7808.0,-896.0
9.9825,-14912.0,-7808.0,-896.0
9.985,-14912.0,-7808.0,-896.0
9.9875,-14912.0,-7808.0,-896.0
9.99,-14976.0,-7744.0,-896.0
9.9925,-14912.0,-7808.0,-896.0
9.995,-14912.0,-7744.0,-896.0
9.9975,-14912.0,-7680.0,-832.0
10.0,-14848.0,-7680.0,-896.0
10.0025,-14784.0,-7616.0,-896.0
10.005,-14656.0,-7552.0,-832.0
10.0075,-14656.0,-7488.0,-832.0
10.01,-14592.0,-7488.0,-832.0
10.0125,-14592.0,-7488.0,-832.0
10.015,-14528.0,-7488.0,-768.0
10.0175,-14464.0,-7488.0,-768.0
