time_stamp,acc_x,acc_y,acc_z
0.0,-14784.0,-7168.0,-256.0
0.0025,-14848.0,-7104.0,-192.0
0.005,-14848.0,-7168.0,-192.0
0.0075,-14848.0,-7104.0,-128.0
0.01,-14912.0,-7104.0,-192.0
0.0125,-14848.0,-7168.0,-128.0
0.015,-14848.0,-7168.0,-128.0
0.0175,-14784.0,-7104.0,-128.0
0.02,-14848.0,-7104.0,-64.0
0.0225,-14912.0,-7104.0,-64.0
0.025,-14848.0,-7040.0,-64.0
0.0275,-14912.0,-7040.0,-64.0
0.03,-14912.0,-7104.0,-64.0
0.0325,-14912.0,-7104.0,-64.0
0.035,-14848.0,-7104.0,-64.0
0.0375,-14912.0,-7104.0,-128.0
0.04,-14912.0,-7104.0,-128.0
0.0425,-14912.0,-7040.0,-128.0
0.045,-14912.0,-7040.0,-64.0
0.0475,-14976.0,-7040.0,-128.0
0.05,-14912.0,-7104.0,-128.0
0.0525,-14912.0,-7104.0,-64.0
0.055,-14976.0,-7104.0,0.0
0.0575,-14976.0,-7104.0,-64.0
0.06,-14976.0,-7040.0,-128.0
0.0625,-14976.0,-7040.0,-128.0
0.065,-15040.0,-7040.0,-128.0
0.0675,-15040.0,-7104.0,-64.0
0.07,-14976.0,-7040.0,-64.0
0.0725,-15040.0,-7040.0,-64.0
0.075,-15040.0,-6976.0,-64.0
0.0775,-15040.0,-6976.0,0.0
0.08,-15104.0,-6976.0,-64.0
0.0825,-15040.0,-6976.0,-64.0
0.085,-15040.0,-7040.0,-64.0
0.0875,-15104.0,-6976.0,-64.0
0.09,-15040.0,-6976.0,-128.0
0.0925,-15104.0,-6912.0,-64.0
0.095,-15040.0,-6912.0,-64.0
0.0975,-15040.0,-6976.0,-64.0
0.1,-15040.0,-6912.0,-64.0
0.1025,-15040.0,-6912.0,-128.0
0.105,-15040.0,-6976.0,-64.0
0.1075,-15040.0,-6976.0,-64.0
0.11,-15040.0,-6976.0,-64.0
0.1125,-15040.0,-6976.0,-64.0
0.115,-14976.0,-6976.0,-64.0
0.1175,-14976.0,-6976.0,0.0
0.12,-14976.0,-6912.0,0.0
0.1225,-14976.0,-6912.0,-64.0
0.125,-14976.0,-6848.0,0.0
0.1275,-14912.0,-6912.0,-64.0
0.13,-14912.0,-6848.0,-64.0
0.1325,-14912.0,-6912.0,-64.0
0.135,-14912.0,-6848.0,0.0
0.1375,-14848.0,-6848.0,0.0
0.14,-14912.0,-6848.0,0.0
0.1425,-14976.0,-6848.0,-64.0
0.145,-14976.0,-6784.0,-64.0
0.1475,-14976.0,-6784.0,-64.0
0.15,-14976.0,-6720.0,-128.0
0.1525,-15040.0,-6720.0,-64.0
0.155,-14976.0,-6720.0,-64.0
0.1575,-14912.0,-6720.0,-64.0
0.16,-14912.0,-6784.0,-64.0
0.1625,-14976.0,-6848.0,0.0
0.165,-14976.0,-6912.0,-64.0
0.1675,-14976.0,-6848.0,0.0
0.17,-14976.0,-6784.0,-64.0
0.1725,-14912.0,-6784.0,-64.0
0.175,-14848.0,-6784.0,-64.0
0.1775,-14848.0,-6784.0,-64.0
0.18,-14912.0,-6848.0,-64.0
0.1825,-14848.0,-6784.0,-64.0
0.185,-14912.0,-6784.0,-64.0
0.1875,-14912.0,-6784.0,-64.0
0.19,-14976.0,-6720.0,0.0
0.1925,-14912.0,-6720.0,-64.0
0.195,-14912.0,-6720.0,-64.0
0.1975,-14912.0,-6720.0,-64.0
0.2,-14912.0,-6720.0,0.0
0.2025,-14912.0,-6720.0,-64.0
0.205,-14912.0,-6720.0,0.0
0.2075,-14976.0,-6720.0,-64.0
0.21,-14912.0,-6720.0,0.0
0.2125,-14912.0,-6720.0,0.0
0.215,-14912.0,-6784.0,-64.0
0.2175,-14976.0,-6784.0,0.0
0.22,-14976.0,-6720.0,0.0
0.2225,-14976.0,-6784.0,0.0
0.225,-14976.0,-6784.0,0.0
0.2275,-14976.0,-6784.0,0.0
0.23,-14976.0,-6784.0,-64.0
0.2325,-14912.0,-6720.0,-64.0
0.235,-14976.0,-6720.0,-128.0
0.2375,-14912.0,-6720.0,-64.0
0.24,-15040.0,-6720.0,-64.0
0.2425,-15040.0,-6720.0,0.0
0.245,-14976.0,-6720.0,0.0
0.2475,-14976.0,-6720.0,0.0
0.25,-14912.0,-6784.0,0.0
0.2525,-14912.0,-6784.0,0.0
0.255,-14912.0,-6784.0,64.0
0.2575,-14912.0,-6784.0,-64.0
0.26,-14912.0,-6784.0,0.0
0.2625,-14848.0,-6784.0,-64.0
0.265,-14912.0,-6784.0,0.0
0.2675,-14848.0,-6848.0,0.0
0.27,-14848.0,-6848.0,-64.0
0.2725,-14912.0,-6848.0,-64.0
0.275,-14912.0,-6848.0,-64.0
0.2775,-14848.0,-6912.0,-64.0
0.28,-14848.0,-6848.0,-64.0
0.2825,-14784.0,-6912.0,-64.0
0.285,-14912.0,-6912.0,-64.0
0.2875,-14848.0,-6848.0,0.0
0.29,-14848.0,-6848.0,-64.0
0.2925,-14912.0,-6848.0,-64.0
0.295,-14848.0,-6784.0,0.0
0.2975,-14848.0,-6848.0,-64.0
0.3,-14848.0,-6784.0,0.0
0.3025,-14848.0,-6784.0,-64.0
0.305,-14848.0,-6784.0,-64.0
0.3075,-14784.0,-6784.0,-128.0
0.31,-14848.0,-6784.0,-64.0
0.3125,-14848.0,-6784.0,-64.0
0.315,-14912.0,-6848.0,-64.0
0.3175,-14912.0,-6848.0,-64.0
0.32,-14912.0,-6848.0,-128.0
0.3225,-14912.0,-6848.0,-64.0
0.325,-14912.0,-6848.0,-64.0
0.3275,-14912.0,-6848.0,-128.0
0.33,-14912.0,-6784.0,-128.0
0.3325,-14912.0,-6848.0,-128.0
0.335,-14912.0,-6848.0,-128.0
0.3375,-14848.0,-6784.0,-64.0
0.34,-14912.0,-6720.0,-128.0
0.3425,-14912.0,-6720.0,-64.0
0.345,-14912.0,-6784.0,-64.0
0.3475,-14912.0,-6784.0,0.0
0.35,-14976.0,-6784.0,-64.0
0.3525,-14976.0,-6784.0,-64.0
0.355,-14912.0,-6784.0,-128.0
0.3575,-14976.0,-6784.0,-192.0
0.36,-14912.0,-6784.0,-128.0
0.3625,-14912.0,-6848.0,-64.0
0.365,-14976.0,-6848.0,-64.0
0.3675,-14976.0,-6784.0,-128.0
0.37,-15040.0,-6784.0,-128.0
0.3725,-15040.0,-6848.0,-192.0
0.375,-15040.0,-6784.0,-192.0
0.3775,-15040.0,-6784.0,-192.0
0.38,-14976.0,-6784.0,-192.0
0.3825,-15040.0,-6784.0,-128.0
0.385,-15040.0,-6784.0,-128.0
0.3875,-14976.0,-6912.0,-128.0
0.39,-14912.0,-6848.0,-128.0
0.3925,-14976.0,-6848.0,-192.0
0.395,-14912.0,-6848.0,-256.0
0.3975,-14976.0,-6848.0,-192.0
0.4,-14976.0,-6848.0,-256.0
0.4025,-15040.0,-6848.0,-192.0
0.405,-15040.0,-6848.0,-192.0
0.4075,-14976.0,-6848.0,-256.0
0.41,-15040.0,-6848.0,-192.0
0.4125,-15040.0,-6848.0,-128.0
0.415,-15040.0,-6848.0,-192.0
0.4175,-15040.0,-6784.0,-128.0
0.42,-15040.0,-6784.0,-128.0
0.4225,-15040.0,-6848.0,-128.0
0.425,-15040.0,-6848.0,-64.0
0.4275,-15040.0,-6848.0,-128.0
0.43,-15040.0,-6848.0,-192.0
0.4325,-15040.0,-6848.0,-192.0
0.435,-15104.0,-6848.0,-256.0
0.4375,-15040.0,-6912.0,-256.0
0.44,-15040.0,-6912.0,-128.0
0.4425,-15040.0,-6848.0,-192.0
0.445,-15040.0,-6848.0,-192.0
0.4475,-15040.0,-6912.0,-192.0
0.45,-14976.0,-6848.0,-192.0
0.4525,-14976.0,-6848.0,-192.0
0.455,-14976.0,-6848.0,-256.0
0.4575,-15040.0,-6848.0,-256.0
0.46,-14976.0,-6848.0,-256.0
0.4625,-14976.0,-6848.0,-256.0
0.465,-14976.0,-6848.0,-128.0
0.4675,-15040.0,-6784.0,-128.0
0.47,-15040.0,-6848.0,-192.0
0.4725,-15040.0,-6912.0,-192.0
0.475,-15040.0,-6848.0,-128.0
0.4775,-15040.0,-6976.0,-128.0
0.48,-15040.0,-6912.0,-64.0
0.4825,-15040.0,-6912.0,-64.0
0.485,-15040.0,-6848.0,-128.0
0.4875,-15040.0,-6848.0,-192.0
0.49,-15040.0,-6848.0,-192.0
0.4925,-15040.0,-6848.0,-64.0
0.495,-15040.0,-6848.0,-128.0
0.4975,-14976.0,-6912.0,-192.0
0.5,-15040.0,-6912.0,-128.0
0.5025,-15040.0,-6848.0,-192.0
0.505,-15104.0,-6848.0,-192.0
0.5075,-15040.0,-6848.0,-192.0
0.51,-15104.0,-6848.0,-128.0
0.5125,-15104.0,-6848.0,-64.0
0.515,-15040.0,-6848.0,-128.0
0.5175,-15104.0,-6848.0,-128.0
0.52,-15040.0,-6848.0,-64.0
0.5225,-15040.0,-6848.0,-64.0
0.525,-15104.0,-6912.0,0.0
0.5275,-15040.0,-6848.0,0.0
0.53,-15040.0,-6848.0,64.0
0.5325,-14976.0,-6848.0,0.0
0.535,-14976.0,-6848.0,-64.0
0.5375,-14976.0,-6912.0,-64.0
0.54,-15040.0,-6848.0,-64.0
0.5425,-15040.0,-6912.0,-64.0
0.545,-15040.0,-6912.0,0.0
0.5475,-14976.0,-6848.0,0.0
0.55,-14976.0,-6784.0,0.0
0.5525,-14976.0,-6848.0,128.0
0.555,-14912.0,-6912.0,64.0
0.5575,-14912.0,-6848.0,0.0
0.56,-14976.0,-6848.0,-64.0
0.5625,-15040.0,-6848.0,-64.0
0.565,-15040.0,-6912.0,0.0
0.5675,-15040.0,-6912.0,0.0
0.57,-15104.0,-6848.0,-64.0
0.5725,-15104.0,-6912.0,-64.0
0.575,-15168.0,-6848.0,0.0
0.5775,-15104.0,-6848.0,-64.0
0.58,-15104.0,-6912.0,0.0
0.5825,-15168.0,-6912.0,0.0
0.585,-15168.0,-6912.0,0.0
0.5875,-15168.0,-6912.0,-64.0
0.59,-15104.0,-6912.0,-64.0
0.5925,-15040.0,-6912.0,0.0
0.595,-15040.0,-6976.0,64.0
0.5975,-15040.0,-6912.0,128.0
0.6,-15040.0,-6912.0,64.0
0.6025,-14976.0,-6912.0,128.0
0.605,-14976.0,-6912.0,128.0
0.6075,-14976.0,-6912.0,192.0
0.61,-14976.0,-6912.0,128.0
0.6125,-14976.0,-6912.0,128.0
0.615,-14976.0,-6912.0,64.0
0.6175,-14976.0,-6912.0,128.0
0.62,-14912.0,-6912.0,128.0
0.6225,-14912.0,-6848.0,128.0
0.625,-14912.0,-6912.0,64.0
0.6275,-14912.0,-6912.0,64.0
0.63,-14848.0,-6912.0,0.0
0.6325,-14848.0,-6848.0,64.0
0.635,-14848.0,-6912.0,64.0
0.6375,-14848.0,-6976.0,128.0
0.64,-14848.0,-6976.0,-64.0
0.6425,-14912.0,-6912.0,0.0
0.645,-14912.0,-6912.0,0.0
0.6475,-14912.0,-6976.0,0.0
0.65,-14912.0,-6912.0,0.0
0.6525,-14912.0,-6912.0,0.0
0.655,-14848.0,-6912.0,0.0
0.6575,-14848.0,-6912.0,64.0
0.66,-14848.0,-6848.0,64.0
0.6625,-14848.0,-6912.0,128.0
0.665,-14912.0,-6912.0,64.0
0.6675,-14848.0,-6912.0,0.0
0.67,-14976.0,-6912.0,64.0
0.6725,-14976.0,-6912.0,64.0
0.675,-14976.0,-6912.0,64.0
0.6775,-14976.0,-6912.0,64.0
0.68,-14976.0,-6976.0,64.0
0.6825,-15040.0,-6976.0,64.0
0.685,-15040.0,-6976.0,64.0
0.6875,-15040.0,-6976.0,64.0
0.69,-15040.0,-6976.0,64.0
0.6925,-15104.0,-6912.0,64.0
0.695,-15104.0,-6976.0,64.0
0.6975,-15104.0,-6976.0,0.0
0.7,-15104.0,-6912.0,64.0
0.7025,-15168.0,-6912.0,0.0
0.705,-15232.0,-6912.0,0.0
0.7075,-15232.0,-6912.0,64.0
0.71,-15168.0,-6976.0,64.0
0.7125,-15232.0,-6912.0,0.0
0.715,-15168.0,-6912.0,0.0
0.7175,-15168.0,-6912.0,0.0
0.72,-15168.0,-6976.0,0.0
0.7225,-15232.0,-6912.0,0.0
0.725,-15168.0,-6912.0,0.0
0.7275,-15104.0,-6976.0,0.0
0.73,-15104.0,-6976.0,-64.0
0.7325,-15168.0,-6976.0,0.0
0.735,-15168.0,-6976.0,0.0
0.7375,-15168.0,-6912.0,0.0
0.74,-15168.0,-6976.0,0.0
0.7425,-15168.0,-6848.0,0.0
0.745,-15104.0,-6976.0,-64.0
0.7475,-15104.0,-6912.0,0.0
0.75,-15104.0,-6912.0,0.0
0.7525,-15040.0,-6912.0,-64.0
0.755,-15104.0,-6976.0,0.0
0.7575,-15104.0,-6976.0,64.0
0.76,-15040.0,-6976.0,-64.0
0.7625,-15040.0,-6976.0,-64.0
0.765,-15040.0,-6912.0,0.0
0.7675,-15040.0,-6912.0,0.0
0.77,-15040.0,-6912.0,-64.0
0.7725,-15040.0,-6912.0,-64.0
0.775,-14976.0,-6848.0,-64.0
0.7775,-15040.0,-6784.0,-64.0
0.78,-15040.0,-6848.0,-64.0
0.7825,-15040.0,-6848.0,-64.0
0.785,-15040.0,-6848.0,-64.0
0.7875,-15040.0,-6848.0,-64.0
0.79,-15104.0,-6848.0,-128.0
0.7925,-15040.0,-6848.0,-64.0
0.795,-15104.0,-6848.0,-64.0
0.7975,-15040.0,-6848.0,-64.0
0.8,-15040.0,-6912.0,0.0
0.8025,-15104.0,-6912.0,0.0
0.805,-15104.0,-6848.0,0.0
0.8075,-15104.0,-6784.0,64.0
0.81,-15104.0,-6848.0,64.0
0.8125,-15040.0,-6784.0,64.0
0.815,-15040.0,-6784.0,128.0
0.8175,-15104.0,-6784.0,64.0
0.82,-15040.0,-6720.0,0.0
0.8225,-15040.0,-6720.0,0.0
0.825,-15104.0,-6720.0,-64.0
0.8275,-15040.0,-6720.0,-64.0
0.83,-15040.0,-6784.0,64.0
0.8325,-15040.0,-6784.0,0.0
0.835,-14976.0,-6720.0,0.0
0.8375,-14976.0,-6784.0,64.0
0.84,-14976.0,-6720.0,64.0
0.8425,-14912.0,-6784.0,0.0
0.845,-14912.0,-6720.0,-64.0
0.8475,-14912.0,-6784.0,-64.0
0.85,-14848.0,-6720.0,0.0
0.8525,-14848.0,-6720.0,0.0
0.855,-14848.0,-6784.0,0.0
0.8575,-14848.0,-6720.0,-64.0
0.86,-14976.0,-6720.0,-64.0
0.8625,-14912.0,-6720.0,-64.0
0.865,-14912.0,-6784.0,-64.0
0.8675,-14912.0,-6784.0,0.0
0.87,-14912.0,-6848.0,-64.0
0.8725,-14912.0,-6784.0,-64.0
0.875,-14912.0,-6784.0,-64.0
0.8775,-14912.0,-6784.0,0.0
0.88,-14912.0,-6720.0,-64.0
0.8825,-14976.0,-6720.0,-64.0
0.885,-14976.0,-6720.0,0.0
0.8875,-14976.0,-6720.0,0.0
0.89,-14976.0,-6656.0,0.0
0.8925,-14912.0,-6720.0,0.0
0.895,-14848.0,-6784.0,0.0
0.8975,-14912.0,-6784.0,0.0
0.9,-14848.0,-6848.0,0.0
0.9025,-14912.0,-6784.0,0.0
0.905,-14848.0,-6784.0,-64.0
0.9075,-14848.0,-6848.0,-64.0
0.91,-14848.0,-6784.0,-64.0
0.9125,-14848.0,-6848.0,-64.0
0.915,-14784.0,-6848.0,-64.0
0.9175,-14848.0,-6784.0,-64.0
0.92,-14912.0,-6720.0,-64.0
0.9225,-14848.0,-6848.0,-64.0
0.925,-14848.0,-6784.0,0.0
0.9275,-14848.0,-6912.0,64.0
0.93,-14848.0,-6848.0,0.0
0.9325,-14848.0,-6784.0,0.0
0.935,-14848.0,-6784.0,0.0
0.9375,-14848.0,-6784.0,-64.0
0.94,-14912.0,-6784.0,-64.0
0.9425,-14912.0,-6784.0,-64.0
0.945,-14912.0,-6784.0,-64.0
0.9475,-14912.0,-6848.0,0.0
0.95,-14912.0,-6848.0,-64.0
0.9525,-14912.0,-6784.0,0.0
0.955,-14912.0,-6784.0,0.0
0.9575,-14912.0,-6784.0,-64.0
0.96,-14912.0,-6848.0,0.0
0.9625,-14912.0,-6848.0,0.0
0.965,-14912.0,-6784.0,0.0
0.9675,-14912.0,-6784.0,-64.0
0.97,-14976.0,-6784.0,-64.0
0.9725,-14976.0,-6784.0,0.0
0.975,-15040.0,-6784.0,0.0
0.9775,-15104.0,-6848.0,0.0
0.98,-15040.0,-6784.0,0.0
0.9825,-15040.0,-6784.0,0.0
0.985,-15040.0,-6848.0,64.0
0.9875,-15040.0,-6848.0,64.0
0.99,-15040.0,-6784.0,0.0
0.9925,-15040.0,-6784.0,0.0
0.995,-15104.0,-6720.0,64.0
0.9975,-15104.0,-6720.0,128.0
1.0,-15040.0,-6784.0,128.0
1.0025,-15040.0,-6784.0,192.0
1.005,-15040.0,-6784.0,192.0
1.0075,-14976.0,-6784.0,128.0
1.01,-14976.0,-6848.0,64.0
1.0125,-14976.0,-6720.0,64.0
1.015,-14976.0,-6720.0,0.0
1.0175,-14976.0,-6720.0,64.0
1.02,-14976.0,-6720.0,64.0
1.0225,-14976.0,-6720.0,64.0
1.025,-14912.0,-6784.0,64.0
1.0275,-14912.0,-6784.0,64.0
1.03,-14912.0,-6720.0,0.0
1.0325,-14976.0,-6784.0,0.0
1.035,-14976.0,-6784.0,64.0
1.0375,-14912.0,-6784.0,64.0
1.04,-14912.0,-6720.0,64.0
1.0425,-14912.0,-6656.0,64.0
1.045,-14912.0,-6656.0,64.0
1.0475,-14912.0,-6656.0,128.0
1.05,-14912.0,-6656.0,128.0
1.0525,-14848.0,-6656.0,64.0
1.055,-14848.0,-6656.0,64.0
1.0575,-14848.0,-6720.0,64.0
1.06,-14912.0,-6720.0,64.0
1.0625,-14912.0,-6720.0,64.0
1.065,-14848.0,-6720.0,64.0
1.0675,-14848.0,-6720.0,128.0
1.07,-14912.0,-6720.0,64.0
1.0725,-14912.0,-6720.0,128.0
1.075,-14912.0,-6656.0,64.0
1.0775,-14976.0,-6656.0,64.0
1.08,-14912.0,-6720.0,64.0
1.0825,-14912.0,-6720.0,128.0
1.085,-14912.0,-6720.0,128.0
1.0875,-14976.0,-6720.0,64.0
1.09,-14976.0,-6656.0,64.0
1.0925,-14912.0,-6784.0,64.0
1.095,-14912.0,-6784.0,64.0
1.0975,-14912.0,-6720.0,64.0
1.1,-14912.0,-6784.0,0.0
1.1025,-14912.0,-6784.0,0.0
1.105,-14912.0,-6784.0,-64.0
1.1075,-14912.0,-6784.0,-64.0
1.11,-14912.0,-6784.0,0.0
1.1125,-14912.0,-6784.0,0.0
1.115,-14912.0,-6784.0,0.0
1.1175,-14976.0,-6784.0,0.0
1.12,-14848.0,-6784.0,0.0
1.1225,-14912.0,-6784.0,0.0
1.125,-14912.0,-6784.0,0.0
1.1275,-14976.0,-6784.0,0.0
1.13,-14912.0,-6848.0,-64.0
1.1325,-14976.0,-6848.0,0.0
1.135,-14912.0,-6848.0,0.0
1.1375,-14912.0,-6784.0,0.0
1.14,-14912.0,-6784.0,0.0
1.1425,-14912.0,-6848.0,0.0
1.145,-14848.0,-6784.0,0.0
1.1475,-14912.0,-6848.0,0.0
1.15,-14912.0,-6848.0,64.0
1.1525,-14912.0,-6784.0,0.0
1.155,-14912.0,-6784.0,-64.0
1.1575,-14912.0,-6784.0,0.0
1.16,-14912.0,-6848.0,0.0
1.1625,-14848.0,-6848.0,0.0
1.165,-14848.0,-6848.0,-64.0
1.1675,-14848.0,-6848.0,64.0
1.17,-14848.0,-6912.0,128.0
1.1725,-14848.0,-6848.0,64.0
1.175,-14848.0,-6912.0,64.0
1.1775,-14912.0,-6912.0,0.0
1.18,-14912.0,-6912.0,0.0
1.1825,-14848.0,-6976.0,0.0
1.185,-14848.0,-6912.0,0.0
1.1875,-14912.0,-6912.0,0.0
1.19,-14912.0,-6912.0,-64.0
1.1925,-14848.0,-6912.0,0.0
1.195,-14848.0,-6912.0,0.0
1.1975,-14848.0,-6848.0,-64.0
1.2,-14848.0,-6912.0,-64.0
1.2025,-14848.0,-6912.0,0.0
1.205,-14848.0,-6912.0,0.0
1.2075,-14848.0,-6912.0,0.0
1.21,-14784.0,-6912.0,-64.0
1.2125,-14848.0,-6848.0,-64.0
1.215,-14848.0,-6912.0,0.0
1.2175,-14784.0,-6912.0,-64.0
1.22,-14848.0,-6784.0,0.0
1.2225,-14912.0,-6848.0,-64.0
1.225,-14848.0,-6848.0,0.0
1.2275,-14848.0,-6912.0,0.0
1.23,-14912.0,-6976.0,-64.0
1.2325,-14912.0,-6912.0,-64.0
1.235,-14912.0,-6912.0,-128.0
1.2375,-14976.0,-6912.0,-128.0
1.24,-14976.0,-6912.0,-64.0
1.2425,-14848.0,-6976.0,-64.0
1.245,-14912.0,-6912.0,0.0
1.2475,-14848.0,-6976.0,0.0
1.25,-14912.0,-6976.0,0.0
1.2525,-14912.0,-6976.0,64.0
1.255,-14912.0,-6912.0,64.0
1.2575,-14912.0,-6912.0,0.0
1.26,-14848.0,-6912.0,0.0
1.2625,-14848.0,-6912.0,0.0
1.265,-14848.0,-6912.0,0.0
1.2675,-14848.0,-6912.0,0.0
1.27,-14848.0,-6976.0,0.0
1.2725,-14848.0,-6976.0,64.0
1.275,-14784.0,-6912.0,0.0
1.2775,-14784.0,-6912.0,-64.0
1.28,-14784.0,-6976.0,-64.0
1.2825,-14784.0,-6912.0,-64.0
1.285,-14848.0,-6976.0,-64.0
1.2875,-14848.0,-6976.0,-64.0
1.29,-14848.0,-6976.0,-64.0
1.2925,-14848.0,-6976.0,-64.0
1.295,-14720.0,-6912.0,-64.0
1.2975,-14784.0,-6912.0,0.0
1.3,-14784.0,-6976.0,-64.0
1.3025,-14784.0,-6976.0,-64.0
1.305,-14784.0,-7040.0,-64.0
1.3075,-14784.0,-7040.0,-64.0
1.31,-14720.0,-7040.0,-64.0
1.3125,-14720.0,-7040.0,-64.0
1.315,-14656.0,-6976.0,-64.0
1.3175,-14720.0,-6976.0,-64.0
1.32,-14720.0,-7040.0,0.0
1.3225,-14784.0,-7040.0,-64.0
1.325,-14784.0,-7040.0,-128.0
1.3275,-14784.0,-7104.0,-64.0
1.33,-14784.0,-7168.0,0.0
1.3325,-14784.0,-7104.0,0.0
1.335,-14784.0,-7040.0,-64.0
1.3375,-14720.0,-7040.0,0.0
1.34,-14720.0,-7040.0,0.0
1.3425,-14784.0,-7040.0,-64.0
1.345,-14784.0,-7104.0,0.0
1.3475,-14784.0,-7040.0,-64.0
1.35,-14784.0,-7040.0,-128.0
1.3525,-14784.0,-7040.0,-128.0
1.355,-14848.0,-7104.0,-128.0
1.3575,-14848.0,-7104.0,-128.0
1.36,-14848.0,-7104.0,-128.0
1.3625,-14848.0,-7104.0,-128.0
1.365,-14848.0,-7104.0,-128.0
1.3675,-14848.0,-7104.0,-128.0
1.37,-14912.0,-7104.0,-128.0
1.3725,-14976.0,-7104.0,-128.0
1.375,-14976.0,-7104.0,-192.0
1.3775,-14976.0,-7104.0,-192.0
1.38,-14976.0,-7104.0,-128.0
1.3825,-15040.0,-7104.0,-128.0
1.385,-14976.0,-7104.0,-64.0
1.3875,-15040.0,-7104.0,-128.0
1.39,-14976.0,-7040.0,-128.0
1.3925,-14976.0,-7104.0,-128.0
1.395,-14976.0,-7104.0,-128.0
1.3975,-14912.0,-7104.0,-128.0
1.4,-14912.0,-7104.0,-128.0
1.4025,-14912.0,-7104.0,-128.0
1.405,-14976.0,-7104.0,-128.0
1.4075,-14976.0,-7104.0,-128.0
1.41,-14912.0,-7104.0,-64.0
1.4125,-14912.0,-7104.0,-128.0
1.415,-14848.0,-7040.0,-64.0
1.4175,-14848.0,-7104.0,-64.0
1.42,-14912.0,-7104.0,-64.0
1.4225,-14848.0,-7040.0,0.0
1.425,-14912.0,-7040.0,-64.0
1.4275,-14912.0,-6976.0,-64.0
1.43,-14912.0,-7040.0,-64.0
1.4325,-14912.0,-7040.0,-128.0
1.435,-14976.0,-7040.0,-128.0
1.4375,-14912.0,-7040.0,-128.0
1.44,-14912.0,-7040.0,-64.0
1.4425,-14912.0,-7040.0,-128.0
1.445,-14976.0,-6976.0,-128.0
1.4475,-14912.0,-6976.0,-128.0
1.45,-14912.0,-6976.0,-128.0
1.4525,-14784.0,-6976.0,-128.0
1.455,-14848.0,-7040.0,-128.0
1.4575,-14784.0,-6976.0,-128.0
1.46,-14784.0,-6976.0,-64.0
1.4625,-14784.0,-6976.0,0.0
1.465,-14784.0,-6976.0,-64.0
1.4675,-14720.0,-6976.0,-64.0
1.47,-14784.0,-7040.0,-64.0
1.4725,-14784.0,-7040.0,-128.0
1.475,-14784.0,-6976.0,-64.0
1.4775,-14784.0,-6976.0,-128.0
1.48,-14784.0,-7040.0,-128.0
1.4825,-14784.0,-6976.0,-192.0
1.485,-14720.0,-6976.0,-192.0
1.4875,-14784.0,-6976.0,-192.0
1.49,-14784.0,-6976.0,-192.0
1.4925,-14848.0,-6976.0,-192.0
1.495,-14848.0,-6912.0,-256.0
1.4975,-14848.0,-6912.0,-128.0
1.5,-14912.0,-6912.0,-128.0
1.5025,-14912.0,-6976.0,-128.0
1.505,-14912.0,-6976.0,-64.0
1.5075,-14912.0,-6976.0,-64.0
1.51,-14912.0,-6976.0,-128.0
1.5125,-14912.0,-7040.0,-64.0
1.515,-14912.0,-7040.0,-128.0
1.5175,-14912.0,-7040.0,-128.0
1.52,-14976.0,-7040.0,-64.0
1.5225,-14912.0,-7040.0,-128.0
1.525,-14912.0,-7040.0,0.0
1.5275,-14848.0,-7040.0,-64.0
1.53,-14912.0,-6976.0,0.0
1.5325,-14912.0,-6976.0,-64.0
1.535,-14912.0,-6976.0,-64.0
1.5375,-14912.0,-6976.0,-64.0
1.54,-14912.0,-7040.0,-64.0
1.5425,-14976.0,-6912.0,-128.0
1.545,-14912.0,-6976.0,-64.0
1.5475,-14976.0,-7040.0,-128.0
1.55,-14976.0,-7040.0,-64.0
1.5525,-14976.0,-7040.0,-64.0
1.555,-14912.0,-7040.0,-64.0
1.5575,-14912.0,-6976.0,-128.0
1.56,-14912.0,-7040.0,-64.0
1.5625,-14912.0,-7040.0,-64.0
1.565,-14976.0,-6976.0,-64.0
1.5675,-14976.0,-6976.0,-128.0
1.57,-14976.0,-6976.0,-128.0
1.5725,-14976.0,-6912.0,-64.0
1.575,-14976.0,-6976.0,-128.0
1.5775,-14976.0,-7040.0,-64.0
1.58,-15040.0,-6912.0,0.0
1.5825,-14976.0,-6912.0,-64.0
1.585,-14976.0,-6976.0,-64.0
1.5875,-14976.0,-6912.0,-64.0
1.59,-14976.0,-6976.0,-64.0
1.5925,-14912.0,-6976.0,-128.0
1.595,-14912.0,-6976.0,-64.0
1.5975,-14912.0,-6976.0,-128.0
1.6,-14912.0,-6976.0,-192.0
1.6025,-14912.0,-6912.0,-192.0
1.605,-14912.0,-7040.0,-192.0
1.6075,-14912.0,-7040.0,-128.0
1.61,-14912.0,-7040.0,-192.0
1.6125,-14848.0,-7040.0,-128.0
1.615,-14912.0,-6976.0,-192.0
1.6175,-14976.0,-6912.0,-128.0
1.62,-14848.0,-6976.0,-128.0
1.6225,-14912.0,-6976.0,-128.0
1.625,-14912.0,-6976.0,-64.0
1.6275,-14848.0,-7040.0,-128.0
1.63,-14848.0,-7040.0,-128.0
1.6325,-14848.0,-7040.0,-128.0
1.635,-14848.0,-6976.0,-64.0
1.6375,-14912.0,-6976.0,-64.0
1.64,-14848.0,-6976.0,-64.0
1.6425,-14848.0,-7040.0,-64.0
1.645,-14848.0,-6976.0,-64.0
1.6475,-14848.0,-7040.0,-128.0
1.65,-14848.0,-6976.0,-128.0
1.6525,-14848.0,-6976.0,-64.0
1.655,-14848.0,-6976.0,-64.0
1.6575,-14848.0,-7040.0,-64.0
1.66,-14912.0,-7040.0,-64.0
1.6625,-14976.0,-7040.0,-64.0
1.665,-14912.0,-7040.0,-64.0
1.6675,-14912.0,-7040.0,-128.0
1.67,-14912.0,-7040.0,-128.0
1.6725,-14912.0,-7104.0,-128.0
1.675,-14912.0,-7104.0,-128.0
1.6775,-14912.0,-7104.0,-64.0
1.68,-14912.0,-7040.0,-64.0
1.6825,-14912.0,-7040.0,-128.0
1.685,-14912.0,-7040.0,-128.0
1.6875,-14912.0,-7040.0,-128.0
1.69,-14912.0,-7040.0,-128.0
1.6925,-14976.0,-7104.0,-128.0
1.695,-14976.0,-7104.0,-64.0
1.6975,-14976.0,-7104.0,-128.0
1.7,-14912.0,-7104.0,-128.0
1.7025,-14912.0,-7040.0,-192.0
1.705,-14912.0,-7040.0,-192.0
1.7075,-14912.0,-7040.0,-128.0
1.71,-14912.0,-7104.0,-128.0
1.7125,-14912.0,-7040.0,-192.0
1.715,-14912.0,-7040.0,-192.0
1.7175,-14912.0,-7104.0,-128.0
1.72,-14848.0,-7040.0,-128.0
1.7225,-14976.0,-6976.0,-192.0
1.725,-14912.0,-7040.0,-192.0
1.7275,-14912.0,-7104.0,-128.0
1.73,-14912.0,-7104.0,-128.0
1.7325,-14912.0,-7104.0,-64.0
1.735,-14912.0,-7040.0,-128.0
1.7375,-14912.0,-7040.0,-64.0
1.74,-14912.0,-7104.0,-64.0
1.7425,-14976.0,-7104.0,-64.0
1.745,-14848.0,-7168.0,-128.0
1.7475,-14848.0,-7104.0,0.0
1.75,-14848.0,-7104.0,-64.0
1.7525,-14912.0,-7104.0,-128.0
1.755,-14912.0,-7104.0,-128.0
1.7575,-14912.0,-7104.0,-128.0
1.76,-14912.0,-7040.0,-64.0
1.7625,-14912.0,-7040.0,0.0
1.765,-14912.0,-7104.0,-64.0
1.7675,-14976.0,-7104.0,-64.0
1.77,-14912.0,-7104.0,-128.0
1.7725,-14912.0,-7104.0,-64.0
1.775,-14848.0,-7104.0,-64.0
1.7775,-14784.0,-7104.0,-64.0
1.78,-14784.0,-7104.0,-64.0
1.7825,-14784.0,-7104.0,-128.0
1.785,-14784.0,-7104.0,-128.0
1.7875,-14784.0,-7040.0,-64.0
1.79,-14784.0,-7040.0,-64.0
1.7925,-14784.0,-7104.0,-64.0
1.795,-14784.0,-7104.0,-64.0
1.7975,-14848.0,-7104.0,-64.0
1.8,-14848.0,-7104.0,-64.0
1.8025,-14848.0,-7040.0,-64.0
1.805,-14848.0,-7040.0,-128.0
1.8075,-14848.0,-7040.0,-128.0
1.81,-14848.0,-6976.0,0.0
1.8125,-14784.0,-7040.0,-64.0
1.815,-14848.0,-6976.0,-64.0
1.8175,-14784.0,-7040.0,0.0
1.82,-14784.0,-7040.0,-128.0
1.8225,-14784.0,-7040.0,-64.0
1.825,-14784.0,-7040.0,-128.0
1.8275,-14720.0,-7040.0,0.0
1.83,-14720.0,-7104.0,0.0
1.8325,-14720.0,-7168.0,0.0
1.835,-14784.0,-7104.0,-64.0
1.8375,-14848.0,-7104.0,-64.0
1.84,-14848.0,-7104.0,-64.0
1.8425,-14912.0,-7040.0,-64.0
1.845,-14848.0,-7040.0,-64.0
1.8475,-14848.0,-7104.0,-64.0
1.85,-14848.0,-7104.0,-64.0
1.8525,-14848.0,-7104.0,-128.0
1.855,-14912.0,-7040.0,-64.0
1.8575,-14912.0,-7040.0,-128.0
1.86,-14848.0,-7040.0,-128.0
1.8625,-14848.0,-7040.0,-128.0
1.865,-14848.0,-7040.0,-192.0
1.8675,-14848.0,-7040.0,-192.0
1.87,-14848.0,-7040.0,-192.0
1.8725,-14912.0,-7040.0,-192.0
1.875,-14912.0,-7040.0,-192.0
1.8775,-14976.0,-7040.0,-256.0
1.88,-14976.0,-6976.0,-256.0
1.8825,-14976.0,-6976.0,-320.0
1.885,-15040.0,-6976.0,-256.0
1.8875,-15104.0,-7040.0,-320.0
1.89,-15040.0,-7104.0,-320.0
1.8925,-15104.0,-7040.0,-256.0
1.895,-15104.0,-7040.0,-256.0
1.8975,-15040.0,-7104.0,-192.0
1.9,-14976.0,-7040.0,-128.0
1.9025,-14976.0,-7040.0,-128.0
1.905,-14912.0,-7040.0,-128.0
1.9075,-14912.0,-6976.0,-128.0
1.91,-14912.0,-7104.0,-128.0
1.9125,-14912.0,-7040.0,-128.0
1.915,-14912.0,-7040.0,-128.0
1.9175,-14848.0,-7040.0,-192.0
1.92,-14848.0,-6976.0,-128.0
1.9225,-14784.0,-7040.0,-128.0
1.925,-14848.0,-7104.0,-64.0
1.9275,-14848.0,-7040.0,-192.0
1.93,-14848.0,-6976.0,-192.0
1.9325,-14848.0,-7040.0,-192.0
1.935,-14848.0,-7040.0,-192.0
1.9375,-14848.0,-7040.0,-192.0
1.94,-14848.0,-6976.0,-192.0
1.9425,-14784.0,-6976.0,-256.0
1.945,-14848.0,-7040.0,-256.0
1.9475,-14848.0,-7040.0,-256.0
1.95,-14848.0,-7040.0,-192.0
1.9525,-14784.0,-7040.0,-192.0
1.955,-14848.0,-7040.0,-256.0
1.9575,-14912.0,-7040.0,-256.0
1.96,-14848.0,-7040.0,-192.0
1.9625,-14912.0,-7040.0,-192.0
1.965,-14912.0,-7040.0,-192.0
1.9675,-14912.0,-7040.0,-256.0
1.97,-14848.0,-7040.0,-192.0
1.9725,-14848.0,-7040.0,-256.0
1.975,-14848.0,-6976.0,-256.0
1.9775,-14912.0,-6976.0,-256.0
1.98,-14912.0,-7040.0,-192.0
1.9825,-14912.0,-7040.0,-128.0
1.985,-14912.0,-7104.0,-256.0
1.9875,-14912.0,-7104.0,-256.0
1.99,-14912.0,-7104.0,-256.0
1.9925,-14912.0,-7040.0,-256.0
1.995,-14912.0,-6976.0,-256.0
1.9975,-14912.0,-6976.0,-256.0
2.0,-14912.0,-6976.0,-256.0
2.0025,-14912.0,-7040.0,-320.0
2.005,-14976.0,-6976.0,-192.0
2.0075,-14976.0,-6976.0,-256.0
2.01,-14976.0,-6976.0,-320.0
2.0125,-14976.0,-6976.0,-320.0
2.015,-14976.0,-6976.0,-192.0
2.0175,-14976.0,-6912.0,-192.0
2.02,-14912.0,-6976.0,-192.0
2.0225,-14912.0,-6976.0,-256.0
2.025,-14976.0,-6976.0,-256.0
2.0275,-14976.0,-6976.0,-256.0
2.03,-14976.0,-6976.0,-256.0
2.0325,-15040.0,-6976.0,-256.0
2.035,-15040.0,-6976.0,-128.0
2.0375,-15040.0,-6912.0,-192.0
2.04,-14912.0,-6976.0,-192.0
2.0425,-14976.0,-6976.0,-192.0
2.045,-14976.0,-6976.0,-192.0
2.0475,-14976.0,-7040.0,-192.0
2.05,-15040.0,-6976.0,-192.0
2.0525,-14976.0,-6976.0,-128.0
2.055,-14912.0,-7040.0,-192.0
2.0575,-14912.0,-6976.0,-192.0
2.06,-14976.0,-6912.0,-256.0
2.0625,-14976.0,-6976.0,-192.0
2.065,-14912.0,-6976.0,-128.0
2.0675,-14912.0,-6976.0,0.0
2.07,-14976.0,-6976.0,-128.0
2.0725,-14976.0,-6976.0,-192.0
2.075,-14912.0,-6976.0,-128.0
2.0775,-14976.0,-6976.0,-192.0
2.08,-14976.0,-6912.0,-192.0
2.0825,-14976.0,-6912.0,-256.0
2.085,-14912.0,-6912.0,-192.0
2.0875,-14976.0,-6976.0,-128.0
2.09,-14912.0,-7040.0,-192.0
2.0925,-14912.0,-6976.0,-128.0
2.095,-14976.0,-6976.0,-192.0
2.0975,-14912.0,-6976.0,-192.0
2.1,-14912.0,-7040.0,-192.0
2.1025,-14848.0,-6976.0,-192.0
2.105,-14784.0,-6976.0,-192.0
2.1075,-14848.0,-6912.0,-128.0
2.11,-14848.0,-6912.0,-128.0
2.1125,-14848.0,-6912.0,-128.0
2.115,-14848.0,-6976.0,-64.0
2.1175,-14784.0,-6976.0,-128.0
2.12,-14848.0,-6976.0,-128.0
2.1225,-14848.0,-6912.0,-64.0
2.125,-14784.0,-6976.0,0.0
2.1275,-14784.0,-6976.0,-64.0
2.13,-14784.0,-6976.0,-128.0
2.1325,-14720.0,-7040.0,-128.0
2.135,-14720.0,-7040.0,-128.0
2.1375,-14784.0,-6976.0,-128.0
2.14,-14784.0,-6976.0,-128.0
2.1425,-14720.0,-7040.0,-128.0
2.145,-14784.0,-6976.0,-128.0
2.1475,-14784.0,-6976.0,-128.0
2.15,-14848.0,-6976.0,-128.0
2.1525,-14848.0,-6976.0,-192.0
2.155,-14848.0,-7040.0,-128.0
2.1575,-14848.0,-7040.0,-128.0
2.16,-14784.0,-7040.0,-128.0
2.1625,-14848.0,-6976.0,-128.0
2.165,-14784.0,-6976.0,-128.0
2.1675,-14848.0,-6976.0,-192.0
2.17,-14848.0,-6976.0,-192.0
2.1725,-14848.0,-7040.0,-192.0
2.175,-14784.0,-7040.0,-128.0
2.1775,-14784.0,-7104.0,-128.0
2.18,-14784.0,-7040.0,-128.0
2.1825,-14784.0,-7040.0,-128.0
2.185,-14784.0,-7040.0,-128.0
2.1875,-14848.0,-7104.0,-128.0
2.19,-14784.0,-7104.0,-128.0
2.1925,-14848.0,-7040.0,-192.0
2.195,-14848.0,-7104.0,-192.0
2.1975,-14912.0,-7104.0,-128.0
2.2,-14848.0,-7104.0,-192.0
2.2025,-14912.0,-7040.0,-192.0
2.205,-14912.0,-6976.0,-128.0
2.2075,-14848.0,-7040.0,-192.0
2.21,-14784.0,-7040.0,-128.0
2.2125,-14784.0,-7040.0,-128.0
2.215,-14848.0,-7104.0,-64.0
2.2175,-14848.0,-6976.0,-128.0
2.22,-14912.0,-6976.0,-192.0
2.2225,-14848.0,-6976.0,-128.0
2.225,-14848.0,-6976.0,-192.0
2.2275,-14848.0,-7040.0,-128.0
2.23,-14784.0,-7040.0,-192.0
2.2325,-14784.0,-7040.0,-192.0
2.235,-14784.0,-7040.0,-192.0
2.2375,-14784.0,-7040.0,-192.0
2.24,-14784.0,-7040.0,-128.0
2.2425,-14784.0,-7104.0,-192.0
2.245,-14848.0,-7040.0,-192.0
2.2475,-14848.0,-7040.0,-192.0
2.25,-14848.0,-7040.0,-192.0
2.2525,-14912.0,-6976.0,-192.0
2.255,-14912.0,-6976.0,-192.0
2.2575,-14912.0,-6976.0,-128.0
2.26,-14848.0,-7040.0,-128.0
2.2625,-14784.0,-7104.0,-128.0
2.265,-14848.0,-7040.0,-128.0
2.2675,-14848.0,-7104.0,-192.0
2.27,-14848.0,-7104.0,-192.0
2.2725,-14848.0,-7040.0,-192.0
2.275,-14848.0,-7040.0,-192.0
2.2775,-14912.0,-7104.0,-192.0
2.28,-14912.0,-7040.0,-192.0
2.2825,-14912.0,-7040.0,-192.0
2.285,-14912.0,-7040.0,-128.0
2.2875,-14848.0,-7040.0,-128.0
2.29,-14848.0,-7040.0,-192.0
2.2925,-14912.0,-7040.0,-256.0
2.295,-14912.0,-7040.0,-256.0
2.2975,-14912.0,-7040.0,-192.0
2.3,-14976.0,-6976.0,-192.0
2.3025,-14976.0,-7040.0,-192.0
2.305,-14976.0,-6976.0,-128.0
2.3075,-14912.0,-6912.0,-128.0
2.31,-14912.0,-6976.0,-128.0
2.3125,-14912.0,-6976.0,-128.0
2.315,-14912.0,-6912.0,-128.0
2.3175,-14912.0,-6976.0,-192.0
2.32,-14848.0,-6976.0,-128.0
2.3225,-14848.0,-6976.0,-128.0
2.325,-14848.0,-6976.0,-128.0
2.3275,-14848.0,-6976.0,-192.0
2.33,-14912.0,-6976.0,-192.0
2.3325,-14912.0,-6976.0,-128.0
2.335,-14912.0,-6976.0,-128.0
2.3375,-14912.0,-6976.0,-128.0
2.34,-14912.0,-6912.0,-192.0
2.3425,-14976.0,-6912.0,-128.0
2.345,-14912.0,-6912.0,-64.0
2.3475,-14912.0,-6912.0,-64.0
2.35,-14976.0,-6912.0,-128.0
2.3525,-14976.0,-6912.0,-64.0
2.355,-14976.0,-6912.0,-64.0
2.3575,-14912.0,-6912.0,-128.0
2.36,-14848.0,-6912.0,-64.0
2.3625,-14848.0,-6848.0,-64.0
2.365,-14912.0,-6912.0,-64.0
2.3675,-14912.0,-6912.0,-64.0
2.37,-14912.0,-6912.0,0.0
2.3725,-14848.0,-6912.0,0.0
2.375,-14912.0,-6912.0,0.0
2.3775,-14912.0,-6848.0,-64.0
2.38,-14848.0,-6976.0,-64.0
2.3825,-14848.0,-6976.0,0.0
2.385,-14912.0,-6912.0,0.0
2.3875,-14976.0,-6848.0,0.0
2.39,-14976.0,-6912.0,0.0
2.3925,-14912.0,-6848.0,64.0
2.395,-14848.0,-6784.0,-64.0
2.3975,-14848.0,-6848.0,-64.0
2.4,-14912.0,-6848.0,0.0
2.4025,-14912.0,-6848.0,64.0
2.405,-14912.0,-6848.0,0.0
2.4075,-14976.0,-6912.0,0.0
2.41,-14976.0,-6912.0,0.0
2.4125,-14976.0,-6912.0,-64.0
2.415,-14976.0,-6912.0,-64.0
2.4175,-14976.0,-6912.0,-64.0
2.42,-14912.0,-6912.0,-64.0
2.4225,-14976.0,-6848.0,0.0
2.425,-14976.0,-6848.0,0.0
2.4275,-14976.0,-6848.0,0.0
2.43,-14912.0,-6912.0,64.0
2.4325,-14912.0,-6848.0,64.0
2.435,-14912.0,-6784.0,0.0
2.4375,-14912.0,-6784.0,0.0
2.44,-14976.0,-6848.0,0.0
2.4425,-14976.0,-6784.0,64.0
2.445,-14976.0,-6784.0,64.0
2.4475,-14912.0,-6848.0,64.0
2.45,-14912.0,-6848.0,64.0
2.4525,-14912.0,-6848.0,64.0
2.455,-14848.0,-6784.0,64.0
2.4575,-14912.0,-6848.0,64.0
2.46,-14912.0,-6784.0,128.0
2.4625,-14848.0,-6784.0,64.0
2.465,-14912.0,-6848.0,0.0
2.4675,-14912.0,-6784.0,64.0
2.47,-14848.0,-6784.0,64.0
2.4725,-14848.0,-6784.0,64.0
2.475,-14848.0,-6784.0,64.0
2.4775,-14848.0,-6784.0,64.0
2.48,-14912.0,-6848.0,64.0
2.4825,-14912.0,-6784.0,64.0
2.485,-14912.0,-6848.0,64.0
2.4875,-14912.0,-6848.0,128.0
2.49,-14912.0,-6848.0,128.0
2.4925,-14912.0,-6848.0,64.0
2.495,-14848.0,-6784.0,128.0
2.4975,-14912.0,-6848.0,64.0
2.5,-14912.0,-6848.0,64.0
2.5025,-14976.0,-6848.0,64.0
2.505,-14976.0,-6784.0,0.0
2.5075,-14976.0,-6784.0,0.0
2.51,-14976.0,-6784.0,64.0
2.5125,-14976.0,-6784.0,64.0
2.515,-14976.0,-6848.0,0.0
2.5175,-14976.0,-6848.0,64.0
2.52,-14912.0,-6848.0,64.0
2.5225,-14912.0,-6784.0,0.0
2.525,-14976.0,-6848.0,0.0
2.5275,-14912.0,-6784.0,0.0
2.53,-14976.0,-6784.0,64.0
2.5325,-14976.0,-6912.0,-64.0
2.535,-15040.0,-6912.0,-64.0
2.5375,-15040.0,-6912.0,-64.0
2.54,-15040.0,-6912.0,-64.0
2.5425,-15104.0,-6912.0,-64.0
2.545,-15104.0,-6912.0,-128.0
2.5475,-15104.0,-6912.0,-128.0
2.55,-15104.0,-6912.0,0.0
2.5525,-15104.0,-6912.0,-64.0
2.555,-15104.0,-6912.0,-64.0
2.5575,-15040.0,-6912.0,0.0
2.56,-14976.0,-6976.0,0.0
2.5625,-14976.0,-6976.0,64.0
2.565,-14976.0,-6976.0,128.0
2.5675,-14912.0,-6912.0,128.0
2.57,-14912.0,-6912.0,64.0
2.5725,-14848.0,-6912.0,128.0
2.575,-14848.0,-6912.0,128.0
2.5775,-14848.0,-6912.0,128.0
2.58,-14784.0,-6912.0,128.0
2.5825,-14848.0,-6912.0,64.0
2.585,-14848.0,-6848.0,64.0
2.5875,-14848.0,-6912.0,0.0
2.59,-14912.0,-6912.0,0.0
2.5925,-14848.0,-6848.0,0.0
2.595,-14848.0,-6848.0,-64.0
2.5975,-14912.0,-6848.0,-128.0
2.6,-14912.0,-6912.0,-64.0
2.6025,-14912.0,-6912.0,-64.0
2.605,-14912.0,-6912.0,-64.0
2.6075,-14912.0,-6912.0,-64.0
2.61,-14848.0,-6976.0,-64.0
2.6125,-14912.0,-6976.0,0.0
2.615,-14912.0,-6976.0,-64.0
2.6175,-14912.0,-6912.0,-128.0
2.62,-14912.0,-6912.0,-64.0
2.6225,-14976.0,-6912.0,-64.0
2.625,-14912.0,-6976.0,0.0
2.6275,-14976.0,-7040.0,0.0
2.63,-14976.0,-7040.0,0.0
2.6325,-14912.0,-6976.0,0.0
2.635,-14848.0,-6976.0,0.0
2.6375,-14912.0,-7040.0,0.0
2.64,-14912.0,-6976.0,64.0
2.6425,-14912.0,-6976.0,0.0
2.645,-14976.0,-7040.0,-64.0
2.6475,-14912.0,-6976.0,-64.0
2.65,-14976.0,-7040.0,0.0
2.6525,-14912.0,-6976.0,-64.0
2.655,-14976.0,-7040.0,64.0
2.6575,-14976.0,-7040.0,64.0
2.66,-14976.0,-7040.0,0.0
2.6625,-14912.0,-6976.0,0.0
2.665,-14912.0,-6976.0,-64.0
2.6675,-14912.0,-6976.0,-64.0
2.67,-14912.0,-6976.0,-64.0
2.6725,-14912.0,-6976.0,0.0
2.675,-14912.0,-6912.0,0.0
2.6775,-14912.0,-6976.0,0.0
2.68,-14912.0,-6976.0,-64.0
2.6825,-14976.0,-6976.0,64.0
2.685,-14976.0,-6976.0,0.0
2.6875,-14912.0,-6976.0,-64.0
2.69,-14976.0,-6976.0,0.0
2.6925,-14976.0,-6976.0,-64.0
2.695,-14976.0,-6912.0,-64.0
2.6975,-14976.0,-6976.0,-128.0
2.7,-14976.0,-6976.0,-64.0
2.7025,-14976.0,-6976.0,-64.0
2.705,-14976.0,-6912.0,-128.0
2.7075,-15040.0,-6912.0,-64.0
2.71,-14976.0,-6912.0,-64.0
2.7125,-14976.0,-6912.0,0.0
2.715,-14976.0,-6976.0,-64.0
2.7175,-14912.0,-6912.0,-128.0
2.72,-14976.0,-6912.0,-64.0
2.7225,-14912.0,-6976.0,-128.0
2.725,-14912.0,-6976.0,-64.0
2.7275,-14976.0,-6976.0,-64.0
2.73,-14976.0,-6976.0,-128.0
2.7325,-14976.0,-6976.0,-64.0
2.735,-14976.0,-6976.0,-64.0
2.7375,-14976.0,-6976.0,-64.0
2.74,-14976.0,-6976.0,-64.0
2.7425,-14976.0,-6976.0,-64.0
2.745,-14976.0,-6912.0,-64.0
2.7475,-15040.0,-6976.0,-128.0
2.75,-14976.0,-6976.0,-128.0
2.7525,-14976.0,-7040.0,-128.0
2.755,-14976.0,-7040.0,-64.0
2.7575,-14976.0,-6912.0,-64.0
2.76,-14912.0,-6976.0,-64.0
2.7625,-14976.0,-6976.0,-64.0
2.765,-14912.0,-6976.0,-64.0
2.7675,-14912.0,-6912.0,0.0
2.77,-14912.0,-6976.0,-64.0
2.7725,-14912.0,-6912.0,-64.0
2.775,-14912.0,-6976.0,-128.0
2.7775,-14912.0,-6976.0,-128.0
2.78,-14912.0,-6912.0,-128.0
2.7825,-14912.0,-6912.0,-128.0
2.785,-14912.0,-6912.0,-64.0
2.7875,-14912.0,-6912.0,-128.0
2.79,-14976.0,-6976.0,-64.0
2.7925,-14976.0,-6976.0,-128.0
2.795,-14976.0,-6976.0,-128.0
2.7975,-15040.0,-6976.0,-128.0
2.8,-14976.0,-6912.0,-128.0
2.8025,-14912.0,-6912.0,-64.0
2.805,-14976.0,-6912.0,-128.0
2.8075,-15040.0,-6912.0,-128.0
2.81,-15040.0,-6912.0,0.0
2.8125,-15040.0,-6912.0,-64.0
2.815,-15040.0,-6912.0,-128.0
2.8175,-15040.0,-6912.0,-192.0
2.82,-15040.0,-6976.0,-128.0
2.8225,-14976.0,-6976.0,0.0
2.825,-14976.0,-6976.0,-128.0
2.8275,-15040.0,-6976.0,-64.0
2.83,-15040.0,-6976.0,-64.0
2.8325,-14976.0,-6912.0,-128.0
2.835,-14976.0,-6912.0,-64.0
2.8375,-14976.0,-6976.0,0.0
2.84,-14976.0,-6912.0,-64.0
2.8425,-14912.0,-6912.0,-64.0
2.845,-14912.0,-6912.0,-128.0
2.8475,-14912.0,-6848.0,0.0
2.85,-14912.0,-6848.0,-64.0
2.8525,-14976.0,-6848.0,0.0
2.855,-14848.0,-6848.0,64.0
2.8575,-14912.0,-6848.0,0.0
2.86,-14912.0,-6912.0,0.0
2.8625,-14912.0,-6912.0,0.0
2.865,-14912.0,-6912.0,-64.0
2.8675,-14912.0,-6912.0,-128.0
2.87,-14976.0,-6848.0,-64.0
2.8725,-14912.0,-6848.0,-64.0
2.875,-14976.0,-6848.0,0.0
2.8775,-14976.0,-6848.0,0.0
2.88,-14976.0,-6784.0,64.0
2.8825,-14976.0,-6784.0,128.0
2.885,-14912.0,-6720.0,64.0
2.8875,-14912.0,-6784.0,64.0
2.89,-14976.0,-6784.0,64.0
2.8925,-14976.0,-6848.0,0.0
2.895,-14912.0,-6912.0,64.0
2.8975,-14848.0,-6912.0,0.0
2.9,-14912.0,-6848.0,-64.0
2.9025,-14912.0,-6912.0,0.0
2.905,-14848.0,-6848.0,-64.0
2.9075,-14912.0,-6784.0,0.0
2.91,-14976.0,-6784.0,-64.0
2.9125,-14976.0,-6848.0,-64.0
2.915,-14976.0,-6848.0,-64.0
2.9175,-15040.0,-6912.0,-64.0
2.92,-14976.0,-6848.0,-128.0
2.9225,-14976.0,-6784.0,-64.0
2.925,-14976.0,-6848.0,0.0
2.9275,-14976.0,-6848.0,0.0
2.93,-15040.0,-6848.0,0.0
2.9325,-15040.0,-6784.0,0.0
2.935,-15040.0,-6784.0,64.0
2.9375,-14976.0,-6784.0,-64.0
2.94,-15040.0,-6784.0,0.0
2.9425,-15040.0,-6784.0,0.0
2.945,-15104.0,-6784.0,-64.0
2.9475,-15040.0,-6784.0,0.0
2.95,-15040.0,-6848.0,0.0
2.9525,-14976.0,-6784.0,0.0
2.955,-15040.0,-6848.0,0.0
2.9575,-15040.0,-6784.0,0.0
2.96,-15040.0,-6848.0,0.0
2.9625,-15040.0,-6848.0,0.0
2.965,-15040.0,-6848.0,0.0
2.9675,-15040.0,-6912.0,0.0
2.97,-15040.0,-6784.0,0.0
2.9725,-14976.0,-6784.0,0.0
2.975,-14976.0,-6848.0,0.0
2.9775,-15040.0,-6848.0,64.0
2.98,-14976.0,-6784.0,64.0
2.9825,-15040.0,-6784.0,128.0
2.985,-14976.0,-6784.0,128.0
2.9875,-14912.0,-6848.0,64.0
2.99,-14912.0,-6784.0,128.0
2.9925,-14912.0,-6784.0,128.0
2.995,-14912.0,-6784.0,128.0
2.9975,-14976.0,-6848.0,64.0
3.0,-14912.0,-6784.0,64.0
3.0025,-14912.0,-6848.0,64.0
3.005,-14912.0,-6784.0,0.0
3.0075,-14912.0,-6848.0,0.0
3.01,-14976.0,-6784.0,64.0
3.0125,-14976.0,-6848.0,64.0
3.015,-14912.0,-6848.0,64.0
3.0175,-14912.0,-6912.0,64.0
3.02,-14976.0,-6912.0,64.0
3.0225,-14976.0,-6912.0,64.0
3.025,-14912.0,-6848.0,0.0
3.0275,-14912.0,-6848.0,0.0
3.03,-14912.0,-6976.0,0.0
3.0325,-14912.0,-6912.0,64.0
3.035,-14976.0,-6912.0,64.0
3.0375,-14912.0,-6912.0,128.0
3.04,-14848.0,-6848.0,64.0
3.0425,-14848.0,-6848.0,64.0
3.045,-14912.0,-6912.0,64.0
3.0475,-14912.0,-6912.0,64.0
3.05,-14912.0,-6912.0,64.0
3.0525,-14912.0,-6848.0,64.0
3.055,-14912.0,-6912.0,128.0
3.0575,-14912.0,-6912.0,128.0
3.06,-14912.0,-6912.0,64.0
3.0625,-14912.0,-6912.0,64.0
3.065,-14912.0,-6848.0,64.0
3.0675,-14912.0,-6848.0,64.0
3.07,-14848.0,-6848.0,64.0
3.0725,-14848.0,-6912.0,64.0
3.075,-14848.0,-6912.0,64.0
3.0775,-14912.0,-6848.0,64.0
3.08,-14912.0,-6912.0,64.0
3.0825,-14912.0,-6848.0,64.0
3.085,-14976.0,-6848.0,128.0
3.0875,-14976.0,-6912.0,128.0
3.09,-14976.0,-6912.0,64.0
3.0925,-14976.0,-6848.0,64.0
3.095,-14976.0,-6912.0,64.0
3.0975,-14912.0,-6848.0,64.0
3.1,-14912.0,-6848.0,64.0
3.1025,-14848.0,-6912.0,64.0
3.105,-14848.0,-6912.0,0.0
3.1075,-14848.0,-6912.0,64.0
3.11,-14848.0,-6976.0,128.0
3.1125,-14848.0,-6976.0,64.0
3.115,-14912.0,-6976.0,64.0
3.1175,-14848.0,-6976.0,64.0
3.12,-14976.0,-7040.0,64.0
3.1225,-14976.0,-6976.0,64.0
3.125,-14976.0,-6912.0,0.0
3.1275,-14976.0,-6976.0,-64.0
3.13,-14976.0,-6976.0,0.0
3.1325,-14912.0,-6976.0,0.0
3.135,-14976.0,-6976.0,0.0
3.1375,-14912.0,-7040.0,64.0
3.14,-14912.0,-6976.0,64.0
3.1425,-14912.0,-6976.0,128.0
3.145,-14912.0,-6976.0,64.0
3.1475,-14848.0,-7040.0,128.0
3.15,-14912.0,-7040.0,128.0
3.1525,-14912.0,-6976.0,64.0
3.155,-14848.0,-6976.0,0.0
3.1575,-14848.0,-7040.0,64.0
3.16,-14912.0,-7040.0,128.0
3.1625,-14976.0,-6976.0,128.0
3.165,-14912.0,-6976.0,128.0
3.1675,-14848.0,-7040.0,128.0
3.17,-14848.0,-6976.0,64.0
3.1725,-14848.0,-6976.0,64.0
3.175,-14848.0,-6976.0,64.0
3.1775,-14848.0,-6976.0,0.0
3.18,-14848.0,-6976.0,-64.0
3.1825,-14848.0,-7040.0,-128.0
3.185,-14848.0,-7040.0,-128.0
3.1875,-14912.0,-6976.0,-128.0
3.19,-14912.0,-7040.0,-64.0
3.1925,-14976.0,-7040.0,-64.0
3.195,-15040.0,-7040.0,-64.0
3.1975,-15040.0,-6976.0,-64.0
3.2,-15040.0,-6976.0,0.0
3.2025,-15104.0,-7040.0,64.0
3.205,-15040.0,-6976.0,-64.0
3.2075,-15040.0,-7040.0,0.0
3.21,-15040.0,-7040.0,0.0
3.2125,-15040.0,-7040.0,0.0
3.215,-15040.0,-7040.0,0.0
3.2175,-14976.0,-7040.0,0.0
3.22,-14976.0,-7040.0,64.0
3.2225,-14976.0,-7104.0,0.0
3.225,-14912.0,-7040.0,0.0
3.2275,-14912.0,-7040.0,64.0
3.23,-14912.0,-7040.0,64.0
3.2325,-14912.0,-6976.0,64.0
3.235,-14848.0,-7040.0,0.0
3.2375,-14848.0,-7040.0,0.0
3.24,-14848.0,-6976.0,0.0
3.2425,-14848.0,-6976.0,0.0
3.245,-14848.0,-6976.0,64.0
3.2475,-14848.0,-6976.0,64.0
3.25,-14848.0,-6976.0,0.0
3.2525,-14848.0,-7040.0,-64.0
3.255,-14848.0,-6976.0,64.0
3.2575,-14912.0,-6976.0,64.0
3.26,-14912.0,-6976.0,0.0
3.2625,-14976.0,-6976.0,64.0
3.265,-14912.0,-6976.0,64.0
3.2675,-14976.0,-6976.0,64.0
3.27,-14976.0,-6976.0,64.0
3.2725,-14976.0,-6976.0,0.0
3.275,-14976.0,-6912.0,0.0
3.2775,-14976.0,-6912.0,64.0
3.28,-15040.0,-6912.0,0.0
3.2825,-15040.0,-6912.0,0.0
3.285,-15040.0,-6912.0,0.0
3.2875,-15040.0,-6976.0,64.0
3.29,-15040.0,-6976.0,0.0
3.2925,-14976.0,-6976.0,0.0
3.295,-15040.0,-6976.0,0.0
3.2975,-15040.0,-6912.0,0.0
3.3,-15040.0,-6912.0,64.0
3.3025,-15040.0,-6976.0,64.0
3.305,-15104.0,-6976.0,128.0
3.3075,-15040.0,-6976.0,0.0
3.31,-15040.0,-6912.0,64.0
3.3125,-15040.0,-6912.0,0.0
3.315,-15104.0,-6912.0,64.0
3.3175,-15040.0,-6848.0,0.0
3.32,-15040.0,-6848.0,0.0
3.3225,-15040.0,-6912.0,0.0
3.325,-15104.0,-6912.0,0.0
3.3275,-15168.0,-6912.0,64.0
3.33,-15168.0,-6912.0,64.0
3.3325,-15168.0,-6848.0,128.0
3.335,-15168.0,-6848.0,64.0
3.3375,-15168.0,-6784.0,64.0
3.34,-15168.0,-6784.0,64.0
3.3425,-15168.0,-6784.0,128.0
3.345,-15232.0,-6784.0,64.0
3.3475,-15232.0,-6848.0,64.0
3.35,-15232.0,-6848.0,64.0
3.3525,-15232.0,-6848.0,64.0
3.355,-15232.0,-6848.0,64.0
3.3575,-15232.0,-6848.0,64.0
3.36,-15168.0,-6912.0,64.0
3.3625,-15168.0,-6912.0,64.0
3.365,-15168.0,-6912.0,128.0
3.3675,-15104.0,-6912.0,64.0
3.37,-15104.0,-6912.0,128.0
3.3725,-15168.0,-6912.0,64.0
3.375,-15168.0,-6912.0,128.0
3.3775,-15040.0,-6848.0,64.0
3.38,-15104.0,-6848.0,0.0
3.3825,-15104.0,-6784.0,0.0
3.385,-15104.0,-6784.0,64.0
3.3875,-15104.0,-6784.0,64.0
3.39,-15040.0,-6784.0,64.0
3.3925,-15040.0,-6720.0,0.0
3.395,-15040.0,-6784.0,64.0
3.3975,-15040.0,-6784.0,0.0
3.4,-15040.0,-6784.0,64.0
3.4025,-14976.0,-6784.0,64.0
3.405,-14976.0,-6784.0,0.0
3.4075,-14976.0,-6784.0,64.0
3.41,-14912.0,-6784.0,64.0
3.4125,-14912.0,-6848.0,64.0
3.415,-14976.0,-6720.0,64.0
3.4175,-14912.0,-6720.0,64.0
3.42,-14912.0,-6784.0,64.0
3.4225,-14912.0,-6784.0,128.0
3.425,-14912.0,-6720.0,128.0
3.4275,-14912.0,-6784.0,64.0
3.43,-14848.0,-6784.0,128.0
3.4325,-14848.0,-6720.0,192.0
3.435,-14784.0,-6784.0,128.0
3.4375,-14784.0,-6784.0,128.0
3.44,-14784.0,-6784.0,192.0
3.4425,-14784.0,-6784.0,128.0
3.445,-14784.0,-6784.0,128.0
3.4475,-14848.0,-6784.0,192.0
3.45,-14784.0,-6784.0,192.0
3.4525,-14848.0,-6784.0,192.0
3.455,-14912.0,-6848.0,192.0
3.4575,-14912.0,-6848.0,192.0
3.46,-14976.0,-6912.0,192.0
3.4625,-14976.0,-6976.0,192.0
3.465,-14976.0,-6912.0,192.0
3.4675,-14976.0,-6848.0,192.0
3.47,-14976.0,-6912.0,192.0
3.4725,-14976.0,-6848.0,256.0
3.475,-15040.0,-6912.0,192.0
3.4775,-15104.0,-6912.0,256.0
3.48,-15040.0,-6976.0,256.0
3.4825,-14976.0,-6976.0,320.0
3.485,-14976.0,-6912.0,384.0
3.4875,-14976.0,-6912.0,320.0
3.49,-14912.0,-6976.0,320.0
3.4925,-14912.0,-6976.0,384.0
3.495,-14912.0,-6976.0,384.0
3.4975,-14912.0,-6912.0,384.0
3.5,-14848.0,-6976.0,384.0
3.5025,-14848.0,-6976.0,384.0
3.505,-14848.0,-6976.0,320.0
3.5075,-14912.0,-6976.0,384.0
3.51,-14848.0,-6976.0,384.0
3.5125,-14912.0,-7040.0,448.0
3.515,-14912.0,-7104.0,448.0
3.5175,-14784.0,-7104.0,448.0
3.52,-14784.0,-7040.0,448.0
3.5225,-14720.0,-7040.0,448.0
3.525,-14656.0,-7040.0,576.0
3.5275,-14592.0,-7040.0,576.0
3.53,-14592.0,-7040.0,576.0
3.5325,-14528.0,-6976.0,576.0
3.535,-14528.0,-7040.0,512.0
3.5375,-14464.0,-7040.0,512.0
3.54,-14464.0,-6976.0,512.0
3.5425,-14400.0,-7040.0,576.0
3.545,-14400.0,-7040.0,640.0
3.5475,-14400.0,-7104.0,576.0
3.55,-14336.0,-7040.0,640.0
3.5525,-14336.0,-7104.0,640.0
3.555,-14336.0,-7104.0,640.0
3.5575,-14336.0,-7168.0,640.0
3.56,-14336.0,-7104.0,640.0
3.5625,-14272.0,-7104.0,576.0
3.565,-14272.0,-7168.0,576.0
3.5675,-14272.0,-7168.0,704.0
3.57,-14272.0,-7232.0,640.0
3.5725,-14336.0,-7232.0,640.0
3.575,-14336.0,-7232.0,704.0
3.5775,-14336.0,-7168.0,768.0
3.58,-14336.0,-7232.0,576.0
3.5825,-14336.0,-7168.0,640.0
3.585,-14336.0,-7104.0,640.0
3.5875,-14336.0,-7168.0,640.0
3.59,-14336.0,-7168.0,640.0
3.5925,-14336.0,-7168.0,640.0
3.595,-14336.0,-7104.0,704.0
3.5975,-14272.0,-7168.0,640.0
3.6,-14272.0,-7168.0,704.0
3.6025,-14272.0,-7104.0,704.0
3.605,-14272.0,-7168.0,704.0
3.6075,-14208.0,-7168.0,640.0
3.61,-14272.0,-7168.0,640.0
3.6125,-14336.0,-7232.0,576.0
3.615,-14336.0,-7296.0,640.0
3.6175,-14400.0,-7232.0,576.0
3.62,-14464.0,-7296.0,576.0
3.6225,-14464.0,-7296.0,640.0
3.625,-14528.0,-7360.0,640.0
3.6275,-14592.0,-7360.0,640.0
3.63,-14720.0,-7360.0,640.0
3.6325,-14848.0,-7360.0,640.0
3.635,-14912.0,-7360.0,640.0
3.6375,-14976.0,-7424.0,576.0
3.64,-15104.0,-7360.0,576.0
3.6425,-15168.0,-7424.0,576.0
3.645,-15232.0,-7488.0,576.0
3.6475,-15232.0,-7488.0,576.0
3.65,-15296.0,-7488.0,512.0
3.6525,-15424.0,-7488.0,576.0
3.655,-15488.0,-7552.0,576.0
3.6575,-15552.0,-7552.0,512.0
3.66,-15552.0,-7616.0,512.0
3.6625,-15552.0,-7616.0,512.0
3.665,-15552.0,-7680.0,512.0
3.6675,-15552.0,-7616.0,512.0
3.67,-15488.0,-7616.0,576.0
3.6725,-15552.0,-7616.0,576.0
3.675,-15616.0,-7616.0,640.0
3.6775,-15552.0,-7680.0,640.0
3.68,-15552.0,-7680.0,640.0
3.6825,-15552.0,-7680.0,704.0
3.685,-15424.0,-7616.0,576.0
3.6875,-15360.0,-7616.0,640.0
3.69,-15360.0,-7680.0,704.0
3.6925,-15296.0,-7680.0,704.0
3.695,-15168.0,-7680.0,704.0
3.6975,-15104.0,-7616.0,704.0
3.7,-14976.0,-7616.0,768.0
3.7025,-14912.0,-7552.0,704.0
3.705,-14784.0,-7552.0,640.0
3.7075,-14784.0,-7488.0,640.0
3.71,-14656.0,-7488.0,640.0
3.7125,-14592.0,-7488.0,704.0
3.715,-14464.0,-7424.0,704.0
3.7175,-14400.0,-7424.0,704.0
3.72,-14272.0,-7296.0,704.0
3.7225,-14208.0,-7232.0,768.0
3.725,-14144.0,-7232.0,704.0
3.7275,-14016.0,-7232.0,768.0
3.73,-13888.0,-7232.0,768.0
3.7325,-13824.0,-7232.0,640.0
3.735,-13760.0,-7296.0,640.0
3.7375,-13632.0,-7232.0,576.0
3.74,-13568.0,-7168.0,576.0
3.7425,-13504.0,-7168.0,576.0
3.745,-13440.0,-7168.0,640.0
3.7475,-13312.0,-7104.0,640.0
3.75,-13248.0,-7104.0,640.0
3.7525,-13120.0,-7040.0,576.0
3.755,-12992.0,-7040.0,640.0
3.7575,-12992.0,-7040.0,576.0
3.76,-12800.0,-6976.0,576.0
3.7625,-12800.0,-6912.0,640.0
3.765,-12800.0,-6912.0,640.0
3.7675,-12736.0,-6976.0,576.0
3.77,-12672.0,-6912.0,512.0
3.7725,-12672.0,-6912.0,576.0
3.775,-12608.0,-6912.0,512.0
3.7775,-12608.0,-6912.0,448.0
3.78,-12608.0,-6976.0,384.0
3.7825,-12608.0,-6976.0,384.0
3.785,-12608.0,-6976.0,384.0
3.7875,-12672.0,-7040.0,320.0
3.79,-12672.0,-6976.0,256.0
3.7925,-12800.0,-7040.0,256.0
3.795,-12864.0,-7040.0,256.0
3.7975,-12928.0,-7040.0,192.0
3.8,-12992.0,-7104.0,192.0
3.8025,-13120.0,-7040.0,192.0
3.805,-13248.0,-7104.0,128.0
3.8075,-13376.0,-7168.0,192.0
3.81,-13568.0,-7232.0,128.0
3.8125,-13760.0,-7296.0,128.0
3.815,-13952.0,-7296.0,64.0
3.8175,-14144.0,-7360.0,64.0
3.82,-14400.0,-7488.0,64.0
3.8225,-14592.0,-7552.0,64.0
3.825,-14912.0,-7616.0,64.0
3.8275,-15232.0,-7680.0,0.0
3.83,-15424.0,-7808.0,0.0
3.8325,-15680.0,-7872.0,0.0
3.835,-15936.0,-7936.0,-64.0
3.8375,-16192.0,-8064.0,-128.0
3.84,-16576.0,-8256.0,-192.0
3.8425,-16768.0,-8256.0,-64.0
3.845,-17024.0,-8256.0,-128.0
3.8475,-17216.0,-8384.0,-128.0
3.85,-17408.0,-8448.0,-128.0
3.8525,-17536.0,-8448.0,-64.0
3.855,-17536.0,-8448.0,-64.0
3.8575,-17600.0,-8448.0,-128.0
3.86,-17536.0,-8384.0,-64.0
3.8625,-17536.0,-8448.0,-64.0
3.865,-17472.0,-8448.0,-64.0
3.8675,-17472.0,-8448.0,-64.0
3.87,-17344.0,-8512.0,0.0
3.8725,-17280.0,-8448.0,64.0
3.875,-17152.0,-8448.0,0.0
3.8775,-16960.0,-8384.0,-64.0
3.88,-16832.0,-8256.0,0.0
3.8825,-16640.0,-8256.0,0.0
3.885,-16448.0,-8192.0,64.0
3.8875,-16256.0,-8128.0,0.0
3.89,-16128.0,-8064.0,0.0
3.8925,-15936.0,-8000.0,64.0
3.895,-15744.0,-8000.0,0.0
3.8975,-15552.0,-8000.0,-64.0
3.9,-15424.0,-8000.0,-64.0
3.9025,-15232.0,-7936.0,0.0
3.905,-15104.0,-7936.0,-64.0
3.9075,-14976.0,-7936.0,-64.0
3.91,-14912.0,-7808.0,-64.0
3.9125,-14848.0,-7744.0,-64.0
3.915,-14784.0,-7680.0,-64.0
3.9175,-14784.0,-7680.0,-128.0
3.92,-14656.0,-7616.0,-128.0
3.9225,-14720.0,-7552.0,-64.0
3.925,-14656.0,-7488.0,0.0
3.9275,-14656.0,-7488.0,0.0
3.93,-14592.0,-7488.0,0.0
3.9325,-14656.0,-7488.0,0.0
3.935,-14656.0,-7488.0,-64.0
3.9375,-14656.0,-7552.0,-128.0
3.94,-14656.0,-7488.0,-192.0
3.9425,-14656.0,-7488.0,-128.0
3.945,-14592.0,-7488.0,-128.0
3.9475,-14656.0,-7488.0,-128.0
3.95,-14656.0,-7552.0,-128.0
3.9525,-14656.0,-7488.0,-128.0
3.955,-14720.0,-7424.0,-64.0
3.9575,-14720.0,-7424.0,-64.0
3.96,-14720.0,-7360.0,0.0
3.9625,-14912.0,-7424.0,0.0
3.965,-14912.0,-7424.0,64.0
3.9675,-14912.0,-7424.0,64.0
3.97,-14976.0,-7360.0,64.0
3.9725,-15040.0,-7424.0,64.0
3.975,-15104.0,-7424.0,128.0
3.9775,-15168.0,-7424.0,128.0
3.98,-15168.0,-7488.0,64.0
3.9825,-15232.0,-7424.0,128.0
3.985,-15296.0,-7488.0,128.0
3.9875,-15296.0,-7616.0,64.0
3.99,-15232.0,-7616.0,64.0
3.9925,-15296.0,-7552.0,64.0
3.995,-15232.0,-7616.0,128.0
3.9975,-15232.0,-7616.0,128.0
4.0,-15232.0,-7616.0,64.0
4.0025,-15296.0,-7552.0,64.0
4.005,-15232.0,-7552.0,0.0
4.0075,-15168.0,-7616.0,0.0
4.01,-15104.0,-7552.0,0.0
4.0125,-15104.0,-7488.0,64.0
4.015,-15040.0,-7424.0,0.0
4.0175,-15040.0,-7424.0,0.0
4.02,-15040.0,-7360.0,64.0
4.0225,-14912.0,-7296.0,64.0
4.025,-14848.0,-7296.0,64.0
4.0275,-14784.0,-7296.0,0.0
4.03,-14720.0,-7296.0,0.0
4.0325,-14656.0,-7296.0,0.0
4.035,-14592.0,-7232.0,0.0
4.0375,-14592.0,-7232.0,-64.0
4.04,-14464.0,-7168.0,-128.0
4.0425,-14400.0,-7104.0,-64.0
4.045,-14336.0,-7104.0,-64.0
4.0475,-14272.0,-7040.0,-64.0
4.05,-14272.0,-6976.0,-128.0
4.0525,-14208.0,-6976.0,-192.0
4.055,-14208.0,-6912.0,-256.0
4.0575,-14144.0,-6976.0,-256.0
4.06,-14144.0,-6976.0,-256.0
4.0625,-14016.0,-6976.0,-320.0
4.065,-13952.0,-6912.0,-320.0
4.0675,-13888.0,-6848.0,-320.0
4.07,-13888.0,-6848.0,-320.0
4.0725,-13888.0,-6848.0,-320.0
4.075,-13824.0,-6784.0,-320.0
4.0775,-13824.0,-6784.0,-320.0
4.08,-13824.0,-6720.0,-384.0
4.0825,-13760.0,-6656.0,-384.0
4.085,-13760.0,-6656.0,-448.0
4.0875,-13824.0,-6656.0,-448.0
4.09,-13824.0,-6592.0,-448.0
4.0925,-13824.0,-6656.0,-448.0
4.095,-13888.0,-6656.0,-512.0
4.0975,-13888.0,-6656.0,-512.0
4.1,-13952.0,-6656.0,-512.0
4.1025,-14016.0,-6656.0,-512.0
4.105,-14016.0,-6720.0,-512.0
4.1075,-14080.0,-6720.0,-576.0
4.11,-14080.0,-6720.0,-576.0
4.1125,-14080.0,-6720.0,-640.0
4.115,-14208.0,-6720.0,-576.0
4.1175,-14272.0,-6720.0,-576.0
4.12,-14272.0,-6720.0,-576.0
4.1225,-14336.0,-6784.0,-640.0
4.125,-14336.0,-6784.0,-640.0
4.1275,-14400.0,-6784.0,-640.0
4.13,-14400.0,-6848.0,-640.0
4.1325,-14400.0,-6848.0,-640.0
4.135,-14400.0,-6848.0,-704.0
4.1375,-14464.0,-6848.0,-640.0
4.14,-14528.0,-6848.0,-704.0
4.1425,-14528.0,-6848.0,-640.0
4.145,-14656.0,-6848.0,-640.0
4.1475,-14400.0,-6848.0,-640.0
4.15,-14656.0,-6848.0,-704.0
4.1525,-14720.0,-6848.0,-640.0
4.155,-14720.0,-6912.0,-640.0
4.1575,-14720.0,-6912.0,-704.0
4.16,-14784.0,-6848.0,-704.0
4.1625,-14784.0,-6976.0,-768.0
4.165,-14848.0,-6912.0,-704.0
4.1675,-14912.0,-6912.0,-704.0
4.17,-14912.0,-6912.0,-704.0
4.1725,-14912.0,-6976.0,-704.0
4.175,-14912.0,-6976.0,-768.0
4.1775,-14976.0,-6976.0,-704.0
4.18,-15040.0,-6976.0,-768.0
4.1825,-15104.0,-7040.0,-768.0
4.185,-15040.0,-7104.0,-768.0
4.1875,-15104.0,-7104.0,-640.0
4.19,-15168.0,-7104.0,-640.0
4.1925,-15168.0,-7104.0,-768.0
4.195,-15232.0,-7104.0,-768.0
4.1975,-15296.0,-7104.0,-768.0
4.2,-15296.0,-7168.0,-768.0
4.2025,-15296.0,-7168.0,-768.0
4.205,-15232.0,-7168.0,-768.0
4.2075,-15168.0,-7104.0,-768.0
4.21,-15168.0,-7104.0,-832.0
4.2125,-15104.0,-7104.0,-704.0
4.215,-15104.0,-7104.0,-640.0
4.2175,-15104.0,-7104.0,-640.0
4.22,-15104.0,-7104.0,-768.0
4.2225,-15104.0,-7104.0,-768.0
4.225,-15040.0,-7168.0,-704.0
4.2275,-15040.0,-7168.0,-704.0
4.23,-15040.0,-7168.0,-704.0
4.2325,-14912.0,-7104.0,-704.0
4.235,-14848.0,-7168.0,-704.0
4.2375,-14784.0,-7104.0,-768.0
4.24,-14656.0,-7040.0,-768.0
4.2425,-14592.0,-7104.0,-704.0
4.245,-14592.0,-7104.0,-704.0
4.2475,-14528.0,-7104.0,-704.0
4.25,-14464.0,-7040.0,-704.0
4.2525,-14336.0,-7104.0,-704.0
4.255,-14272.0,-7040.0,-768.0
4.2575,-14272.0,-7040.0,-704.0
4.26,-14272.0,-6976.0,-704.0
4.2625,-14272.0,-7040.0,-576.0
4.265,-14272.0,-6976.0,-640.0
4.2675,-14208.0,-6976.0,-704.0
4.27,-14208.0,-6912.0,-640.0
4.2725,-14208.0,-6912.0,-640.0
4.275,-14144.0,-6912.0,-640.0
4.2775,-14080.0,-6976.0,-704.0
4.28,-14144.0,-6976.0,-640.0
4.2825,-14144.0,-6912.0,-704.0
4.285,-14144.0,-6976.0,-768.0
4.2875,-14208.0,-6912.0,-768.0
4.29,-14272.0,-6912.0,-704.0
4.2925,-14208.0,-6912.0,-704.0
4.295,-14208.0,-6912.0,-640.0
4.2975,-14208.0,-7040.0,-768.0
4.3,-14272.0,-6976.0,-768.0
4.3025,-14336.0,-6976.0,-704.0
4.305,-14272.0,-6976.0,-704.0
4.3075,-14336.0,-6912.0,-640.0
4.31,-14336.0,-6912.0,-640.0
4.3125,-14336.0,-6976.0,-704.0
4.315,-14336.0,-6976.0,-704.0
4.3175,-14272.0,-6976.0,-640.0
4.32,-14336.0,-6976.0,-640.0
4.3225,-14336.0,-6976.0,-640.0
4.325,-14272.0,-6912.0,-640.0
4.3275,-14272.0,-6912.0,-576.0
4.33,-14272.0,-6912.0,-576.0
4.3325,-14272.0,-6912.0,-576.0
4.335,-14336.0,-6912.0,-512.0
4.3375,-14336.0,-6912.0,-512.0
4.34,-14336.0,-6912.0,-576.0
4.3425,-14336.0,-6912.0,-576.0
4.345,-14400.0,-6912.0,-512.0
4.3475,-14336.0,-6912.0,-576.0
4.35,-14400.0,-6912.0,-640.0
4.3525,-14336.0,-6848.0,-640.0
4.355,-14400.0,-6912.0,-640.0
4.3575,-14400.0,-6912.0,-704.0
4.36,-14400.0,-6848.0,-640.0
4.3625,-14400.0,-6912.0,-704.0
4.365,-14400.0,-6976.0,-704.0
4.3675,-14464.0,-6976.0,-640.0
4.37,-14528.0,-6912.0,-640.0
4.3725,-14592.0,-6912.0,-576.0
4.375,-14592.0,-6976.0,-640.0
4.3775,-14592.0,-6976.0,-640.0
4.38,-14592.0,-6976.0,-640.0
4.3825,-14656.0,-6976.0,-640.0
4.385,-14592.0,-7040.0,-704.0
4.3875,-14656.0,-7104.0,-704.0
4.39,-14720.0,-7104.0,-704.0
4.3925,-14784.0,-7168.0,-704.0
4.395,-14720.0,-7168.0,-768.0
4.3975,-14848.0,-7232.0,-768.0
4.4,-14912.0,-7296.0,-640.0
4.4025,-14912.0,-7232.0,-768.0
4.405,-14912.0,-7168.0,-704.0
4.4075,-14912.0,-7232.0,-704.0
4.41,-14912.0,-7296.0,-704.0
4.4125,-14912.0,-7296.0,-768.0
4.415,-14912.0,-7296.0,-768.0
4.4175,-14912.0,-7296.0,-768.0
4.42,-14976.0,-7360.0,-704.0
4.4225,-15040.0,-7296.0,-704.0
4.425,-14976.0,-7360.0,-704.0
4.4275,-14912.0,-7296.0,-704.0
4.43,-14976.0,-7296.0,-768.0
4.4325,-14976.0,-7296.0,-768.0
4.435,-14976.0,-7360.0,-768.0
4.4375,-14976.0,-7360.0,-768.0
4.44,-14912.0,-7360.0,-768.0
4.4425,-14912.0,-7360.0,-768.0
4.445,-14976.0,-7360.0,-768.0
4.4475,-14976.0,-7296.0,-768.0
4.45,-15040.0,-7296.0,-768.0
4.4525,-15040.0,-7296.0,-768.0
4.455,-15040.0,-7296.0,-640.0
4.4575,-15104.0,-7296.0,-640.0
4.46,-15168.0,-7360.0,-640.0
4.4625,-15168.0,-7360.0,-576.0
4.465,-15168.0,-7360.0,-576.0
4.4675,-15168.0,-7296.0,-512.0
4.47,-15168.0,-7296.0,-576.0
4.4725,-15168.0,-7360.0,-576.0
4.475,-15232.0,-7360.0,-576.0
4.4775,-15168.0,-7296.0,-576.0
4.48,-15232.0,-7296.0,-640.0
4.4825,-15232.0,-7296.0,-704.0
4.485,-15296.0,-7360.0,-704.0
4.4875,-15232.0,-7296.0,-704.0
4.49,-15232.0,-7360.0,-704.0
4.4925,-15296.0,-7296.0,-704.0
4.495,-15296.0,-7296.0,-768.0
4.4975,-15360.0,-7296.0,-768.0
4.5,-15424.0,-7360.0,-768.0
4.5025,-15488.0,-7360.0,-768.0
4.505,-15488.0,-7360.0,-768.0
4.5075,-15552.0,-7360.0,-832.0
4.51,-15552.0,-7424.0,-832.0
4.5125,-15616.0,-7360.0,-832.0
4.515,-15680.0,-7360.0,-832.0
4.5175,-15680.0,-7424.0,-832.0
4.52,-15744.0,-7424.0,-704.0
4.5225,-15808.0,-7488.0,-640.0
4.525,-15744.0,-7488.0,-640.0
4.5275,-15808.0,-7488.0,-640.0
4.53,-15808.0,-7488.0,-768.0
4.5325,-15872.0,-7488.0,-704.0
4.535,-15808.0,-7424.0,-704.0
4.5375,-15872.0,-7424.0,-640.0
4.54,-15872.0,-7488.0,-640.0
4.5425,-15936.0,-7488.0,-640.0
4.545,-15936.0,-7488.0,-704.0
4.5475,-15936.0,-7552.0,-640.0
4.55,-16000.0,-7488.0,-704.0
4.5525,-16000.0,-7488.0,-704.0
4.555,-15936.0,-7488.0,-768.0
4.5575,-16000.0,-7488.0,-768.0
4.56,-16000.0,-7488.0,-640.0
4.5625,-16000.0,-7488.0,-640.0
4.565,-16000.0,-7552.0,-640.0
4.5675,-15936.0,-7488.0,-576.0
4.57,-16000.0,-7552.0,-576.0
4.5725,-16000.0,-7552.0,-512.0
4.575,-16000.0,-7488.0,-576.0
4.5775,-15936.0,-7488.0,-576.0
4.58,-15936.0,-7424.0,-576.0
4.5825,-15872.0,-7488.0,-448.0
4.585,-15872.0,-7424.0,-448.0
4.5875,-15872.0,-7488.0,-448.0
4.59,-15936.0,-7488.0,-384.0
4.5925,-15936.0,-7424.0,-320.0
4.595,-15936.0,-7424.0,-320.0
4.5975,-15936.0,-7424.0,-256.0
4.6,-15936.0,-7488.0,-256.0
4.6025,-15936.0,-7424.0,-192.0
4.605,-15936.0,-7424.0,-256.0
4.6075,-16000.0,-7424.0,-256.0
4.61,-16000.0,-7488.0,-192.0
4.6125,-16064.0,-7488.0,-128.0
4.615,-16064.0,-7488.0,-192.0
4.6175,-16064.0,-7488.0,-192.0
4.62,-16064.0,-7488.0,-128.0
4.6225,-16064.0,-7424.0,-128.0
4.625,-16128.0,-7424.0,-128.0
4.6275,-16128.0,-7488.0,-128.0
4.63,-16128.0,-7488.0,-256.0
4.6325,-16192.0,-7488.0,-192.0
4.635,-16192.0,-7552.0,-192.0
4.6375,-16192.0,-7488.0,-192.0
4.64,-16192.0,-7488.0,-192.0
4.6425,-16192.0,-7424.0,-128.0
4.645,-16256.0,-7424.0,-128.0
4.6475,-16256.0,-7424.0,-128.0
4.65,-16320.0,-7424.0,-192.0
4.6525,-16320.0,-7424.0,-64.0
4.655,-16320.0,-7424.0,-64.0
4.6575,-16320.0,-7424.0,-64.0
4.66,-16320.0,-7424.0,64.0
4.6625,-16448.0,-7488.0,0.0
4.665,-16448.0,-7424.0,128.0
4.6675,-16448.0,-7424.0,128.0
4.67,-16512.0,-7424.0,192.0
4.6725,-16512.0,-7424.0,192.0
4.675,-16576.0,-7424.0,192.0
4.6775,-16576.0,-7424.0,192.0
4.68,-16640.0,-7424.0,192.0
4.6825,-16640.0,-7424.0,128.0
4.685,-16768.0,-7488.0,192.0
4.6875,-16768.0,-7488.0,192.0
4.69,-16832.0,-7488.0,192.0
4.6925,-16896.0,-7552.0,192.0
4.695,-16896.0,-7552.0,192.0
4.6975,-17088.0,-7616.0,128.0
4.7,-17088.0,-7552.0,192.0
4.7025,-17216.0,-7552.0,192.0
4.705,-17280.0,-7488.0,192.0
4.7075,-17344.0,-7488.0,192.0
4.71,-17344.0,-7488.0,192.0
4.7125,-17408.0,-7552.0,192.0
4.715,-17472.0,-7616.0,192.0
4.7175,-17536.0,-7616.0,192.0
4.72,-17664.0,-7616.0,192.0
4.7225,-17728.0,-7552.0,192.0
4.725,-17728.0,-7552.0,256.0
4.7275,-17856.0,-7552.0,256.0
4.73,-17920.0,-7616.0,192.0
4.7325,-17920.0,-7552.0,256.0
4.735,-17984.0,-7552.0,256.0
4.7375,-18048.0,-7552.0,256.0
4.74,-18112.0,-7552.0,256.0
4.7425,-18176.0,-7552.0,256.0
4.745,-18176.0,-7616.0,384.0
4.7475,-18240.0,-7616.0,320.0
4.75,-18240.0,-7680.0,320.0
4.7525,-18304.0,-7680.0,384.0
4.755,-18368.0,-7616.0,384.0
4.7575,-18368.0,-7680.0,384.0
4.76,-18368.0,-7616.0,320.0
4.7625,-18496.0,-7616.0,384.0
4.765,-18560.0,-7616.0,384.0
4.7675,-18560.0,-7744.0,384.0
4.77,-18624.0,-7680.0,384.0
4.7725,-18624.0,-7680.0,320.0
4.775,-18624.0,-7744.0,384.0
4.7775,-18624.0,-7680.0,384.0
4.78,-18624.0,-7552.0,448.0
4.7825,-18624.0,-7616.0,448.0
4.785,-18624.0,-7680.0,512.0
4.7875,-18560.0,-7680.0,576.0
4.79,-18560.0,-7680.0,576.0
4.7925,-18496.0,-7616.0,640.0
4.795,-18432.0,-7552.0,704.0
4.7975,-18368.0,-7616.0,704.0
4.8,-18112.0,-7552.0,704.0
4.8025,-18048.0,-7488.0,832.0
4.805,-17984.0,-7488.0,832.0
4.8075,-17792.0,-7424.0,960.0
4.81,-17728.0,-7424.0,1024.0
4.8125,-17664.0,-7360.0,1024.0
4.815,-17536.0,-7360.0,1024.0
4.8175,-17408.0,-7232.0,1088.0
4.82,-17280.0,-7168.0,1152.0
4.8225,-17088.0,-7168.0,1088.0
4.825,-16960.0,-7104.0,1152.0
4.8275,-16768.0,-7040.0,1216.0
4.83,-16640.0,-6976.0,1280.0
4.8325,-16512.0,-6848.0,1344.0
4.835,-16320.0,-6784.0,1344.0
4.8375,-16192.0,-6720.0,1408.0
4.84,-16064.0,-6720.0,1408.0
4.8425,-15936.0,-6656.0,1344.0
4.845,-15744.0,-6528.0,1408.0
4.8475,-15552.0,-6464.0,1472.0
4.85,-15424.0,-6464.0,1472.0
4.8525,-15296.0,-6400.0,1472.0
4.855,-15104.0,-6336.0,1472.0
4.8575,-14976.0,-6336.0,1536.0
4.86,-14784.0,-6208.0,1536.0
4.8625,-14592.0,-6208.0,1600.0
4.865,-14464.0,-6080.0,1600.0
4.8675,-14272.0,-5952.0,1664.0
4.87,-14144.0,-5952.0,1664.0
4.8725,-13952.0,-5888.0,1664.0
4.875,-13824.0,-5824.0,1664.0
4.8775,-13696.0,-5760.0,1728.0
4.88,-13376.0,-5504.0,1728.0
4.8825,-13248.0,-5504.0,1728.0
4.885,-13184.0,-5440.0,1728.0
4.8875,-13120.0,-5440.0,1792.0
4.89,-13056.0,-5440.0,1728.0
4.8925,-12992.0,-5440.0,1664.0
4.895,-12992.0,-5440.0,1728.0
4.8975,-12992.0,-5440.0,1728.0
4.9,-13120.0,-5376.0,1728.0
4.9025,-13184.0,-5376.0,1664.0
4.905,-13184.0,-5440.0,1664.0
4.9075,-13248.0,-5440.0,1664.0
4.91,-13312.0,-5376.0,1664.0
4.9125,-13312.0,-5376.0,1664.0
4.915,-13440.0,-5440.0,1664.0
4.9175,-13568.0,-5440.0,1664.0
4.92,-13696.0,-5504.0,1600.0
4.9225,-13760.0,-5440.0,1536.0
4.925,-13888.0,-5504.0,1536.0
4.9275,-13952.0,-5504.0,1536.0
4.93,-14016.0,-5568.0,1536.0
4.9325,-14144.0,-5568.0,1600.0
4.935,-14208.0,-5568.0,1536.0
4.9375,-14272.0,-5568.0,1536.0
4.94,-14400.0,-5632.0,1536.0
4.9425,-14464.0,-5632.0,1472.0
4.945,-14528.0,-5568.0,1536.0
4.9475,-14592.0,-5632.0,1600.0
4.95,-14592.0,-5632.0,1536.0
4.9525,-14720.0,-5696.0,1536.0
4.955,-14720.0,-5760.0,1472.0
4.9575,-14848.0,-5760.0,1472.0
4.96,-14912.0,-5824.0,1408.0
4.9625,-14976.0,-5888.0,1408.0
4.965,-14976.0,-5888.0,1344.0
4.9675,-15104.0,-5952.0,1344.0
4.97,-15104.0,-5952.0,1344.0
4.9725,-15104.0,-6016.0,1344.0
4.975,-15104.0,-6080.0,1280.0
4.9775,-15232.0,-6016.0,1216.0
4.98,-15104.0,-5952.0,1280.0
4.9825,-15104.0,-5952.0,1216.0
4.985,-15040.0,-5888.0,1280.0
4.9875,-15040.0,-5888.0,1280.0
4.99,-14976.0,-5888.0,1216.0
4.9925,-14976.0,-5888.0,1152.0
4.995,-14976.0,-5824.0,1152.0
4.9975,-14912.0,-5824.0,1152.0
5.0,-14912.0,-5824.0,1152.0
5.0025,-14848.0,-5824.0,1152.0
5.005,-14848.0,-5824.0,1152.0
5.0075,-14784.0,-5824.0,1152.0
5.01,-14720.0,-5824.0,1088.0
5.0125,-14656.0,-5888.0,1024.0
5.015,-14656.0,-5824.0,1024.0
5.0175,-14592.0,-5824.0,1024.0
5.02,-14592.0,-5824.0,1024.0
5.0225,-14592.0,-5824.0,896.0
5.025,-14464.0,-5824.0,1024.0
5.0275,-14464.0,-5824.0,960.0
5.03,-14464.0,-5760.0,960.0
5.0325,-14464.0,-5696.0,896.0
5.035,-14400.0,-5760.0,896.0
5.0375,-14400.0,-5760.0,896.0
5.04,-14400.0,-5760.0,896.0
5.0425,-14464.0,-5824.0,896.0
5.045,-14400.0,-5760.0,896.0
5.0475,-14464.0,-5824.0,896.0
5.05,-14464.0,-5760.0,960.0
5.0525,-14528.0,-5824.0,896.0
5.055,-14464.0,-5824.0,896.0
5.0575,-14464.0,-5824.0,896.0
5.06,-14528.0,-5824.0,960.0
5.0625,-14528.0,-5824.0,960.0
5.065,-14592.0,-5888.0,1024.0
5.0675,-14528.0,-5824.0,960.0
5.07,-14592.0,-5888.0,1024.0
5.0725,-14592.0,-5888.0,960.0
5.075,-14592.0,-5888.0,1024.0
5.0775,-14656.0,-5952.0,1024.0
5.08,-14656.0,-5952.0,1024.0
5.0825,-14656.0,-6016.0,960.0
5.085,-14720.0,-6080.0,960.0
5.0875,-14784.0,-6080.0,896.0
5.09,-14784.0,-6080.0,960.0
5.0925,-14848.0,-6080.0,960.0
5.095,-14848.0,-6080.0,960.0
5.0975,-14848.0,-6080.0,960.0
5.1,-14912.0,-6208.0,1024.0
5.1025,-14912.0,-6144.0,1088.0
5.105,-14912.0,-6208.0,1088.0
5.1075,-14912.0,-6272.0,1088.0
5.11,-14848.0,-6208.0,1152.0
5.1125,-14784.0,-6208.0,1152.0
5.115,-14720.0,-6208.0,1152.0
5.1175,-14720.0,-6272.0,1152.0
5.12,-14656.0,-6336.0,1088.0
5.1225,-14656.0,-6336.0,1088.0
5.125,-14656.0,-6272.0,1024.0
5.1275,-14592.0,-6272.0,1024.0
5.13,-14528.0,-6272.0,1024.0
5.1325,-14464.0,-6336.0,1024.0
5.135,-14400.0,-6336.0,960.0
5.1375,-14336.0,-6336.0,960.0
5.14,-14336.0,-6464.0,960.0
5.1425,-14272.0,-6464.0,960.0
5.145,-14272.0,-6464.0,896.0
5.1475,-14208.0,-6464.0,960.0
5.15,-14208.0,-6528.0,960.0
5.1525,-14144.0,-6528.0,960.0
5.155,-14080.0,-6464.0,1024.0
5.1575,-14016.0,-6528.0,1024.0
5.16,-13952.0,-6464.0,1024.0
5.1625,-13888.0,-6464.0,1088.0
5.165,-13824.0,-6528.0,1024.0
5.1675,-13760.0,-6464.0,960.0
5.17,-13632.0,-6464.0,1024.0
5.1725,-13632.0,-6400.0,1024.0
5.175,-13568.0,-6464.0,1024.0
5.1775,-13504.0,-6464.0,1088.0
5.18,-13440.0,-6464.0,1088.0
5.1825,-13376.0,-6400.0,1024.0
5.185,-13312.0,-6464.0,1024.0
5.1875,-13312.0,-6400.0,1024.0
5.19,-13248.0,-6464.0,1024.0
5.1925,-13248.0,-6464.0,1024.0
5.195,-13248.0,-6464.0,960.0
5.1975,-13184.0,-6464.0,960.0
5.2,-13120.0,-6400.0,960.0
5.2025,-13056.0,-6464.0,960.0
5.205,-13120.0,-6464.0,1024.0
5.2075,-13056.0,-6528.0,1024.0
5.21,-12992.0,-6528.0,960.0
5.2125,-13056.0,-6464.0,896.0
5.215,-12992.0,-6464.0,960.0
5.2175,-13056.0,-6464.0,960.0
5.22,-12992.0,-6464.0,960.0
5.2225,-13056.0,-6528.0,1024.0
5.225,-13056.0,-6464.0,1088.0
5.2275,-13056.0,-6464.0,1024.0
5.23,-13056.0,-6464.0,960.0
5.2325,-12992.0,-6464.0,960.0
5.235,-13056.0,-6528.0,1024.0
5.2375,-13056.0,-6528.0,960.0
5.24,-13056.0,-6592.0,960.0
5.2425,-13120.0,-6528.0,960.0
5.245,-13120.0,-6528.0,960.0
5.2475,-13120.0,-6528.0,1024.0
5.25,-13120.0,-6528.0,960.0
5.2525,-13120.0,-6528.0,960.0
5.255,-13184.0,-6592.0,960.0
5.2575,-13248.0,-6592.0,960.0
5.26,-13248.0,-6592.0,896.0
5.2625,-13312.0,-6592.0,960.0
5.265,-13312.0,-6592.0,960.0
5.2675,-13312.0,-6528.0,960.0
5.27,-13376.0,-6528.0,1024.0
5.2725,-13376.0,-6528.0,960.0
5.275,-13440.0,-6528.0,960.0
5.2775,-13440.0,-6528.0,960.0
5.28,-13376.0,-6592.0,960.0
5.2825,-13440.0,-6592.0,960.0
5.285,-13504.0,-6656.0,1024.0
5.2875,-13568.0,-6656.0,960.0
5.29,-13568.0,-6656.0,1024.0
5.2925,-13568.0,-6720.0,960.0
5.295,-13504.0,-6656.0,896.0
5.2975,-13568.0,-6720.0,896.0
5.3,-13568.0,-6720.0,960.0
5.3025,-13568.0,-6720.0,960.0
5.305,-13568.0,-6720.0,960.0
5.3075,-13568.0,-6720.0,1024.0
5.31,-13568.0,-6720.0,1024.0
5.3125,-13632.0,-6720.0,1024.0
5.315,-13632.0,-6720.0,1024.0
5.3175,-13632.0,-6784.0,1024.0
5.32,-13696.0,-6784.0,1024.0
5.3225,-13632.0,-6784.0,1024.0
5.325,-13632.0,-6784.0,1024.0
5.3275,-13632.0,-6784.0,1088.0
5.33,-13632.0,-6784.0,960.0
5.3325,-13696.0,-6784.0,960.0
5.335,-13696.0,-6848.0,1024.0
5.3375,-13696.0,-6848.0,1088.0
5.34,-13632.0,-6848.0,1152.0
5.3425,-13632.0,-6848.0,1024.0
5.345,-13696.0,-6848.0,1024.0
5.3475,-13632.0,-6848.0,1088.0
5.35,-13632.0,-6784.0,1088.0
5.3525,-13632.0,-6848.0,1024.0
5.355,-13568.0,-6848.0,1088.0
5.3575,-13632.0,-6848.0,1024.0
5.36,-13632.0,-6784.0,960.0
5.3625,-13696.0,-6848.0,1024.0
5.365,-13760.0,-6848.0,960.0
5.3675,-13696.0,-6848.0,960.0
5.37,-13760.0,-6848.0,960.0
5.3725,-13824.0,-6848.0,1024.0
5.375,-13888.0,-6848.0,960.0
5.3775,-13888.0,-6848.0,1024.0
5.38,-13888.0,-6912.0,1024.0
5.3825,-14016.0,-6912.0,1088.0
5.385,-14016.0,-6848.0,1088.0
5.3875,-14016.0,-6912.0,1088.0
5.39,-14016.0,-6912.0,1088.0
5.3925,-14016.0,-6976.0,1024.0
5.395,-14144.0,-6976.0,1152.0
5.3975,-14208.0,-6976.0,1152.0
5.4,-14208.0,-6976.0,1216.0
5.4025,-14208.0,-6976.0,1152.0
5.405,-14272.0,-7040.0,1216.0
5.4075,-14336.0,-6976.0,1152.0
5.41,-14336.0,-6976.0,1088.0
5.4125,-14336.0,-6976.0,1152.0
5.415,-14336.0,-7040.0,1152.0
5.4175,-14400.0,-7040.0,1088.0
5.42,-14464.0,-6976.0,1088.0
5.4225,-14464.0,-7040.0,1088.0
5.425,-14464.0,-7040.0,1088.0
5.4275,-14464.0,-7040.0,1088.0
5.43,-14528.0,-7040.0,1024.0
5.4325,-14528.0,-7104.0,1024.0
5.435,-14528.0,-7040.0,1088.0
5.4375,-14528.0,-7104.0,1088.0
5.44,-14592.0,-7104.0,960.0
5.4425,-14592.0,-7168.0,960.0
5.445,-14592.0,-7232.0,1024.0
5.4475,-14592.0,-7232.0,1024.0
5.45,-14592.0,-7232.0,1088.0
5.4525,-14592.0,-7168.0,1088.0
5.455,-14656.0,-7232.0,1024.0
5.4575,-14656.0,-7232.0,1088.0
5.46,-14656.0,-7232.0,1088.0
5.4625,-14656.0,-7296.0,1088.0
5.465,-14656.0,-7360.0,1088.0
5.4675,-14656.0,-7360.0,1024.0
5.47,-14720.0,-7360.0,1024.0
5.4725,-14656.0,-7360.0,1024.0
5.475,-14656.0,-7360.0,960.0
5.4775,-14656.0,-7424.0,960.0
5.48,-14656.0,-7424.0,896.0
5.4825,-14656.0,-7488.0,960.0
5.485,-14656.0,-7424.0,960.0
5.4875,-14592.0,-7424.0,960.0
5.49,-14528.0,-7424.0,960.0
5.4925,-14464.0,-7424.0,960.0
5.495,-14464.0,-7424.0,960.0
5.4975,-14528.0,-7424.0,960.0
5.5,-14400.0,-7424.0,960.0
5.5025,-14336.0,-7424.0,1024.0
5.505,-14336.0,-7424.0,960.0
5.5075,-14336.0,-7424.0,960.0
5.51,-14272.0,-7424.0,1024.0
5.5125,-14208.0,-7424.0,960.0
5.515,-14208.0,-7424.0,1024.0
5.5175,-14208.0,-7424.0,1024.0
5.52,-14208.0,-7424.0,1024.0
5.5225,-14144.0,-7424.0,1024.0
5.525,-14144.0,-7424.0,1024.0
5.5275,-14208.0,-7424.0,1024.0
5.53,-14144.0,-7424.0,960.0
5.5325,-14144.0,-7424.0,960.0
5.535,-14208.0,-7424.0,960.0
5.5375,-14208.0,-7488.0,960.0
5.54,-14144.0,-7424.0,960.0
5.5425,-14208.0,-7488.0,960.0
5.545,-14144.0,-7488.0,960.0
5.5475,-14144.0,-7424.0,1024.0
5.55,-14208.0,-7488.0,1024.0
5.5525,-14272.0,-7488.0,1024.0
5.555,-14272.0,-7424.0,960.0
5.5575,-14272.0,-7424.0,960.0
5.56,-14336.0,-7424.0,960.0
5.5625,-14400.0,-7424.0,960.0
5.565,-14464.0,-7488.0,960.0
5.5675,-14528.0,-7424.0,960.0
5.57,-14464.0,-7488.0,960.0
5.5725,-14464.0,-7488.0,896.0
5.575,-14528.0,-7488.0,1024.0
5.5775,-14592.0,-7424.0,960.0
5.58,-14592.0,-7424.0,960.0
5.5825,-14592.0,-7424.0,896.0
5.585,-14592.0,-7488.0,960.0
5.5875,-14592.0,-7552.0,1024.0
5.59,-14656.0,-7552.0,960.0
5.5925,-14656.0,-7488.0,960.0
5.595,-14656.0,-7488.0,960.0
5.5975,-14720.0,-7488.0,1024.0
5.6,-14848.0,-7488.0,960.0
5.6025,-14848.0,-7424.0,1024.0
5.605,-14848.0,-7424.0,960.0
5.6075,-14848.0,-7488.0,960.0
5.61,-14912.0,-7488.0,896.0
5.6125,-14912.0,-7488.0,896.0
5.615,-14912.0,-7424.0,896.0
5.6175,-14912.0,-7424.0,896.0
5.62,-14848.0,-7424.0,896.0
5.6225,-14848.0,-7424.0,896.0
5.625,-14848.0,-7360.0,960.0
5.6275,-14848.0,-7360.0,960.0
5.63,-14848.0,-7296.0,960.0
5.6325,-14848.0,-7296.0,960.0
5.635,-14848.0,-7360.0,960.0
5.6375,-14784.0,-7296.0,1024.0
5.64,-14784.0,-7360.0,960.0
5.6425,-14784.0,-7296.0,1024.0
5.645,-14784.0,-7296.0,960.0
5.6475,-14720.0,-7232.0,960.0
5.65,-14720.0,-7232.0,896.0
5.6525,-14720.0,-7232.0,896.0
5.655,-14592.0,-7232.0,896.0
5.6575,-14592.0,-7168.0,896.0
5.66,-14528.0,-7168.0,832.0
5.6625,-14592.0,-7168.0,832.0
5.665,-14528.0,-7104.0,896.0
5.6675,-14528.0,-7040.0,896.0
5.67,-14464.0,-7104.0,832.0
5.6725,-14400.0,-7040.0,896.0
5.675,-14400.0,-7040.0,832.0
5.6775,-14400.0,-6976.0,832.0
5.68,-14336.0,-6848.0,832.0
5.6825,-14336.0,-6912.0,768.0
5.685,-14272.0,-6848.0,832.0
5.6875,-14336.0,-6848.0,768.0
5.69,-14272.0,-6848.0,704.0
5.6925,-14336.0,-6784.0,704.0
5.695,-14336.0,-6848.0,640.0
5.6975,-14464.0,-6912.0,640.0
5.7,-14464.0,-6848.0,640.0
5.7025,-14528.0,-6784.0,576.0
5.705,-14592.0,-6784.0,640.0
5.7075,-14656.0,-6784.0,640.0
5.71,-14656.0,-6784.0,640.0
5.7125,-14784.0,-6848.0,640.0
5.715,-14848.0,-6848.0,576.0
5.7175,-14912.0,-6848.0,640.0
5.72,-14976.0,-6848.0,576.0
5.7225,-15040.0,-6912.0,512.0
5.725,-15104.0,-6912.0,640.0
5.7275,-15168.0,-6912.0,704.0
5.73,-15232.0,-6912.0,704.0
5.7325,-15296.0,-6912.0,768.0
5.735,-15296.0,-6912.0,640.0
5.7375,-15296.0,-6912.0,640.0
5.74,-15296.0,-6912.0,640.0
5.7425,-15360.0,-6912.0,640.0
5.745,-15424.0,-6912.0,640.0
5.7475,-15488.0,-6912.0,704.0
5.75,-15488.0,-6976.0,640.0
5.7525,-15488.0,-6976.0,640.0
5.755,-15488.0,-6912.0,576.0
5.7575,-15488.0,-6912.0,576.0
5.76,-15488.0,-6848.0,512.0
5.7625,-15488.0,-6848.0,448.0
5.765,-15488.0,-6912.0,576.0
5.7675,-15360.0,-6848.0,576.0
5.77,-15424.0,-6784.0,512.0
5.7725,-15424.0,-6784.0,448.0
5.775,-15360.0,-6720.0,448.0
5.7775,-15296.0,-6720.0,448.0
5.78,-15360.0,-6720.0,448.0
5.7825,-15296.0,-6656.0,448.0
5.785,-15296.0,-6656.0,448.0
5.7875,-15296.0,-6656.0,448.0
5.79,-15232.0,-6656.0,384.0
5.7925,-15232.0,-6656.0,384.0
5.795,-15168.0,-6656.0,384.0
5.7975,-15104.0,-6592.0,384.0
5.8,-15104.0,-6592.0,384.0
5.8025,-15040.0,-6528.0,448.0
5.805,-14976.0,-6592.0,448.0
5.8075,-14912.0,-6528.0,448.0
5.81,-14976.0,-6528.0,512.0
5.8125,-14848.0,-6528.0,448.0
5.815,-14912.0,-6464.0,448.0
5.8175,-14912.0,-6464.0,384.0
5.82,-14848.0,-6400.0,384.0
5.8225,-14912.0,-6464.0,448.0
5.825,-14912.0,-6464.0,448.0
5.8275,-14912.0,-6464.0,448.0
5.83,-14912.0,-6464.0,320.0
5.8325,-14848.0,-6400.0,384.0
5.835,-14848.0,-6400.0,384.0
5.8375,-14912.0,-6400.0,384.0
5.84,-14976.0,-6400.0,320.0
5.8425,-14976.0,-6400.0,256.0
5.845,-15040.0,-6400.0,256.0
5.8475,-15040.0,-6400.0,192.0
5.85,-15104.0,-6464.0,256.0
5.8525,-15040.0,-6400.0,320.0
5.855,-15168.0,-6464.0,320.0
5.8575,-15104.0,-6464.0,256.0
5.86,-15104.0,-6464.0,256.0
5.8625,-15168.0,-6464.0,256.0
5.865,-15104.0,-6528.0,256.0
5.8675,-15168.0,-6528.0,256.0
5.87,-15104.0,-6464.0,192.0
5.8725,-15104.0,-6464.0,192.0
5.875,-15104.0,-6464.0,256.0
5.8775,-15104.0,-6464.0,256.0
5.88,-15040.0,-6464.0,256.0
5.8825,-15040.0,-6400.0,256.0
5.885,-14976.0,-6400.0,192.0
5.8875,-15040.0,-6336.0,128.0
5.89,-15040.0,-6336.0,128.0
5.8925,-15040.0,-6400.0,128.0
5.895,-15040.0,-6400.0,128.0
5.8975,-15040.0,-6400.0,128.0
5.9,-15104.0,-6400.0,64.0
5.9025,-15040.0,-6400.0,128.0
5.905,-15040.0,-6400.0,128.0
5.9075,-15040.0,-6400.0,128.0
5.91,-15040.0,-6336.0,64.0
5.9125,-14976.0,-6336.0,64.0
5.915,-14976.0,-6336.0,128.0
5.9175,-15040.0,-6336.0,128.0
5.92,-14976.0,-6336.0,128.0
5.9225,-14912.0,-6272.0,128.0
5.925,-14848.0,-6336.0,192.0
5.9275,-14912.0,-6272.0,128.0
5.93,-14848.0,-6208.0,128.0
5.9325,-14784.0,-6272.0,192.0
5.935,-14784.0,-6272.0,192.0
5.9375,-14720.0,-6272.0,128.0
5.94,-14720.0,-6272.0,128.0
5.9425,-14720.0,-6272.0,192.0
5.945,-14720.0,-6272.0,128.0
5.9475,-14720.0,-6272.0,192.0
5.95,-14592.0,-6208.0,128.0
5.9525,-14656.0,-6208.0,192.0
5.955,-14656.0,-6208.0,256.0
5.9575,-14592.0,-6272.0,256.0
5.96,-14528.0,-6272.0,192.0
5.9625,-14464.0,-6272.0,192.0
5.965,-14464.0,-6272.0,192.0
5.9675,-14464.0,-6272.0,192.0
5.97,-14464.0,-6272.0,128.0
5.9725,-14400.0,-6272.0,192.0
5.975,-14400.0,-6336.0,192.0
5.9775,-14464.0,-6336.0,192.0
5.98,-14464.0,-6336.0,192.0
5.9825,-14528.0,-6336.0,128.0
5.985,-14528.0,-6400.0,128.0
5.9875,-14528.0,-6400.0,128.0
5.99,-14528.0,-6400.0,128.0
5.9925,-14592.0,-6336.0,64.0
5.995,-14592.0,-6336.0,64.0
5.9975,-14592.0,-6336.0,64.0
6.0,-14720.0,-6400.0,64.0
6.0025,-14720.0,-6400.0,64.0
6.005,-14720.0,-6400.0,64.0
6.0075,-14720.0,-6464.0,128.0
6.01,-14784.0,-6464.0,64.0
6.0125,-14784.0,-6400.0,64.0
6.015,-14848.0,-6464.0,64.0
6.0175,-14848.0,-6400.0,64.0
6.02,-14848.0,-6464.0,64.0
6.0225,-14784.0,-6464.0,128.0
6.025,-14912.0,-6464.0,128.0
6.0275,-14912.0,-6400.0,128.0
6.03,-15040.0,-6400.0,128.0
6.0325,-14976.0,-6400.0,128.0
6.035,-15040.0,-6400.0,128.0
6.0375,-14976.0,-6400.0,128.0
6.04,-14976.0,-6400.0,192.0
6.0425,-14976.0,-6400.0,128.0
6.045,-14976.0,-6400.0,128.0
6.0475,-14976.0,-6400.0,128.0
6.05,-14976.0,-6336.0,192.0
6.0525,-14912.0,-6272.0,128.0
6.055,-14912.0,-6208.0,128.0
6.0575,-14912.0,-6144.0,128.0
6.06,-14912.0,-6144.0,128.0
6.0625,-14912.0,-6144.0,128.0
6.065,-14848.0,-6144.0,128.0
6.0675,-14848.0,-6144.0,64.0
6.07,-14848.0,-6080.0,128.0
6.0725,-14848.0,-6144.0,64.0
6.075,-14848.0,-6080.0,128.0
6.0775,-14784.0,-6080.0,64.0
6.08,-14720.0,-6016.0,64.0
6.0825,-14784.0,-6016.0,64.0
6.085,-14784.0,-5952.0,64.0
6.0875,-14720.0,-6016.0,64.0
6.09,-14656.0,-5952.0,64.0
6.0925,-14656.0,-5952.0,64.0
6.095,-14656.0,-6016.0,128.0
6.0975,-14656.0,-5952.0,128.0
6.1,-14720.0,-5952.0,64.0
6.1025,-14656.0,-5952.0,64.0
6.105,-14656.0,-5952.0,64.0
6.1075,-14592.0,-5952.0,0.0
6.11,-14592.0,-5952.0,0.0
6.1125,-14592.0,-6016.0,64.0
6.115,-14592.0,-6016.0,64.0
6.1175,-14592.0,-6016.0,64.0
6.12,-14592.0,-6016.0,128.0
6.1225,-14592.0,-6016.0,64.0
6.125,-14592.0,-6080.0,64.0
6.1275,-14592.0,-6080.0,64.0
6.13,-14528.0,-6144.0,64.0
6.1325,-14528.0,-6144.0,0.0
6.135,-14528.0,-6144.0,0.0
6.1375,-14592.0,-6144.0,64.0
6.14,-14528.0,-6080.0,0.0
6.1425,-14464.0,-6080.0,64.0
6.145,-14464.0,-6080.0,0.0
6.1475,-14528.0,-6144.0,64.0
6.15,-14528.0,-6144.0,0.0
6.1525,-14528.0,-6144.0,64.0
6.155,-14464.0,-6208.0,128.0
6.1575,-14464.0,-6208.0,64.0
6.16,-14464.0,-6272.0,64.0
6.1625,-14400.0,-6336.0,64.0
6.165,-14336.0,-6400.0,64.0
6.1675,-14336.0,-6400.0,-64.0
6.17,-14400.0,-6400.0,-64.0
6.1725,-14400.0,-6400.0,-64.0
6.175,-14400.0,-6400.0,-64.0
6.1775,-14464.0,-6400.0,-64.0
6.18,-14464.0,-6400.0,0.0
6.1825,-14400.0,-6400.0,0.0
6.185,-14400.0,-6464.0,0.0
6.1875,-14464.0,-6400.0,0.0
6.19,-14528.0,-6464.0,0.0
6.1925,-14464.0,-6464.0,0.0
6.195,-14464.0,-6464.0,128.0
6.1975,-14400.0,-6464.0,64.0
6.2,-14400.0,-6464.0,0.0
6.2025,-14400.0,-6464.0,-64.0
6.205,-14400.0,-6400.0,0.0
6.2075,-14400.0,-6400.0,64.0
6.21,-14336.0,-6464.0,0.0
6.2125,-14400.0,-6400.0,64.0
6.215,-14336.0,-6464.0,64.0
6.2175,-14336.0,-6464.0,64.0
6.22,-14336.0,-6528.0,0.0
6.2225,-14336.0,-6528.0,0.0
6.225,-14400.0,-6592.0,64.0
6.2275,-14336.0,-6592.0,0.0
6.23,-14336.0,-6528.0,64.0
6.2325,-14336.0,-6528.0,64.0
6.235,-14336.0,-6528.0,64.0
6.2375,-14272.0,-6528.0,64.0
6.24,-14208.0,-6464.0,64.0
6.2425,-14208.0,-6400.0,64.0
6.245,-14144.0,-6400.0,128.0
6.2475,-14144.0,-6464.0,192.0
6.25,-14144.0,-6400.0,192.0
6.2525,-14144.0,-6400.0,128.0
6.255,-14144.0,-6400.0,128.0
6.2575,-14144.0,-6336.0,192.0
6.26,-14080.0,-6336.0,128.0
6.2625,-14144.0,-6336.0,128.0
6.265,-14080.0,-6400.0,192.0
6.2675,-14080.0,-6400.0,64.0
6.27,-14208.0,-6400.0,64.0
6.2725,-14272.0,-6400.0,64.0
6.275,-14208.0,-6464.0,128.0
6.2775,-14272.0,-6464.0,64.0
6.28,-14208.0,-6464.0,64.0
6.2825,-14272.0,-6464.0,128.0
6.285,-14272.0,-6464.0,128.0
6.2875,-14336.0,-6400.0,128.0
6.29,-14336.0,-6400.0,128.0
6.2925,-14336.0,-6400.0,64.0
6.295,-14336.0,-6464.0,128.0
6.2975,-14400.0,-6464.0,128.0
6.3,-14336.0,-6400.0,128.0
6.3025,-14272.0,-6464.0,192.0
6.305,-14272.0,-6336.0,192.0
6.3075,-14208.0,-6336.0,192.0
6.31,-14272.0,-6336.0,192.0
6.3125,-14208.0,-6400.0,192.0
6.315,-14144.0,-6336.0,256.0
6.3175,-14144.0,-6272.0,192.0
6.32,-14016.0,-6336.0,256.0
6.3225,-13952.0,-6336.0,192.0
6.325,-13824.0,-6272.0,256.0
6.3275,-13760.0,-6272.0,256.0
6.33,-13760.0,-6272.0,192.0
6.3325,-13696.0,-6144.0,192.0
6.335,-13632.0,-6144.0,192.0
6.3375,-13568.0,-6080.0,192.0
6.34,-13504.0,-6080.0,192.0
6.3425,-13440.0,-6016.0,192.0
6.345,-13376.0,-5952.0,192.0
6.3475,-13376.0,-5952.0,192.0
6.35,-13376.0,-5952.0,128.0
6.3525,-13376.0,-5952.0,0.0
6.355,-13312.0,-5952.0,64.0
6.3575,-13312.0,-5952.0,128.0
6.36,-13376.0,-5888.0,128.0
6.3625,-13376.0,-5952.0,128.0
6.365,-13440.0,-5952.0,128.0
6.3675,-13504.0,-5952.0,192.0
6.37,-13568.0,-5888.0,192.0
6.3725,-13568.0,-5888.0,192.0
6.375,-13568.0,-5952.0,192.0
6.3775,-13696.0,-5888.0,192.0
6.38,-13760.0,-5888.0,192.0
6.3825,-13824.0,-5888.0,256.0
6.385,-13824.0,-5952.0,256.0
6.3875,-13888.0,-5952.0,256.0
6.39,-13888.0,-5952.0,256.0
6.3925,-14016.0,-5952.0,256.0
6.395,-14080.0,-6016.0,256.0
6.3975,-14208.0,-6016.0,256.0
6.4,-14272.0,-6016.0,448.0
6.4025,-14336.0,-6016.0,448.0
6.405,-14400.0,-6080.0,384.0
6.4075,-14400.0,-6016.0,448.0
6.41,-14400.0,-6016.0,384.0
6.4125,-14464.0,-6080.0,384.0
6.415,-14400.0,-6080.0,448.0
6.4175,-14464.0,-6016.0,384.0
6.42,-14400.0,-6080.0,320.0
6.4225,-14400.0,-6080.0,448.0
6.425,-14400.0,-6080.0,448.0
6.4275,-14336.0,-6080.0,448.0
6.43,-14336.0,-6080.0,448.0
6.4325,-14272.0,-6080.0,448.0
6.435,-14208.0,-6080.0,448.0
6.4375,-14080.0,-6080.0,448.0
6.44,-14080.0,-6144.0,512.0
6.4425,-14016.0,-6080.0,448.0
6.445,-13952.0,-6080.0,448.0
6.4475,-13824.0,-6080.0,512.0
6.45,-13760.0,-6080.0,512.0
6.4525,-13696.0,-6144.0,576.0
6.455,-13632.0,-6080.0,640.0
6.4575,-13568.0,-6016.0,640.0
6.46,-13440.0,-6016.0,576.0
6.4625,-13376.0,-6080.0,576.0
6.465,-13312.0,-6016.0,576.0
6.4675,-13312.0,-6080.0,704.0
6.47,-13312.0,-6080.0,768.0
6.4725,-13312.0,-6144.0,768.0
6.475,-13312.0,-6144.0,768.0
6.4775,-13312.0,-6144.0,768.0
6.48,-13248.0,-6272.0,768.0
6.4825,-13312.0,-6336.0,704.0
6.485,-13376.0,-6336.0,768.0
6.4875,-13376.0,-6400.0,768.0
6.49,-13440.0,-6464.0,768.0
6.4925,-13376.0,-6464.0,832.0
6.495,-13504.0,-6528.0,832.0
6.4975,-13568.0,-6464.0,832.0
6.5,-13632.0,-6592.0,832.0
6.5025,-13696.0,-6592.0,896.0
6.505,-13760.0,-6592.0,832.0
6.5075,-13760.0,-6784.0,1024.0
6.51,-13696.0,-6784.0,960.0
6.5125,-13760.0,-6848.0,960.0
6.515,-13760.0,-6848.0,896.0
6.5175,-13760.0,-6848.0,896.0
6.52,-13696.0,-6848.0,960.0
6.5225,-13760.0,-6912.0,896.0
6.525,-13760.0,-6976.0,960.0
6.5275,-13824.0,-6912.0,960.0
6.53,-13888.0,-6912.0,960.0
6.5325,-13952.0,-6848.0,960.0
6.535,-14080.0,-6912.0,1024.0
6.5375,-14144.0,-6976.0,960.0
6.54,-14144.0,-7040.0,960.0
6.5425,-14144.0,-7104.0,1024.0
6.545,-14272.0,-7104.0,960.0
6.5475,-14336.0,-7168.0,896.0
6.55,-14464.0,-7232.0,896.0
6.5525,-14592.0,-7360.0,896.0
6.555,-14720.0,-7360.0,960.0
6.5575,-14784.0,-7424.0,960.0
6.56,-14912.0,-7488.0,1024.0
6.5625,-14976.0,-7616.0,1088.0
6.565,-15040.0,-7616.0,1088.0
6.5675,-15104.0,-7616.0,1088.0
6.57,-15104.0,-7680.0,1024.0
6.5725,-15040.0,-7680.0,1024.0
6.575,-15104.0,-7680.0,1152.0
6.5775,-15104.0,-7744.0,1088.0
6.58,-15168.0,-7744.0,1152.0
6.5825,-15232.0,-7808.0,1152.0
6.585,-15232.0,-7808.0,1152.0
6.5875,-15296.0,-7808.0,1152.0
6.59,-15424.0,-7872.0,1088.0
6.5925,-15424.0,-7872.0,1024.0
6.595,-15552.0,-7872.0,1024.0
6.5975,-15680.0,-7936.0,960.0
6.6,-15808.0,-7936.0,896.0
6.6025,-15936.0,-8000.0,896.0
6.605,-16064.0,-8064.0,768.0
6.6075,-16256.0,-8128.0,768.0
6.61,-16320.0,-8192.0,832.0
6.6125,-16448.0,-8256.0,768.0
6.615,-16512.0,-8320.0,768.0
6.6175,-16512.0,-8384.0,768.0
6.62,-16576.0,-8384.0,768.0
6.6225,-16512.0,-8384.0,768.0
6.625,-16448.0,-8448.0,768.0
6.6275,-16384.0,-8384.0,832.0
6.63,-16320.0,-8384.0,832.0
6.6325,-16192.0,-8448.0,832.0
6.635,-16192.0,-8384.0,768.0
6.6375,-16128.0,-8384.0,768.0
6.64,-16064.0,-8320.0,768.0
6.6425,-16064.0,-8256.0,768.0
6.645,-16000.0,-8256.0,768.0
6.6475,-16064.0,-8320.0,640.0
6.65,-16064.0,-8384.0,640.0
6.6525,-16064.0,-8320.0,512.0
6.655,-16064.0,-8320.0,512.0
6.6575,-16064.0,-8320.0,512.0
6.66,-15936.0,-8384.0,576.0
6.6625,-15936.0,-8384.0,576.0
6.665,-15936.0,-8384.0,512.0
6.6675,-15872.0,-8384.0,512.0
6.67,-15744.0,-8320.0,512.0
6.6725,-15680.0,-8320.0,576.0
6.675,-15552.0,-8256.0,640.0
6.6775,-15360.0,-8256.0,640.0
6.68,-15232.0,-8192.0,704.0
6.6825,-15040.0,-8192.0,704.0
6.685,-14848.0,-8128.0,704.0
6.6875,-14720.0,-8000.0,704.0
6.69,-14656.0,-8064.0,640.0
6.6925,-14592.0,-8000.0,640.0
6.695,-14592.0,-7936.0,704.0
6.6975,-14528.0,-7936.0,576.0
6.7,-14528.0,-7936.0,512.0
6.7025,-14528.0,-7936.0,512.0
6.705,-14592.0,-7872.0,384.0
6.7075,-14656.0,-8000.0,320.0
6.71,-14720.0,-7936.0,320.0
6.7125,-14784.0,-8000.0,256.0
6.715,-14912.0,-8000.0,320.0
6.7175,-15040.0,-8000.0,320.0
6.72,-15232.0,-8064.0,192.0
6.7225,-15232.0,-8128.0,128.0
6.725,-15360.0,-8128.0,192.0
6.7275,-15360.0,-8128.0,192.0
6.73,-15488.0,-8192.0,192.0
6.7325,-15552.0,-8192.0,128.0
6.735,-15616.0,-8192.0,128.0
6.7375,-15680.0,-8256.0,128.0
6.74,-15680.0,-8256.0,128.0
6.7425,-15744.0,-8320.0,128.0
6.745,-15808.0,-8256.0,192.0
6.7475,-15808.0,-8256.0,128.0
6.75,-15872.0,-8256.0,128.0
6.7525,-15872.0,-8320.0,128.0
6.755,-15936.0,-8320.0,128.0
6.7575,-16000.0,-8320.0,128.0
6.76,-15936.0,-8256.0,128.0
6.7625,-15872.0,-8320.0,128.0
6.765,-15808.0,-8320.0,0.0
6.7675,-15808.0,-8320.0,0.0
6.77,-15744.0,-8320.0,128.0
6.7725,-15680.0,-8320.0,0.0
6.775,-15552.0,-8320.0,64.0
6.7775,-15488.0,-8320.0,0.0
6.78,-15424.0,-8320.0,0.0
6.7825,-15296.0,-8320.0,64.0
6.785,-15296.0,-8320.0,0.0
6.7875,-15232.0,-8320.0,0.0
6.79,-15232.0,-8320.0,0.0
6.7925,-15168.0,-8384.0,0.0
6.795,-15168.0,-8384.0,64.0
6.7975,-15104.0,-8384.0,0.0
6.8,-15040.0,-8384.0,64.0
6.8025,-15040.0,-8384.0,64.0
6.805,-15040.0,-8384.0,0.0
6.8075,-15040.0,-8320.0,64.0
6.81,-14976.0,-8384.0,64.0
6.8125,-14976.0,-8384.0,64.0
6.815,-14976.0,-8384.0,0.0
6.8175,-14976.0,-8448.0,0.0
6.82,-14912.0,-8448.0,0.0
6.8225,-14976.0,-8448.0,0.0
6.825,-14976.0,-8512.0,64.0
6.8275,-15040.0,-8448.0,64.0
6.83,-14976.0,-8448.0,0.0
6.8325,-15040.0,-8448.0,0.0
6.835,-15104.0,-8576.0,0.0
6.8375,-15040.0,-8512.0,0.0
6.84,-15104.0,-8576.0,64.0
6.8425,-15104.0,-8512.0,0.0
6.845,-15104.0,-8640.0,64.0
6.8475,-15168.0,-8640.0,64.0
6.85,-15168.0,-8576.0,0.0
6.8525,-15168.0,-8640.0,64.0
6.855,-15168.0,-8704.0,128.0
6.8575,-15232.0,-8640.0,128.0
6.86,-15232.0,-8704.0,128.0
6.8625,-15232.0,-8704.0,192.0
6.865,-15232.0,-8704.0,192.0
6.8675,-15168.0,-8704.0,128.0
6.87,-15168.0,-8640.0,128.0
6.8725,-15232.0,-8704.0,128.0
6.875,-15168.0,-8704.0,192.0
6.8775,-15104.0,-8768.0,128.0
6.88,-15104.0,-8704.0,192.0
6.8825,-15040.0,-8704.0,128.0
6.885,-15040.0,-8704.0,128.0
6.8875,-15104.0,-8704.0,128.0
6.89,-15104.0,-8768.0,128.0
6.8925,-15104.0,-8704.0,192.0
6.895,-15104.0,-8768.0,256.0
6.8975,-15168.0,-8768.0,192.0
6.9,-15104.0,-8704.0,128.0
6.9025,-15104.0,-8704.0,64.0
6.905,-15168.0,-8704.0,128.0
6.9075,-15168.0,-8640.0,128.0
6.91,-15104.0,-8704.0,192.0
6.9125,-15104.0,-8704.0,128.0
6.915,-15104.0,-8704.0,128.0
6.9175,-15168.0,-8704.0,128.0
6.92,-15168.0,-8704.0,192.0
6.9225,-15232.0,-8640.0,128.0
6.925,-15232.0,-8704.0,128.0
6.9275,-15232.0,-8768.0,64.0
6.93,-15296.0,-8768.0,128.0
6.9325,-15424.0,-8704.0,64.0
6.935,-15488.0,-8704.0,128.0
6.9375,-15552.0,-8768.0,128.0
6.94,-15680.0,-8768.0,64.0
6.9425,-15744.0,-8832.0,64.0
6.945,-15872.0,-8832.0,64.0
6.9475,-16128.0,-8960.0,64.0
6.95,-16064.0,-8960.0,0.0
6.9525,-16128.0,-9024.0,-64.0
6.955,-16256.0,-9088.0,-64.0
6.9575,-16384.0,-9088.0,-64.0
6.96,-16512.0,-9152.0,-128.0
6.9625,-16576.0,-9216.0,-128.0
6.965,-16640.0,-9216.0,-128.0
6.9675,-16576.0,-9216.0,-64.0
6.97,-16640.0,-9344.0,-128.0
6.9725,-16640.0,-9280.0,-128.0
6.975,-16704.0,-9344.0,-64.0
6.9775,-16640.0,-9280.0,-64.0
6.98,-16576.0,-9280.0,0.0
6.9825,-16448.0,-9280.0,0.0
6.985,-16384.0,-9280.0,0.0
6.9875,-16192.0,-9216.0,0.0
6.99,-16064.0,-9216.0,64.0
6.9925,-16000.0,-9152.0,64.0
6.995,-15872.0,-9216.0,0.0
6.9975,-15680.0,-9088.0,64.0
7.0,-15552.0,-9152.0,64.0
7.0025,-15360.0,-9152.0,0.0
7.005,-15232.0,-9088.0,0.0
7.0075,-15040.0,-9088.0,0.0
7.01,-14976.0,-9024.0,64.0
7.0125,-14784.0,-9024.0,64.0
7.015,-14656.0,-9088.0,64.0
7.0175,-14464.0,-9024.0,64.0
7.02,-14336.0,-9024.0,128.0
7.0225,-14144.0,-9024.0,128.0
7.025,-14016.0,-8960.0,64.0
7.0275,-13824.0,-8960.0,128.0
7.03,-13696.0,-8896.0,128.0
7.0325,-13632.0,-8832.0,192.0
7.035,-13504.0,-8832.0,192.0
7.0375,-13504.0,-8832.0,192.0
7.04,-13312.0,-8768.0,192.0
7.0425,-13312.0,-8768.0,128.0
7.045,-13312.0,-8768.0,128.0
7.0475,-13184.0,-8832.0,128.0
7.05,-13184.0,-8896.0,64.0
7.0525,-13248.0,-8832.0,128.0
7.055,-13184.0,-8832.0,64.0
7.0575,-13120.0,-8768.0,64.0
7.06,-13184.0,-8768.0,0.0
7.0625,-13184.0,-8768.0,0.0
7.065,-13184.0,-8832.0,64.0
7.0675,-13184.0,-8832.0,0.0
7.07,-13184.0,-8768.0,0.0
7.0725,-13184.0,-8832.0,64.0
7.075,-13248.0,-8832.0,0.0
7.0775,-13184.0,-8832.0,-64.0
7.08,-13248.0,-8832.0,-64.0
7.0825,-13312.0,-8832.0,-64.0
7.085,-13376.0,-8832.0,-128.0
7.0875,-13376.0,-8768.0,-64.0
7.09,-13440.0,-8832.0,-64.0
7.0925,-13440.0,-8832.0,-64.0
7.095,-13440.0,-8896.0,0.0
7.0975,-13440.0,-8896.0,0.0
7.1,-13440.0,-8960.0,0.0
7.1025,-13440.0,-8960.0,0.0
7.105,-13440.0,-8960.0,64.0
7.1075,-13440.0,-8896.0,64.0
7.11,-13440.0,-8960.0,64.0
7.1125,-13440.0,-8896.0,64.0
7.115,-13440.0,-8896.0,64.0
7.1175,-13504.0,-8896.0,0.0
7.12,-13504.0,-8896.0,-64.0
7.1225,-13568.0,-8896.0,-64.0
7.125,-13568.0,-8896.0,-128.0
7.1275,-13632.0,-8896.0,-192.0
7.13,-13632.0,-8896.0,-192.0
7.1325,-13760.0,-8896.0,-128.0
7.135,-13824.0,-8896.0,-192.0
7.1375,-13888.0,-8896.0,-192.0
7.14,-13824.0,-8960.0,-192.0
7.1425,-13824.0,-8960.0,-256.0
7.145,-13888.0,-8960.0,-256.0
7.1475,-13888.0,-8960.0,-320.0
7.15,-13888.0,-8960.0,-256.0
7.1525,-13952.0,-8960.0,-256.0
7.155,-13952.0,-8960.0,-256.0
7.1575,-14016.0,-8960.0,-256.0
7.16,-14016.0,-8960.0,-320.0
7.1625,-14016.0,-8960.0,-256.0
7.165,-14016.0,-8960.0,-256.0
7.1675,-14080.0,-8960.0,-256.0
7.17,-14016.0,-8960.0,-256.0
7.1725,-14016.0,-8960.0,-192.0
7.175,-13952.0,-8960.0,-128.0
7.1775,-13952.0,-9024.0,-192.0
7.18,-13952.0,-9024.0,-128.0
7.1825,-13952.0,-9024.0,-192.0
7.185,-13952.0,-9024.0,-256.0
7.1875,-13888.0,-8960.0,-128.0
7.19,-13888.0,-9024.0,-128.0
7.1925,-13760.0,-9024.0,-128.0
7.195,-13760.0,-9024.0,-128.0
7.1975,-13760.0,-9088.0,-128.0
7.2,-13696.0,-9024.0,-192.0
7.2025,-13632.0,-9024.0,-192.0
7.205,-13568.0,-9024.0,-256.0
7.2075,-13568.0,-8960.0,-256.0
7.21,-13568.0,-9024.0,-256.0
7.2125,-13568.0,-9088.0,-256.0
7.215,-13504.0,-9088.0,-320.0
7.2175,-13504.0,-9088.0,-320.0
7.22,-13504.0,-9024.0,-320.0
7.2225,-13504.0,-9024.0,-320.0
7.225,-13504.0,-9024.0,-320.0
7.2275,-13504.0,-8960.0,-256.0
7.23,-13504.0,-8960.0,-320.0
7.2325,-13440.0,-8960.0,-320.0
7.235,-13440.0,-8960.0,-320.0
7.2375,-13440.0,-8960.0,-256.0
7.24,-13440.0,-8960.0,-320.0
7.2425,-13440.0,-8960.0,-384.0
7.245,-13440.0,-9024.0,-320.0
7.2475,-13440.0,-9024.0,-320.0
7.25,-13504.0,-9024.0,-320.0
7.2525,-13504.0,-9088.0,-384.0
7.255,-13440.0,-9024.0,-384.0
7.2575,-13440.0,-9088.0,-384.0
7.26,-13504.0,-9088.0,-384.0
7.2625,-13440.0,-9088.0,-384.0
7.265,-13376.0,-9088.0,-384.0
7.2675,-13440.0,-9088.0,-320.0
7.27,-13440.0,-9088.0,-320.0
7.2725,-13440.0,-9088.0,-448.0
7.275,-13504.0,-9088.0,-448.0
7.2775,-13504.0,-9088.0,-448.0
7.28,-13504.0,-9088.0,-448.0
7.2825,-13568.0,-9152.0,-384.0
7.285,-13568.0,-9088.0,-320.0
7.2875,-13632.0,-9088.0,-384.0
7.29,-13632.0,-9088.0,-384.0
7.2925,-13632.0,-9088.0,-384.0
7.295,-13696.0,-9152.0,-320.0
7.2975,-13632.0,-9152.0,-256.0
7.3,-13632.0,-9152.0,-320.0
7.3025,-13632.0,-9088.0,-320.0
7.305,-13632.0,-9088.0,-320.0
7.3075,-13632.0,-9088.0,-256.0
7.31,-13696.0,-9088.0,-256.0
7.3125,-13696.0,-9152.0,-256.0
7.315,-13696.0,-9152.0,-320.0
7.3175,-13696.0,-9088.0,-384.0
7.32,-13696.0,-9088.0,-384.0
7.3225,-13632.0,-9216.0,-448.0
7.325,-13696.0,-9152.0,-448.0
7.3275,-13696.0,-9216.0,-512.0
7.33,-13760.0,-9216.0,-512.0
7.3325,-13760.0,-9280.0,-512.0
7.335,-13760.0,-9216.0,-576.0
7.3375,-13760.0,-9216.0,-576.0
7.34,-13760.0,-9216.0,-512.0
7.3425,-13760.0,-9216.0,-576.0
7.345,-13760.0,-9152.0,-576.0
7.3475,-13760.0,-9280.0,-512.0
7.35,-13760.0,-9280.0,-512.0
7.3525,-13696.0,-9280.0,-576.0
7.355,-13632.0,-9216.0,-512.0
7.3575,-13632.0,-9280.0,-576.0
7.36,-13568.0,-9152.0,-512.0
7.3625,-13632.0,-9216.0,-448.0
7.365,-13568.0,-9152.0,-448.0
7.3675,-13504.0,-9152.0,-384.0
7.37,-13440.0,-9152.0,-512.0
7.3725,-13504.0,-9152.0,-512.0
7.375,-13504.0,-9152.0,-576.0
7.3775,-13376.0,-9152.0,-576.0
7.38,-13440.0,-9152.0,-576.0
7.3825,-13440.0,-9152.0,-576.0
7.385,-13440.0,-9216.0,-576.0
7.3875,-13504.0,-9216.0,-576.0
7.39,-13440.0,-9152.0,-576.0
7.3925,-13440.0,-9152.0,-640.0
7.395,-13440.0,-9152.0,-640.0
7.3975,-13440.0,-9152.0,-704.0
7.4,-13376.0,-9152.0,-704.0
7.4025,-13376.0,-9152.0,-576.0
7.405,-13440.0,-9152.0,-640.0
7.4075,-13504.0,-9216.0,-640.0
7.41,-13504.0,-9152.0,-704.0
7.4125,-13568.0,-9088.0,-640.0
7.415,-13568.0,-9088.0,-640.0
7.4175,-13504.0,-9152.0,-640.0
7.42,-13568.0,-9088.0,-640.0
7.4225,-13568.0,-9152.0,-576.0
7.425,-13568.0,-9088.0,-576.0
7.4275,-13568.0,-9088.0,-640.0
7.43,-13632.0,-9088.0,-704.0
7.4325,-13632.0,-9152.0,-576.0
7.435,-13696.0,-9024.0,-576.0
7.4375,-13632.0,-9024.0,-640.0
7.44,-13760.0,-8960.0,-640.0
7.4425,-13760.0,-8960.0,-640.0
7.445,-13824.0,-8960.0,-704.0
7.4475,-13824.0,-8960.0,-768.0
7.45,-13760.0,-9024.0,-768.0
7.4525,-13824.0,-8960.0,-704.0
7.455,-13760.0,-8960.0,-704.0
7.4575,-13760.0,-8896.0,-704.0
7.46,-13824.0,-8896.0,-704.0
7.4625,-13824.0,-8960.0,-640.0
7.465,-13888.0,-8960.0,-704.0
7.4675,-13888.0,-8832.0,-704.0
7.47,-13888.0,-8896.0,-768.0
7.4725,-13952.0,-8896.0,-832.0
7.475,-13888.0,-8832.0,-832.0
7.4775,-13952.0,-8832.0,-768.0
7.48,-13952.0,-8768.0,-768.0
7.4825,-14016.0,-8768.0,-768.0
7.485,-14080.0,-8704.0,-768.0
7.4875,-14080.0,-8768.0,-768.0
7.49,-14144.0,-8640.0,-768.0
7.4925,-14080.0,-8640.0,-768.0
7.495,-14080.0,-8704.0,-704.0
7.4975,-14144.0,-8640.0,-768.0
7.5,-14144.0,-8640.0,-704.0
7.5025,-14144.0,-8640.0,-768.0
7.505,-14144.0,-8576.0,-704.0
7.5075,-14144.0,-8576.0,-704.0
7.51,-14208.0,-8640.0,-640.0
7.5125,-14208.0,-8640.0,-704.0
7.515,-14208.0,-8640.0,-704.0
7.5175,-14208.0,-8640.0,-704.0
7.52,-14272.0,-8576.0,-704.0
7.5225,-14208.0,-8576.0,-704.0
7.525,-14272.0,-8640.0,-704.0
7.5275,-14208.0,-8640.0,-576.0
7.53,-14208.0,-8576.0,-704.0
7.5325,-14272.0,-8640.0,-640.0
7.535,-14272.0,-8640.0,-640.0
7.5375,-14272.0,-8640.0,-704.0
7.54,-14272.0,-8576.0,-768.0
7.5425,-14272.0,-8640.0,-768.0
7.545,-14336.0,-8576.0,-704.0
7.5475,-14272.0,-8576.0,-704.0
7.55,-14272.0,-8640.0,-704.0
7.5525,-14272.0,-8576.0,-640.0
7.555,-14272.0,-8512.0,-640.0
7.5575,-14272.0,-8576.0,-576.0
7.56,-14208.0,-8576.0,-640.0
7.5625,-14208.0,-8512.0,-640.0
7.565,-14208.0,-8576.0,-640.0
7.5675,-14144.0,-8512.0,-640.0
7.57,-14080.0,-8512.0,-512.0
7.5725,-14080.0,-8448.0,-512.0
7.575,-14080.0,-8512.0,-512.0
7.5775,-14080.0,-8448.0,-576.0
7.58,-14016.0,-8448.0,-576.0
7.5825,-14080.0,-8448.0,-512.0
7.585,-14016.0,-8448.0,-512.0
7.5875,-14016.0,-8448.0,-448.0
7.59,-14016.0,-8384.0,-448.0
7.5925,-13888.0,-8384.0,-384.0
7.595,-13888.0,-8384.0,-448.0
7.5975,-13888.0,-8384.0,-448.0
7.6,-13824.0,-8448.0,-384.0
7.6025,-13824.0,-8448.0,-384.0
7.605,-13824.0,-8448.0,-320.0
7.6075,-13824.0,-8384.0,-384.0
7.61,-13888.0,-8384.0,-384.0
7.6125,-13824.0,-8448.0,-320.0
7.615,-13888.0,-8384.0,-320.0
7.6175,-13888.0,-8384.0,-320.0
7.62,-13824.0,-8320.0,-320.0
7.6225,-13824.0,-8320.0,-320.0
7.625,-13888.0,-8384.0,-384.0
7.6275,-13824.0,-8384.0,-384.0
7.63,-13888.0,-8384.0,-320.0
7.6325,-13824.0,-8320.0,-384.0
7.635,-13888.0,-8320.0,-384.0
7.6375,-13952.0,-8320.0,-384.0
7.64,-13952.0,-8320.0,-320.0
7.6425,-14016.0,-8384.0,-256.0
7.645,-13952.0,-8384.0,-320.0
7.6475,-14016.0,-8448.0,-256.0
7.65,-14016.0,-8448.0,-320.0
7.6525,-14016.0,-8448.0,-320.0
7.655,-14080.0,-8448.0,-256.0
7.6575,-14080.0,-8448.0,-192.0
7.66,-14080.0,-8448.0,-256.0
7.6625,-14080.0,-8512.0,-256.0
7.665,-14080.0,-8448.0,-256.0
7.6675,-14016.0,-8448.0,-320.0
7.67,-13952.0,-8448.0,-256.0
7.6725,-14080.0,-8448.0,-320.0
7.675,-14080.0,-8448.0,-320.0
7.6775,-14080.0,-8448.0,-320.0
7.68,-14080.0,-8512.0,-256.0
7.6825,-14144.0,-8512.0,-256.0
7.685,-14144.0,-8448.0,-256.0
7.6875,-14144.0,-8448.0,-320.0
7.69,-14144.0,-8448.0,-256.0
7.6925,-14144.0,-8512.0,-256.0
7.695,-14144.0,-8512.0,-192.0
7.6975,-14208.0,-8512.0,-256.0
7.7,-14144.0,-8512.0,-256.0
7.7025,-14144.0,-8512.0,-256.0
7.705,-14144.0,-8576.0,-192.0
7.7075,-14144.0,-8512.0,-256.0
7.71,-14144.0,-8576.0,-192.0
7.7125,-14080.0,-8576.0,-192.0
7.715,-14080.0,-8576.0,-128.0
7.7175,-14080.0,-8576.0,-128.0
7.72,-14080.0,-8512.0,-192.0
7.7225,-14080.0,-8576.0,-192.0
7.725,-14080.0,-8512.0,-192.0
7.7275,-14080.0,-8512.0,-128.0
7.73,-14080.0,-8576.0,-128.0
7.7325,-14080.0,-8576.0,-128.0
7.735,-14016.0,-8576.0,-128.0
7.7375,-14016.0,-8576.0,-128.0
7.74,-14080.0,-8512.0,-128.0
7.7425,-14080.0,-8512.0,-128.0
7.745,-14016.0,-8512.0,-128.0
7.7475,-14016.0,-8576.0,-128.0
7.75,-14080.0,-8576.0,-64.0
7.7525,-14080.0,-8576.0,-128.0
7.755,-14016.0,-8576.0,-128.0
7.7575,-14016.0,-8512.0,-64.0
7.76,-14016.0,-8512.0,-128.0
7.7625,-14016.0,-8576.0,-128.0
7.765,-14016.0,-8576.0,-64.0
7.7675,-14080.0,-8512.0,-192.0
7.77,-14080.0,-8576.0,-192.0
7.7725,-14080.0,-8640.0,-192.0
7.775,-14080.0,-8640.0,-256.0
7.7775,-14080.0,-8704.0,-192.0
7.78,-14080.0,-8640.0,-192.0
7.7825,-14080.0,-8640.0,-128.0
7.785,-14080.0,-8640.0,-128.0
7.7875,-14080.0,-8576.0,-128.0
7.79,-14080.0,-8640.0,-64.0
7.7925,-14080.0,-8576.0,-64.0
7.795,-14080.0,-8512.0,0.0
7.7975,-14016.0,-8512.0,0.0
7.8,-14016.0,-8512.0,0.0
7.8025,-14016.0,-8512.0,0.0
7.805,-13952.0,-8512.0,-64.0
7.8075,-14016.0,-8512.0,0.0
7.81,-14016.0,-8512.0,0.0
7.8125,-14016.0,-8512.0,0.0
7.815,-14016.0,-8512.0,-64.0
7.8175,-14080.0,-8512.0,0.0
7.82,-14080.0,-8512.0,-128.0
7.8225,-14080.0,-8576.0,-64.0
7.825,-14080.0,-8576.0,-128.0
7.8275,-14080.0,-8576.0,-64.0
7.83,-14144.0,-8512.0,-64.0
7.8325,-14144.0,-8576.0,0.0
7.835,-14144.0,-8512.0,0.0
7.8375,-14080.0,-8512.0,-64.0
7.84,-14016.0,-8512.0,-64.0
7.8425,-14016.0,-8512.0,0.0
7.845,-13952.0,-8448.0,0.0
7.8475,-13952.0,-8384.0,64.0
7.85,-14016.0,-8384.0,64.0
7.8525,-13952.0,-8384.0,0.0
7.855,-13888.0,-8320.0,64.0
7.8575,-13888.0,-8320.0,64.0
7.86,-13824.0,-8192.0,64.0
7.8625,-13888.0,-8256.0,128.0
7.865,-13888.0,-8192.0,128.0
7.8675,-13824.0,-8192.0,128.0
7.87,-13760.0,-8192.0,128.0
7.8725,-13760.0,-8192.0,128.0
7.875,-13760.0,-8192.0,64.0
7.8775,-13696.0,-8128.0,0.0
7.88,-13696.0,-8192.0,0.0
7.8825,-13696.0,-8192.0,0.0
7.885,-13696.0,-8128.0,0.0
7.8875,-13632.0,-8128.0,0.0
7.89,-13568.0,-8128.0,64.0
7.8925,-13632.0,-8064.0,64.0
7.895,-13632.0,-8128.0,0.0
7.8975,-13696.0,-8128.0,0.0
7.9,-13696.0,-8064.0,0.0
7.9025,-13696.0,-8064.0,0.0
7.905,-13696.0,-8128.0,0.0
7.9075,-13760.0,-8128.0,-64.0
7.91,-13760.0,-8128.0,64.0
7.9125,-13888.0,-8128.0,0.0
7.915,-13888.0,-8128.0,-64.0
7.9175,-13952.0,-8064.0,0.0
7.92,-14016.0,-8128.0,-64.0
7.9225,-14080.0,-8128.0,-128.0
7.925,-14080.0,-8192.0,-128.0
7.9275,-14144.0,-8192.0,-128.0
7.93,-14272.0,-8256.0,-192.0
7.9325,-14208.0,-8192.0,-128.0
7.935,-14336.0,-8256.0,-192.0
7.9375,-14464.0,-8256.0,-192.0
7.94,-14464.0,-8320.0,-256.0
7.9425,-14528.0,-8256.0,-256.0
7.945,-14528.0,-8320.0,-192.0
7.9475,-14528.0,-8320.0,-256.0
7.95,-14528.0,-8256.0,-256.0
7.9525,-14592.0,-8256.0,-256.0
7.955,-14528.0,-8320.0,-192.0
7.9575,-14464.0,-8192.0,-192.0
7.96,-14464.0,-8192.0,-192.0
7.9625,-14400.0,-8192.0,-192.0
7.965,-14400.0,-8256.0,-192.0
7.9675,-14336.0,-8192.0,-192.0
7.97,-14336.0,-8192.0,-192.0
7.9725,-14272.0,-8128.0,-192.0
7.975,-14272.0,-8192.0,-256.0
7.9775,-14144.0,-8128.0,-256.0
7.98,-14144.0,-8128.0,-256.0
7.9825,-14080.0,-8064.0,-192.0
7.985,-14016.0,-8064.0,-256.0
7.9875,-13952.0,-8000.0,-192.0
7.99,-13952.0,-8000.0,-128.0
7.9925,-13952.0,-8000.0,-192.0
7.995,-13952.0,-7936.0,-256.0
7.9975,-13888.0,-7936.0,-192.0
8.0,-13760.0,-7936.0,-192.0
8.0025,-13760.0,-7872.0,-256.0
8.005,-13760.0,-7872.0,-256.0
8.0075,-13696.0,-7808.0,-256.0
8.01,-13632.0,-7808.0,-256.0
8.0125,-13696.0,-7872.0,-192.0
8.015,-13696.0,-7872.0,-256.0
8.0175,-13632.0,-7808.0,-256.0
8.02,-13568.0,-7744.0,-256.0
8.0225,-13632.0,-7744.0,-256.0
8.025,-13568.0,-7808.0,-256.0
8.0275,-13504.0,-7680.0,-256.0
8.03,-13440.0,-7744.0,-320.0
8.0325,-13504.0,-7680.0,-320.0
8.035,-13440.0,-7680.0,-320.0
8.0375,-13504.0,-7680.0,-320.0
8.04,-13504.0,-7680.0,-384.0
8.0425,-13504.0,-7616.0,-384.0
8.045,-13504.0,-7616.0,-448.0
8.0475,-13504.0,-7616.0,-512.0
8.05,-13504.0,-7552.0,-512.0
8.0525,-13504.0,-7552.0,-512.0
8.055,-13504.0,-7616.0,-512.0
8.0575,-13568.0,-7552.0,-512.0
8.06,-13568.0,-7552.0,-512.0
8.0625,-13568.0,-7488.0,-512.0
8.065,-13632.0,-7552.0,-512.0
8.0675,-13632.0,-7552.0,-448.0
8.07,-13632.0,-7488.0,-448.0
8.0725,-13696.0,-7552.0,-448.0
8.075,-13696.0,-7552.0,-448.0
8.0775,-13760.0,-7616.0,-384.0
8.08,-13888.0,-7680.0,-320.0
8.0825,-13952.0,-7616.0,-384.0
8.085,-14080.0,-7680.0,-384.0
8.0875,-14144.0,-7744.0,-448.0
8.09,-14272.0,-7744.0,-384.0
8.0925,-14336.0,-7808.0,-384.0
8.095,-14464.0,-7808.0,-384.0
8.0975,-14592.0,-7872.0,-384.0
8.1,-14656.0,-7936.0,-384.0
8.1025,-14784.0,-8000.0,-448.0
8.105,-14848.0,-8000.0,-448.0
8.1075,-14912.0,-8000.0,-384.0
8.11,-15040.0,-7936.0,-384.0
8.1125,-15104.0,-8000.0,-384.0
8.115,-15104.0,-8000.0,-384.0
8.1175,-15168.0,-8000.0,-448.0
8.12,-15104.0,-8000.0,-384.0
8.1225,-15168.0,-8000.0,-320.0
8.125,-15168.0,-8000.0,-320.0
8.1275,-15104.0,-8000.0,-384.0
8.13,-15104.0,-8000.0,-448.0
8.1325,-15104.0,-7936.0,-448.0
8.135,-15040.0,-7936.0,-384.0
8.1375,-15040.0,-7936.0,-320.0
8.14,-14976.0,-7936.0,-384.0
8.1425,-14912.0,-7936.0,-384.0
8.145,-14912.0,-8000.0,-448.0
8.1475,-14976.0,-7936.0,-448.0
8.15,-14912.0,-7872.0,-448.0
8.1525,-14912.0,-7872.0,-384.0
8.155,-14848.0,-7936.0,-384.0
8.1575,-14848.0,-8000.0,-384.0
8.16,-14848.0,-8000.0,-320.0
8.1625,-14912.0,-7936.0,-384.0
8.165,-14848.0,-8000.0,-384.0
8.1675,-14848.0,-7936.0,-384.0
8.17,-14848.0,-7936.0,-384.0
8.1725,-14848.0,-7936.0,-384.0
8.175,-14848.0,-8000.0,-384.0
8.1775,-14848.0,-7936.0,-384.0
8.18,-14848.0,-7936.0,-384.0
8.1825,-14848.0,-7936.0,-384.0
8.185,-14784.0,-7936.0,-448.0
8.1875,-14720.0,-7872.0,-384.0
8.19,-14656.0,-7872.0,-384.0
8.1925,-14592.0,-7808.0,-384.0
8.195,-14592.0,-7808.0,-384.0
8.1975,-14592.0,-7744.0,-384.0
8.2,-14592.0,-7744.0,-448.0
8.2025,-14592.0,-7744.0,-448.0
8.205,-14592.0,-7744.0,-448.0
8.2075,-14528.0,-7744.0,-448.0
8.21,-14464.0,-7808.0,-448.0
8.2125,-14464.0,-7808.0,-512.0
8.215,-14464.0,-7808.0,-448.0
8.2175,-14464.0,-7872.0,-512.0
8.22,-14464.0,-7744.0,-512.0
8.2225,-14464.0,-7744.0,-448.0
8.225,-14464.0,-7808.0,-448.0
8.2275,-14464.0,-7808.0,-512.0
8.23,-14464.0,-7808.0,-512.0
8.2325,-14400.0,-7808.0,-512.0
8.235,-14400.0,-7808.0,-512.0
8.2375,-14400.0,-7808.0,-512.0
8.24,-14400.0,-7744.0,-448.0
8.2425,-14400.0,-7680.0,-384.0
8.245,-14400.0,-7680.0,-384.0
8.2475,-14400.0,-7808.0,-384.0
8.25,-14464.0,-7744.0,-384.0
8.2525,-14464.0,-7680.0,-512.0
8.255,-14400.0,-7744.0,-576.0
8.2575,-14464.0,-7744.0,-576.0
8.26,-14464.0,-7744.0,-576.0
8.2625,-14528.0,-7808.0,-576.0
8.265,-14592.0,-7808.0,-576.0
8.2675,-14528.0,-7808.0,-576.0
8.27,-14592.0,-7936.0,-640.0
8.2725,-14592.0,-7936.0,-640.0
8.275,-14656.0,-7936.0,-640.0
8.2775,-14656.0,-7936.0,-640.0
8.28,-14656.0,-7936.0,-704.0
8.2825,-14720.0,-7936.0,-640.0
8.285,-14784.0,-8000.0,-704.0
8.2875,-14720.0,-8000.0,-704.0
8.29,-14720.0,-8000.0,-704.0
8.2925,-14784.0,-7936.0,-768.0
8.295,-14784.0,-7936.0,-832.0
8.2975,-14848.0,-8000.0,-832.0
8.3,-14848.0,-7936.0,-832.0
8.3025,-14848.0,-8000.0,-832.0
8.305,-14912.0,-8000.0,-768.0
8.3075,-14976.0,-8000.0,-832.0
8.31,-14976.0,-8000.0,-832.0
8.3125,-14976.0,-8000.0,-832.0
8.315,-14976.0,-8000.0,-832.0
8.3175,-14976.0,-7936.0,-832.0
8.32,-14976.0,-7872.0,-768.0
8.3225,-14848.0,-7872.0,-768.0
8.325,-14848.0,-7872.0,-768.0
8.3275,-14848.0,-7872.0,-768.0
8.33,-14848.0,-7872.0,-768.0
8.3325,-14784.0,-7872.0,-768.0
8.335,-14784.0,-7872.0,-768.0
8.3375,-14784.0,-7872.0,-768.0
8.34,-14848.0,-7808.0,-768.0
8.3425,-14784.0,-7872.0,-832.0
8.345,-14720.0,-7872.0,-832.0
8.3475,-14656.0,-7872.0,-896.0
8.35,-14720.0,-7744.0,-832.0
8.3525,-14720.0,-7808.0,-832.0
8.355,-14720.0,-7808.0,-768.0
8.3575,-14656.0,-7808.0,-768.0
8.36,-14656.0,-7808.0,-704.0
8.3625,-14592.0,-7808.0,-640.0
8.365,-14656.0,-7808.0,-640.0
8.3675,-14592.0,-7744.0,-640.0
8.37,-14592.0,-7744.0,-576.0
8.3725,-14592.0,-7744.0,-576.0
8.375,-14528.0,-7744.0,-576.0
8.3775,-14528.0,-7680.0,-640.0
8.38,-14592.0,-7680.0,-640.0
8.3825,-14592.0,-7680.0,-576.0
8.385,-14592.0,-7744.0,-576.0
8.3875,-14528.0,-7744.0,-576.0
8.39,-14464.0,-7744.0,-576.0
8.3925,-14464.0,-7808.0,-576.0
8.395,-14400.0,-7808.0,-640.0
8.3975,-14400.0,-7808.0,-640.0
8.4,-14336.0,-7872.0,-704.0
8.4025,-14400.0,-7872.0,-640.0
8.405,-14272.0,-7872.0,-768.0
8.4075,-14336.0,-7808.0,-704.0
8.41,-14208.0,-7808.0,-640.0
8.4125,-14208.0,-7872.0,-640.0
8.415,-14272.0,-7872.0,-704.0
8.4175,-14208.0,-7936.0,-704.0
8.42,-14208.0,-7872.0,-640.0
8.4225,-14272.0,-7936.0,-576.0
8.425,-14208.0,-7872.0,-576.0
8.4275,-14208.0,-7872.0,-640.0
8.43,-14144.0,-7872.0,-512.0
8.4325,-14208.0,-7872.0,-640.0
8.435,-14272.0,-7808.0,-576.0
8.4375,-14272.0,-7872.0,-576.0
8.44,-14272.0,-7872.0,-640.0
8.4425,-14336.0,-7936.0,-640.0
8.445,-14336.0,-7936.0,-640.0
8.4475,-14400.0,-7936.0,-704.0
8.45,-14400.0,-7936.0,-640.0
8.4525,-14464.0,-7936.0,-640.0
8.455,-14400.0,-7936.0,-640.0
8.4575,-14464.0,-8000.0,-640.0
8.46,-14464.0,-8000.0,-640.0
8.4625,-14528.0,-8064.0,-640.0
8.465,-14528.0,-8000.0,-704.0
8.4675,-14592.0,-8000.0,-640.0
8.47,-14592.0,-8064.0,-576.0
8.4725,-14592.0,-8128.0,-576.0
8.475,-14528.0,-8064.0,-576.0
8.4775,-14528.0,-8000.0,-576.0
8.48,-14464.0,-8000.0,-576.0
8.4825,-14400.0,-7936.0,-576.0
8.485,-14336.0,-8000.0,-512.0
8.4875,-14336.0,-8000.0,-576.0
8.49,-14400.0,-8000.0,-576.0
8.4925,-14400.0,-8000.0,-576.0
8.495,-14336.0,-8000.0,-576.0
8.4975,-14336.0,-8000.0,-640.0
8.5,-14272.0,-7936.0,-576.0
8.5025,-14336.0,-7936.0,-576.0
8.505,-14272.0,-7936.0,-576.0
8.5075,-14208.0,-7872.0,-512.0
8.51,-14144.0,-7872.0,-576.0
8.5125,-14144.0,-7872.0,-576.0
8.515,-14144.0,-7872.0,-640.0
8.5175,-14144.0,-7872.0,-640.0
8.52,-14080.0,-7808.0,-704.0
8.5225,-14080.0,-7808.0,-768.0
8.525,-14080.0,-7808.0,-704.0
8.5275,-14144.0,-7808.0,-704.0
8.53,-14080.0,-7808.0,-704.0
8.5325,-14144.0,-7872.0,-704.0
8.535,-14016.0,-7872.0,-640.0
8.5375,-13952.0,-7872.0,-576.0
8.54,-14016.0,-7872.0,-640.0
8.5425,-14016.0,-7872.0,-576.0
8.545,-14016.0,-7872.0,-640.0
8.5475,-14016.0,-7808.0,-640.0
8.55,-13952.0,-7808.0,-576.0
8.5525,-14016.0,-7808.0,-512.0
8.555,-14016.0,-7744.0,-576.0
8.5575,-14016.0,-7744.0,-576.0
8.56,-14016.0,-7808.0,-640.0
8.5625,-13952.0,-7808.0,-640.0
8.565,-14016.0,-7808.0,-640.0
8.5675,-14016.0,-7808.0,-640.0
8.57,-14016.0,-7744.0,-640.0
8.5725,-14080.0,-7744.0,-704.0
8.575,-14080.0,-7744.0,-640.0
8.5775,-14144.0,-7744.0,-704.0
8.58,-14080.0,-7744.0,-768.0
8.5825,-14080.0,-7744.0,-768.0
8.585,-14080.0,-7680.0,-704.0
8.5875,-14144.0,-7680.0,-704.0
8.59,-14144.0,-7680.0,-640.0
8.5925,-14144.0,-7744.0,-640.0
8.595,-14144.0,-7680.0,-704.0
8.5975,-14208.0,-7680.0,-640.0
8.6,-14208.0,-7680.0,-704.0
8.6025,-14208.0,-7616.0,-704.0
8.605,-14208.0,-7680.0,-704.0
8.6075,-14272.0,-7616.0,-704.0
8.61,-14272.0,-7680.0,-704.0
8.6125,-14272.0,-7680.0,-576.0
8.615,-14336.0,-7680.0,-640.0
8.6175,-14272.0,-7616.0,-640.0
8.62,-14272.0,-7616.0,-768.0
8.6225,-14208.0,-7616.0,-704.0
8.625,-14272.0,-7616.0,-704.0
8.6275,-14272.0,-7680.0,-704.0
8.63,-14336.0,-7616.0,-704.0
8.6325,-14336.0,-7616.0,-704.0
8.635,-14272.0,-7680.0,-640.0
8.6375,-14272.0,-7616.0,-640.0
8.64,-14208.0,-7616.0,-768.0
8.6425,-14272.0,-7616.0,-768.0
8.645,-14272.0,-7616.0,-768.0
8.6475,-14336.0,-7680.0,-768.0
8.65,-14336.0,-7680.0,-832.0
8.6525,-14336.0,-7680.0,-896.0
8.655,-14400.0,-7680.0,-768.0
8.6575,-14400.0,-7680.0,-768.0
8.66,-14400.0,-7680.0,-768.0
8.6625,-14336.0,-7680.0,-768.0
8.665,-14400.0,-7680.0,-768.0
8.6675,-14400.0,-7744.0,-768.0
8.67,-14464.0,-7808.0,-768.0
8.6725,-14464.0,-7744.0,-768.0
8.675,-14464.0,-7744.0,-832.0
8.6775,-14528.0,-7744.0,-768.0
8.68,-14528.0,-7744.0,-768.0
8.6825,-14464.0,-7808.0,-768.0
8.685,-14528.0,-7744.0,-832.0
8.6875,-14592.0,-7744.0,-768.0
8.69,-14592.0,-7808.0,-768.0
8.6925,-14592.0,-7808.0,-832.0
8.695,-14592.0,-7808.0,-832.0
8.6975,-14656.0,-7808.0,-832.0
8.7,-14656.0,-7872.0,-832.0
8.7025,-14656.0,-7872.0,-768.0
8.705,-14592.0,-7872.0,-832.0
8.7075,-14592.0,-7872.0,-768.0
8.71,-14592.0,-7872.0,-768.0
8.7125,-14592.0,-7872.0,-768.0
8.715,-14528.0,-7936.0,-768.0
8.7175,-14592.0,-7936.0,-704.0
8.72,-14528.0,-8000.0,-704.0
8.7225,-14528.0,-8000.0,-768.0
8.725,-14528.0,-8000.0,-640.0
8.7275,-14464.0,-8000.0,-704.0
8.73,-14464.0,-8000.0,-704.0
8.7325,-14464.0,-8000.0,-704.0
8.735,-14400.0,-8000.0,-768.0
8.7375,-14400.0,-7936.0,-704.0
8.74,-14336.0,-7936.0,-832.0
8.7425,-14336.0,-7936.0,-768.0
8.745,-14272.0,-8000.0,-768.0
8.7475,-14336.0,-7936.0,-832.0
8.75,-14400.0,-7936.0,-768.0
8.7525,-14400.0,-7936.0,-832.0
8.755,-14336.0,-8000.0,-832.0
8.7575,-14272.0,-8000.0,-832.0
8.76,-14272.0,-8000.0,-832.0
8.7625,-14272.0,-7936.0,-768.0
8.765,-14272.0,-7936.0,-768.0
8.7675,-14272.0,-7936.0,-832.0
8.77,-14272.0,-8000.0,-896.0
8.7725,-14272.0,-7936.0,-896.0
8.775,-14272.0,-8000.0,-832.0
8.7775,-14336.0,-7936.0,-896.0
8.78,-14336.0,-8000.0,-896.0
8.7825,-14272.0,-7936.0,-896.0
8.785,-14336.0,-8000.0,-896.0
8.7875,-14400.0,-7936.0,-896.0
8.79,-14400.0,-8000.0,-896.0
8.7925,-14400.0,-8000.0,-832.0
8.795,-14464.0,-8000.0,-896.0
8.7975,-14528.0,-7936.0,-896.0
8.8,-14528.0,-7936.0,-832.0
8.8025,-14592.0,-8000.0,-768.0
8.805,-14592.0,-8000.0,-832.0
8.8075,-14592.0,-8000.0,-896.0
8.81,-14656.0,-8000.0,-832.0
8.8125,-14656.0,-7936.0,-896.0
8.815,-14784.0,-8000.0,-832.0
8.8175,-14784.0,-8000.0,-768.0
8.82,-14784.0,-8000.0,-832.0
8.8225,-14848.0,-7936.0,-896.0
8.825,-14848.0,-7936.0,-768.0
8.8275,-14848.0,-7936.0,-640.0
8.83,-14912.0,-8000.0,-704.0
8.8325,-14912.0,-7936.0,-640.0
8.835,-14912.0,-7936.0,-576.0
8.8375,-14912.0,-7872.0,-512.0
8.84,-14912.0,-7936.0,-640.0
8.8425,-14976.0,-7936.0,-576.0
8.845,-14912.0,-7872.0,-576.0
8.8475,-14976.0,-7872.0,-640.0
8.85,-14976.0,-7872.0,-576.0
8.8525,-14912.0,-7936.0,-512.0
8.855,-14848.0,-7936.0,-576.0
8.8575,-14784.0,-7936.0,-512.0
8.86,-14784.0,-7872.0,-512.0
8.8625,-14784.0,-7872.0,-448.0
8.865,-14784.0,-7808.0,-512.0
8.8675,-14720.0,-7808.0,-512.0
8.87,-14720.0,-7808.0,-576.0
8.8725,-14720.0,-7808.0,-576.0
8.875,-14784.0,-7808.0,-576.0
8.8775,-14720.0,-7808.0,-576.0
8.88,-14720.0,-7872.0,-576.0
8.8825,-14720.0,-7808.0,-640.0
8.885,-14720.0,-7744.0,-576.0
8.8875,-14656.0,-7808.0,-512.0
8.89,-14656.0,-7808.0,-512.0
8.8925,-14656.0,-7808.0,-576.0
8.895,-14656.0,-7808.0,-576.0
8.8975,-14656.0,-7808.0,-640.0
8.9,-14656.0,-7808.0,-576.0
8.9025,-14720.0,-7744.0,-512.0
8.905,-14720.0,-7744.0,-512.0
8.9075,-14848.0,-7680.0,-448.0
8.91,-14784.0,-7680.0,-384.0
8.9125,-14720.0,-7744.0,-448.0
8.915,-14784.0,-7744.0,-384.0
8.9175,-14720.0,-7680.0,-384.0
8.92,-14784.0,-7616.0,-384.0
8.9225,-14848.0,-7744.0,-384.0
8.925,-14848.0,-7680.0,-384.0
8.9275,-14912.0,-7680.0,-320.0
8.93,-14976.0,-7680.0,-384.0
8.9325,-14976.0,-7680.0,-384.0
8.935,-14976.0,-7680.0,-320.0
8.9375,-14976.0,-7680.0,-320.0
8.94,-15040.0,-7616.0,-256.0
8.9425,-15040.0,-7616.0,-320.0
8.945,-14976.0,-7616.0,-256.0
8.9475,-14976.0,-7616.0,-256.0
8.95,-14976.0,-7552.0,-192.0
8.9525,-14912.0,-7552.0,-128.0
8.955,-14912.0,-7488.0,-192.0
8.9575,-14912.0,-7552.0,-192.0
8.96,-14912.0,-7424.0,-192.0
8.9625,-14912.0,-7424.0,-128.0
8.965,-14912.0,-7488.0,-128.0
8.9675,-14976.0,-7424.0,-128.0
8.97,-15040.0,-7424.0,-192.0
8.9725,-15040.0,-7360.0,-64.0
8.975,-15104.0,-7424.0,-192.0
8.9775,-15104.0,-7424.0,-128.0
8.98,-15104.0,-7424.0,-128.0
8.9825,-15168.0,-7424.0,-128.0
8.985,-15232.0,-7488.0,-128.0
8.9875,-15296.0,-7488.0,-192.0
8.99,-15424.0,-7488.0,-192.0
8.9925,-15488.0,-7424.0,-192.0
8.995,-15488.0,-7488.0,-128.0
8.9975,-15552.0,-7552.0,-128.0
9.0,-15616.0,-7616.0,-128.0
9.0025,-15680.0,-7616.0,-128.0
9.005,-15744.0,-7680.0,-192.0
9.0075,-15808.0,-7616.0,-128.0
9.01,-15872.0,-7680.0,-64.0
9.0125,-15872.0,-7680.0,-64.0
9.015,-15936.0,-7680.0,-64.0
9.0175,-16000.0,-7744.0,-128.0
9.02,-16064.0,-7744.0,-192.0
9.0225,-16128.0,-7808.0,-192.0
9.025,-16192.0,-7872.0,-192.0
9.0275,-16192.0,-7936.0,-192.0
9.03,-16256.0,-7872.0,-256.0
9.0325,-16256.0,-7936.0,-256.0
9.035,-16256.0,-7936.0,-256.0
9.0375,-16320.0,-7936.0,-192.0
9.04,-16512.0,-8000.0,-256.0
9.0425,-16512.0,-8064.0,-192.0
9.045,-16576.0,-8000.0,-256.0
9.0475,-16640.0,-8000.0,-256.0
9.05,-16640.0,-8064.0,-256.0
9.0525,-16640.0,-8064.0,-256.0
9.055,-16640.0,-8064.0,-256.0
9.0575,-16704.0,-8064.0,-192.0
9.06,-16704.0,-8064.0,-192.0
9.0625,-16704.0,-8064.0,-192.0
9.065,-16704.0,-8064.0,-192.0
9.0675,-16704.0,-8064.0,-192.0
9.07,-16704.0,-8064.0,-128.0
9.0725,-16704.0,-8128.0,-192.0
9.075,-16704.0,-8064.0,-192.0
9.0775,-16704.0,-8128.0,-192.0
9.08,-16704.0,-8192.0,-192.0
9.0825,-16640.0,-8192.0,-64.0
9.085,-16640.0,-8256.0,-128.0
9.0875,-16640.0,-8256.0,-128.0
9.09,-16640.0,-8256.0,-128.0
9.0925,-16640.0,-8256.0,-128.0
9.095,-16640.0,-8256.0,-128.0
9.0975,-16576.0,-8256.0,-128.0
9.1,-16640.0,-8256.0,-128.0
9.1025,-16640.0,-8256.0,-128.0
9.105,-16640.0,-8256.0,-128.0
9.1075,-16576.0,-8192.0,-192.0
9.11,-16576.0,-8192.0,-128.0
9.1125,-16576.0,-8256.0,-128.0
9.115,-16512.0,-8256.0,-192.0
9.1175,-16512.0,-8192.0,-128.0
9.12,-16576.0,-8192.0,-64.0
9.1225,-16512.0,-8128.0,-128.0
9.125,-16512.0,-8192.0,-128.0
9.1275,-16512.0,-8192.0,-128.0
9.13,-16512.0,-8128.0,-64.0
9.1325,-16448.0,-8128.0,-64.0
9.135,-16512.0,-8192.0,-64.0
9.1375,-16384.0,-8128.0,0.0
9.14,-16384.0,-8128.0,-64.0
9.1425,-16384.0,-8064.0,-64.0
9.145,-16320.0,-8128.0,-64.0
9.1475,-16384.0,-8192.0,0.0
9.15,-16448.0,-8192.0,-64.0
9.1525,-16448.0,-8192.0,0.0
9.155,-16512.0,-8128.0,0.0
9.1575,-16448.0,-8192.0,-64.0
9.16,-16512.0,-8192.0,0.0
9.1625,-16512.0,-8192.0,0.0
9.165,-16448.0,-8192.0,64.0
9.1675,-16384.0,-8192.0,0.0
9.17,-16448.0,-8128.0,0.0
9.1725,-16448.0,-8192.0,64.0
9.175,-16448.0,-8128.0,64.0
9.1775,-16512.0,-8128.0,64.0
9.18,-16512.0,-8128.0,64.0
9.1825,-16512.0,-8128.0,64.0
9.185,-16512.0,-8128.0,128.0
9.1875,-16448.0,-8064.0,128.0
9.19,-16448.0,-8064.0,192.0
9.1925,-16384.0,-8000.0,192.0
9.195,-16448.0,-8000.0,128.0
9.1975,-16448.0,-8000.0,192.0
9.2,-16448.0,-8000.0,128.0
9.2025,-16448.0,-8000.0,192.0
9.205,-16448.0,-7872.0,192.0
9.2075,-16448.0,-7872.0,256.0
9.21,-16256.0,-7872.0,192.0
9.2125,-16320.0,-7872.0,192.0
9.215,-16192.0,-7872.0,192.0
9.2175,-16192.0,-7808.0,192.0
9.22,-16128.0,-7808.0,192.0
9.2225,-16064.0,-7808.0,320.0
9.225,-16000.0,-7744.0,320.0
9.2275,-15936.0,-7808.0,320.0
9.23,-15936.0,-7744.0,384.0
9.2325,-15936.0,-7680.0,448.0
9.235,-15872.0,-7616.0,512.0
9.2375,-15872.0,-7552.0,576.0
9.24,-15808.0,-7552.0,704.0
9.2425,-15744.0,-7488.0,576.0
9.245,-15744.0,-7424.0,512.0
9.2475,-15680.0,-7424.0,512.0
9.25,-15616.0,-7424.0,576.0
9.2525,-15552.0,-7424.0,576.0
9.255,-15488.0,-7424.0,512.0
9.2575,-15488.0,-7424.0,576.0
9.26,-15424.0,-7424.0,576.0
9.2625,-15360.0,-7360.0,576.0
9.265,-15360.0,-7424.0,576.0
9.2675,-15424.0,-7360.0,576.0
9.27,-15424.0,-7360.0,640.0
9.2725,-15360.0,-7360.0,704.0
9.275,-15360.0,-7424.0,704.0
9.2775,-15296.0,-7360.0,640.0
9.28,-15232.0,-7360.0,768.0
9.2825,-15168.0,-7424.0,768.0
9.285,-15168.0,-7424.0,768.0
9.2875,-15168.0,-7360.0,704.0
9.29,-15040.0,-7424.0,704.0
9.2925,-14976.0,-7360.0,704.0
9.295,-14976.0,-7360.0,704.0
9.2975,-14976.0,-7232.0,704.0
9.3,-14912.0,-7296.0,704.0
9.3025,-14784.0,-7232.0,704.0
9.305,-14720.0,-7232.0,768.0
9.3075,-14656.0,-7104.0,832.0
9.31,-14592.0,-7104.0,768.0
9.3125,-14528.0,-7104.0,704.0
9.315,-14400.0,-7104.0,768.0
9.3175,-14208.0,-7040.0,832.0
9.32,-14144.0,-6976.0,832.0
9.3225,-14016.0,-6912.0,896.0
9.325,-13888.0,-6976.0,896.0
9.3275,-13824.0,-6976.0,960.0
9.33,-13696.0,-6912.0,896.0
9.3325,-13632.0,-6784.0,832.0
9.335,-13632.0,-6784.0,896.0
9.3375,-13568.0,-6720.0,896.0
9.34,-13568.0,-6784.0,896.0
9.3425,-13568.0,-6784.0,896.0
9.345,-13568.0,-6720.0,832.0
9.3475,-13504.0,-6656.0,832.0
9.35,-13568.0,-6656.0,896.0
9.3525,-13568.0,-6656.0,896.0
9.355,-13568.0,-6656.0,896.0
9.3575,-13632.0,-6656.0,960.0
9.36,-13696.0,-6656.0,832.0
9.3625,-13760.0,-6720.0,832.0
9.365,-13824.0,-6656.0,896.0
9.3675,-13824.0,-6592.0,960.0
9.37,-13952.0,-6592.0,960.0
9.3725,-13952.0,-6656.0,896.0
9.375,-14016.0,-6656.0,960.0
9.3775,-14080.0,-6528.0,896.0
9.38,-14144.0,-6592.0,896.0
9.3825,-14144.0,-6528.0,896.0
9.385,-14208.0,-6592.0,832.0
9.3875,-14336.0,-6528.0,832.0
9.39,-14400.0,-6528.0,896.0
9.3925,-14336.0,-6592.0,896.0
9.395,-14400.0,-6656.0,896.0
9.3975,-14464.0,-6528.0,896.0
9.4,-14528.0,-6592.0,896.0
9.4025,-14592.0,-6592.0,960.0
9.405,-14592.0,-6656.0,960.0
9.4075,-14656.0,-6592.0,960.0
9.41,-14656.0,-6656.0,896.0
9.4125,-14720.0,-6656.0,896.0
9.415,-14784.0,-6656.0,896.0
9.4175,-14848.0,-6656.0,960.0
9.42,-14912.0,-6656.0,960.0
9.4225,-14912.0,-6656.0,960.0
9.425,-14912.0,-6656.0,960.0
9.4275,-14912.0,-6592.0,1024.0
9.43,-15040.0,-6656.0,1024.0
9.4325,-15104.0,-6656.0,1024.0
9.435,-15040.0,-6656.0,960.0
9.4375,-15104.0,-6720.0,1024.0
9.44,-15104.0,-6720.0,960.0
9.4425,-15040.0,-6784.0,896.0
9.445,-15104.0,-6784.0,960.0
9.4475,-15040.0,-6784.0,1024.0
9.45,-14976.0,-6784.0,960.0
9.4525,-14912.0,-6784.0,896.0
9.455,-14976.0,-6784.0,896.0
9.4575,-14912.0,-6720.0,896.0
9.46,-14976.0,-6784.0,896.0
9.4625,-14848.0,-6720.0,960.0
9.465,-14848.0,-6784.0,896.0
9.4675,-14784.0,-6720.0,896.0
9.47,-14784.0,-6784.0,960.0
9.4725,-14784.0,-6784.0,1024.0
9.475,-14720.0,-6784.0,1088.0
9.4775,-14720.0,-6848.0,1024.0
9.48,-14656.0,-6784.0,1024.0
9.4825,-14656.0,-6784.0,1024.0
9.485,-14656.0,-6784.0,1088.0
9.4875,-14720.0,-6784.0,1088.0
9.49,-14720.0,-6848.0,1088.0
9.4925,-14720.0,-6784.0,1152.0
9.495,-14656.0,-6720.0,1152.0
9.4975,-14592.0,-6784.0,1216.0
9.5,-14656.0,-6720.0,1152.0
9.5025,-14592.0,-6720.0,1152.0
9.505,-14528.0,-6784.0,1216.0
9.5075,-14528.0,-6720.0,1216.0
9.51,-14528.0,-6720.0,1280.0
9.5125,-14528.0,-6720.0,1344.0
9.515,-14528.0,-6656.0,1280.0
9.5175,-14528.0,-6656.0,1280.0
9.52,-14400.0,-6720.0,1280.0
9.5225,-14400.0,-6720.0,1280.0
9.525,-14400.0,-6656.0,1216.0
9.5275,-14400.0,-6656.0,1216.0
9.53,-14336.0,-6720.0,1216.0
9.5325,-14464.0,-6656.0,1216.0
9.535,-14400.0,-6656.0,1216.0
9.5375,-14400.0,-6720.0,1152.0
9.54,-14400.0,-6720.0,1216.0
9.5425,-14400.0,-6656.0,1216.0
9.545,-14400.0,-6656.0,1216.0
9.5475,-14400.0,-6656.0,1152.0
9.55,-14400.0,-6656.0,1152.0
9.5525,-14464.0,-6720.0,1088.0
9.555,-14464.0,-6720.0,1152.0
9.5575,-14400.0,-6784.0,1152.0
9.56,-14336.0,-6784.0,1152.0
9.5625,-14336.0,-6784.0,1152.0
9.565,-14272.0,-6784.0,1088.0
9.5675,-14272.0,-6720.0,1152.0
9.57,-14272.0,-6720.0,1152.0
9.5725,-14208.0,-6656.0,1152.0
9.575,-14144.0,-6720.0,1152.0
9.5775,-14144.0,-6720.0,1088.0
9.58,-14080.0,-6720.0,1088.0
9.5825,-14080.0,-6784.0,1088.0
9.585,-14016.0,-6784.0,1024.0
9.5875,-13952.0,-6720.0,960.0
9.59,-13952.0,-6720.0,960.0
9.5925,-13888.0,-6784.0,960.0
9.595,-13888.0,-6784.0,896.0
9.5975,-13888.0,-6720.0,832.0
9.6,-13888.0,-6720.0,896.0
9.6025,-13824.0,-6848.0,832.0
9.605,-13888.0,-6784.0,768.0
9.6075,-13888.0,-6784.0,768.0
9.61,-13824.0,-6848.0,768.0
9.6125,-13760.0,-6848.0,768.0
9.615,-13696.0,-6784.0,768.0
9.6175,-13696.0,-6848.0,832.0
9.62,-13696.0,-6912.0,768.0
9.6225,-13632.0,-6848.0,704.0
9.625,-13632.0,-6912.0,832.0
9.6275,-13632.0,-6912.0,832.0
9.63,-13632.0,-6912.0,704.0
9.6325,-13568.0,-6912.0,704.0
9.635,-13632.0,-6976.0,704.0
9.6375,-13568.0,-7040.0,704.0
9.64,-13568.0,-6976.0,640.0
9.6425,-13504.0,-7040.0,640.0
9.645,-13504.0,-7040.0,576.0
9.6475,-13504.0,-7104.0,640.0
9.65,-13504.0,-7040.0,640.0
9.6525,-13504.0,-7040.0,576.0
9.655,-13440.0,-7104.0,576.0
9.6575,-13376.0,-7168.0,512.0
9.66,-13376.0,-7104.0,448.0
9.6625,-13376.0,-7168.0,448.0
9.665,-13376.0,-7104.0,512.0
9.6675,-13312.0,-7104.0,384.0
9.67,-13312.0,-7104.0,384.0
9.6725,-13312.0,-7168.0,448.0
9.675,-13248.0,-7168.0,384.0
9.6775,-13312.0,-7168.0,320.0
9.68,-13312.0,-7168.0,320.0
9.6825,-13312.0,-7168.0,320.0
9.685,-13376.0,-7168.0,320.0
9.6875,-13376.0,-7168.0,384.0
9.69,-13376.0,-7168.0,320.0
9.6925,-13440.0,-7168.0,320.0
9.695,-13376.0,-7232.0,192.0
9.6975,-13376.0,-7168.0,256.0
9.7,-13440.0,-7168.0,256.0
9.7025,-13440.0,-7168.0,256.0
9.705,-13440.0,-7232.0,256.0
9.7075,-13504.0,-7232.0,320.0
9.71,-13504.0,-7168.0,320.0
9.7125,-13504.0,-7168.0,320.0
9.715,-13504.0,-7168.0,384.0
9.7175,-13504.0,-7168.0,320.0
9.72,-13440.0,-7168.0,320.0
9.7225,-13504.0,-7104.0,384.0
9.725,-13440.0,-7168.0,320.0
9.7275,-13504.0,-7168.0,320.0
9.73,-13504.0,-7168.0,320.0
9.7325,-13504.0,-7168.0,320.0
9.735,-13504.0,-7232.0,384.0
9.7375,-13504.0,-7168.0,448.0
9.74,-13504.0,-7232.0,384.0
9.7425,-13504.0,-7232.0,512.0
9.745,-13504.0,-7232.0,448.0
9.7475,-13504.0,-7232.0,448.0
9.75,-13440.0,-7232.0,512.0
9.7525,-13504.0,-7232.0,512.0
9.755,-13440.0,-7232.0,512.0
9.7575,-13504.0,-7168.0,448.0
9.76,-13440.0,-7232.0,448.0
9.7625,-13504.0,-7232.0,512.0
9.765,-13440.0,-7232.0,448.0
9.7675,-13568.0,-7232.0,448.0
9.77,-13568.0,-7296.0,448.0
9.7725,-13568.0,-7296.0,448.0
9.775,-13568.0,-7360.0,384.0
9.7775,-13632.0,-7360.0,448.0
9.78,-13568.0,-7296.0,512.0
9.7825,-13632.0,-7296.0,512.0
9.785,-13696.0,-7296.0,512.0
9.7875,-13632.0,-7296.0,512.0
9.79,-13632.0,-7424.0,576.0
9.7925,-13568.0,-7360.0,576.0
9.795,-13632.0,-7360.0,512.0
9.7975,-13632.0,-7360.0,576.0
9.8,-13568.0,-7424.0,576.0
9.8025,-13568.0,-7424.0,640.0
9.805,-13632.0,-7360.0,640.0
9.8075,-13632.0,-7360.0,576.0
9.81,-13568.0,-7360.0,640.0
9.8125,-13632.0,-7424.0,640.0
9.815,-13568.0,-7360.0,640.0
9.8175,-13568.0,-7296.0,640.0
9.82,-13504.0,-7296.0,704.0
9.8225,-13504.0,-7232.0,640.0
9.825,-13504.0,-7296.0,640.0
9.8275,-13504.0,-7360.0,640.0
9.83,-13504.0,-7296.0,640.0
9.8325,-13504.0,-7296.0,640.0
9.835,-13504.0,-7232.0,640.0
9.8375,-13504.0,-7232.0,704.0
9.84,-13504.0,-7232.0,640.0
9.8425,-13440.0,-7232.0,640.0
9.845,-13504.0,-7296.0,640.0
9.8475,-13568.0,-7296.0,640.0
9.85,-13504.0,-7296.0,640.0
9.8525,-13504.0,-7232.0,640.0
9.855,-13504.0,-7232.0,640.0
9.8575,-13568.0,-7296.0,768.0
9.86,-13568.0,-7296.0,768.0
9.8625,-13568.0,-7296.0,832.0
9.865,-13632.0,-7232.0,768.0
9.8675,-13696.0,-7232.0,768.0
9.87,-13696.0,-7296.0,832.0
9.8725,-13760.0,-7232.0,896.0
9.875,-13760.0,-7232.0,896.0
9.8775,-13824.0,-7232.0,960.0
9.88,-13888.0,-7232.0,896.0
9.8825,-13888.0,-7232.0,896.0
9.885,-13952.0,-7296.0,896.0
9.8875,-14016.0,-7232.0,896.0
9.89,-14016.0,-7296.0,896.0
9.8925,-14080.0,-7296.0,960.0
9.895,-14144.0,-7360.0,832.0
9.8975,-14144.0,-7360.0,832.0
9.9,-14208.0,-7360.0,832.0
9.9025,-14272.0,-7360.0,832.0
9.905,-14336.0,-7424.0,704.0
9.9075,-14272.0,-7424.0,768.0
9.91,-14400.0,-7424.0,832.0
9.9125,-14400.0,-7488.0,768.0
9.915,-14464.0,-7488.0,768.0
9.9175,-14528.0,-7424.0,832.0
9.92,-14528.0,-7424.0,896.0
9.9225,-14592.0,-7424.0,960.0
9.925,-14592.0,-7424.0,960.0
9.9275,-14592.0,-7424.0,896.0
9.93,-14592.0,-7488.0,896.0
9.9325,-14656.0,-7424.0,832.0
9.935,-14656.0,-7488.0,896.0
9.9375,-14656.0,-7488.0,896.0
9.94,-14656.0,-7488.0,960.0
9.9425,-14656.0,-7488.0,960.0
9.945,-14720.0,-7488.0,960.0
9.9475,-14720.0,-7488.0,1024.0
9.95,-14720.0,-7488.0,1024.0
9.9525,-14720.0,-7488.0,960.0
9.955,-14720.0,-7488.0,960.0
9.9575,-14656.0,-7488.0,960.0
9.96,-14656.0,-7424.0,960.0
9.9625,-14656.0,-7424.0,960.0
9.965,-14656.0,-7488.0,1024.0
9.9675,-14592.0,-7488.0,1024.0
9.97,-14656.0,-7488.0,1024.0
9.9725,-14656.0,-7424.0,1024.0
9.975,-14656.0,-7424.0,1024.0
9.9775,-14592.0,-7360.0,1024.0
9.98,-14592.0,-7360.0,960.0
9.9825,-14592.0,-7360.0,960.0
9.985,-14528.0,-7296.0,960.0
9.9875,-14528.0,-7296.0,960.0
9.99,-14464.0,-7296.0,960.0
9.9925,-14464.0,-7296.0,832.0
9.995,-14464.0,-7232.0,896.0
9.9975,-14336.0,-7232.0,896.0
10.0,-14272.0,-7104.0,832.0
10.0025,-14208.0,-7104.0,1024.0
10.005,-14208.0,-7168.0,960.0
10.0075,-14208.0,-7168.0,960.0
10.01,-14144.0,-7168.0,960.0
10.0125,-14080.0,-7168.0,1024.0
10.015,-14144.0,-7104.0,1024.0
10.0175,-14080.0,-7168.0,960.0
10.02,-14144.0,-7104.0,1024.0
10.0225,-14208.0,-7040.0,1024.0
10.025,-14144.0,-7104.0,1024.0
10.0275,-14144.0,-7040.0,1024.0
10.03,-14144.0,-7040.0,1024.0
10.0325,-14144.0,-7104.0,1088.0
10.035,-14208.0,-7040.0,1088.0
10.0375,-14080.0,-7040.0,1088.0
10.04,-14080.0,-7040.0,1024.0
10.0425,-14080.0,-7040.0,1088.0
10.045,-14080.0,-7040.0,1152.0
10.0475,-14080.0,-7040.0,1088.0
10.05,-14016.0,-6976.0,1088.0
10.0525,-14080.0,-6912.0,1024.0
10.055,-14080.0,-6912.0,1024.0
10.0575,-14080.0,-6912.0,1024.0
10.06,-14144.0,-6848.0,960.0
10.0625,-14144.0,-6912.0,1024.0
10.065,-14144.0,-6912.0,960.0
10.0675,-14208.0,-6976.0,896.0
10.07,-14272.0,-7040.0,960.0
10.0725,-14336.0,-6976.0,896.0
10.075,-14400.0,-6976.0,960.0
10.0775,-14464.0,-6976.0,1024.0
10.08,-14592.0,-7104.0,960.0
10.0825,-14592.0,-7104.0,960.0
10.085,-14656.0,-7168.0,896.0
10.0875,-14720.0,-7232.0,832.0
10.09,-14720.0,-7232.0,896.0
10.0925,-14848.0,-7232.0,768.0
10.095,-14912.0,-7232.0,832.0
10.0975,-14976.0,-7232.0,896.0
10.1,-14976.0,-7296.0,896.0
10.1025,-15040.0,-7296.0,832.0
10.105,-15040.0,-7296.0,832.0
10.1075,-15104.0,-7296.0,896.0
10.11,-15104.0,-7296.0,832.0
10.1125,-15168.0,-7360.0,768.0
10.115,-15232.0,-7360.0,768.0
10.1175,-15232.0,-7296.0,768.0
10.12,-15232.0,-7296.0,768.0
10.1225,-15232.0,-7296.0,704.0
10.125,-15232.0,-7360.0,704.0
10.1275,-15232.0,-7424.0,704.0
10.13,-15232.0,-7360.0,640.0
10.1325,-15296.0,-7360.0,640.0
10.135,-15232.0,-7360.0,640.0
10.1375,-15232.0,-7360.0,640.0
10.14,-15168.0,-7296.0,640.0
10.1425,-15168.0,-7360.0,704.0
10.145,-15104.0,-7360.0,576.0
10.1475,-15104.0,-7296.0,576.0
10.15,-15040.0,-7232.0,576.0
10.1525,-14976.0,-7232.0,640.0
10.155,-14976.0,-7232.0,640.0
10.1575,-14848.0,-7232.0,640.0
10.16,-14720.0,-7104.0,704.0
10.1625,-14656.0,-7040.0,640.0
10.165,-14592.0,-7040.0,704.0
10.1675,-14528.0,-7040.0,704.0
10.17,-14528.0,-7040.0,640.0
10.1725,-14528.0,-7040.0,704.0
10.175,-14464.0,-7040.0,704.0
10.1775,-14400.0,-6976.0,640.0
10.18,-14400.0,-6976.0,704.0
10.1825,-14400.0,-6976.0,704.0
10.185,-14336.0,-6848.0,704.0
10.1875,-14208.0,-6848.0,704.0
10.19,-14208.0,-6848.0,704.0
10.1925,-14208.0,-6848.0,640.0
10.195,-14208.0,-6912.0,640.0
10.1975,-14208.0,-6848.0,640.0
10.2,-14144.0,-6848.0,640.0
10.2025,-14144.0,-6848.0,640.0
10.205,-14272.0,-6848.0,640.0
10.2075,-14336.0,-6848.0,704.0
