time_stamp,acc_x,acc_y,acc_z
0.0,-16128.0,4224.0,-64.0
0.0025,-16128.0,4224.0,-128.0
0.005,-16064.0,4288.0,-128.0
0.0075,-16128.0,4288.0,-128.0
0.01,-16128.0,4288.0,-64.0
0.0125,-16064.0,4288.0,-64.0
0.015,-16064.0,4224.0,-64.0
0.0175,-16000.0,4288.0,-128.0
0.02,-16064.0,4288.0,-128.0
0.0225,-16128.0,4288.0,-64.0
0.025,-16064.0,4288.0,-64.0
0.0275,-16064.0,4224.0,-64.0
0.03,-16064.0,4288.0,0.0
0.0325,-16064.0,4224.0,-64.0
0.035,-16064.0,4288.0,0.0
0.0375,-16064.0,4288.0,0.0
0.04,-16064.0,4288.0,0.0
0.0425,-16064.0,4288.0,0.0
0.045,-16064.0,4288.0,64.0
0.0475,-16064.0,4288.0,64.0
0.05,-16064.0,4288.0,0.0
0.0525,-16064.0,4288.0,0.0
0.055,-16064.0,4352.0,0.0
0.0575,-16128.0,4288.0,0.0
0.06,-16064.0,4288.0,-128.0
0.0625,-16064.0,4288.0,0.0
0.065,-16064.0,4352.0,0.0
0.0675,-16064.0,4352.0,0.0
0.07,-16128.0,4352.0,-64.0
0.0725,-16192.0,4352.0,-128.0
0.075,-16128.0,4352.0,-64.0
0.0775,-16064.0,4416.0,0.0
0.08,-16128.0,4352.0,0.0
0.0825,-16128.0,4352.0,64.0
0.085,-16128.0,4416.0,0.0
0.0875,-16128.0,4416.0,-64.0
0.09,-16128.0,4416.0,0.0
0.0925,-16128.0,4416.0,0.0
0.095,-16128.0,4416.0,-64.0
0.0975,-16128.0,4480.0,-128.0
0.1,-16064.0,4416.0,-64.0
0.1025,-16128.0,4416.0,-64.0
0.105,-16000.0,4480.0,0.0
0.1075,-16000.0,4416.0,0.0
0.11,-16000.0,4416.0,-64.0
0.1125,-16000.0,4416.0,-64.0
0.115,-16000.0,4352.0,0.0
0.1175,-16000.0,4416.0,-64.0
0.12,-16064.0,4416.0,-64.0
0.1225,-16000.0,4352.0,-64.0
0.125,-15936.0,4352.0,-64.0
0.1275,-15936.0,4352.0,0.0
0.13,-15936.0,4416.0,0.0
0.1325,-15936.0,4416.0,-64.0
0.135,-15936.0,4416.0,-64.0
0.1375,-15936.0,4416.0,0.0
0.14,-15872.0,4416.0,0.0
0.1425,-15936.0,4416.0,0.0
0.145,-15936.0,4416.0,0.0
0.1475,-15936.0,4416.0,0.0
0.15,-15936.0,4416.0,0.0
0.1525,-15936.0,4480.0,0.0
0.155,-15936.0,4480.0,64.0
0.1575,-16000.0,4480.0,0.0
0.16,-16000.0,4416.0,-64.0
0.1625,-16000.0,4416.0,-64.0
0.165,-16000.0,4416.0,-64.0
0.1675,-16000.0,4416.0,0.0
0.17,-16000.0,4480.0,-64.0
0.1725,-16000.0,4480.0,-64.0
0.175,-16064.0,4480.0,-64.0
0.1775,-16000.0,4480.0,-64.0
0.18,-16000.0,4480.0,-64.0
0.1825,-16000.0,4480.0,-64.0
0.185,-16000.0,4544.0,-128.0
0.1875,-16000.0,4480.0,-192.0
0.19,-16000.0,4544.0,-192.0
0.1925,-16000.0,4544.0,-192.0
0.195,-16000.0,4544.0,-128.0
0.1975,-16000.0,4544.0,-128.0
0.2,-16000.0,4608.0,-64.0
0.2025,-16064.0,4544.0,-128.0
0.205,-16000.0,4544.0,-64.0
0.2075,-16000.0,4608.0,-64.0
0.21,-15936.0,4608.0,-64.0
0.2125,-16000.0,4608.0,-128.0
0.215,-16064.0,4544.0,-128.0
0.2175,-16000.0,4480.0,-128.0
0.22,-16000.0,4480.0,-128.0
0.2225,-16000.0,4480.0,-128.0
0.225,-16000.0,4480.0,-128.0
0.2275,-16064.0,4544.0,-128.0
0.23,-16000.0,4544.0,-64.0
0.2325,-15936.0,4544.0,-128.0
0.235,-15872.0,4480.0,-192.0
0.2375,-15936.0,4544.0,-128.0
0.24,-15808.0,4544.0,-128.0
0.2425,-15872.0,4544.0,-64.0
0.245,-15872.0,4544.0,-128.0
0.2475,-15872.0,4544.0,-128.0
0.25,-15872.0,4544.0,-64.0
0.2525,-15808.0,4544.0,0.0
0.255,-15808.0,4480.0,-64.0
0.2575,-15872.0,4480.0,-64.0
0.26,-15872.0,4480.0,-128.0
0.2625,-15808.0,4416.0,-64.0
0.265,-15808.0,4416.0,-64.0
0.2675,-15808.0,4416.0,-192.0
0.27,-15872.0,4480.0,-192.0
0.2725,-15872.0,4480.0,-192.0
0.275,-15808.0,4416.0,-256.0
0.2775,-15808.0,4480.0,-128.0
0.28,-15808.0,4480.0,-128.0
0.2825,-15872.0,4480.0,-128.0
0.285,-15872.0,4544.0,-128.0
0.2875,-15872.0,4544.0,-192.0
0.29,-15872.0,4480.0,-128.0
0.2925,-15872.0,4480.0,-192.0
0.295,-15872.0,4480.0,-192.0
0.2975,-15872.0,4480.0,-64.0
0.3,-15872.0,4480.0,0.0
0.3025,-15872.0,4416.0,0.0
0.305,-15936.0,4416.0,-64.0
0.3075,-15936.0,4416.0,-128.0
0.31,-15936.0,4416.0,0.0
0.3125,-15936.0,4352.0,-64.0
0.315,-15936.0,4416.0,-64.0
0.3175,-15936.0,4352.0,-64.0
0.32,-15936.0,4416.0,-128.0
0.3225,-15936.0,4352.0,-128.0
0.325,-15936.0,4352.0,-128.0
0.3275,-15936.0,4416.0,-128.0
0.33,-15936.0,4416.0,-128.0
0.3325,-15936.0,4416.0,-128.0
0.335,-15872.0,4480.0,-64.0
0.3375,-15936.0,4544.0,-64.0
0.34,-15936.0,4608.0,-64.0
0.3425,-16000.0,4544.0,-64.0
0.345,-16000.0,4544.0,0.0
0.3475,-16064.0,4544.0,-64.0
0.35,-16000.0,4544.0,-64.0
0.3525,-16064.0,4480.0,-64.0
0.355,-16064.0,4544.0,-64.0
0.3575,-16064.0,4544.0,-64.0
0.36,-16128.0,4480.0,0.0
0.3625,-16064.0,4480.0,0.0
0.365,-16000.0,4416.0,64.0
0.3675,-16000.0,4480.0,-64.0
0.37,-16000.0,4416.0,-64.0
0.3725,-16000.0,4416.0,0.0
0.375,-16000.0,4352.0,0.0
0.3775,-16064.0,4352.0,0.0
0.38,-16000.0,4352.0,0.0
0.3825,-16064.0,4352.0,-64.0
0.385,-16000.0,4288.0,-64.0
0.3875,-16000.0,4288.0,-64.0
0.39,-16000.0,4288.0,-64.0
0.3925,-16000.0,4288.0,-64.0
0.395,-16000.0,4288.0,-64.0
0.3975,-16000.0,4288.0,-64.0
0.4,-15936.0,4224.0,0.0
0.4025,-15936.0,4224.0,64.0
0.405,-16000.0,4224.0,64.0
0.4075,-15936.0,4224.0,64.0
0.41,-15936.0,4224.0,64.0
0.4125,-15936.0,4224.0,64.0
0.415,-16000.0,4224.0,128.0
0.4175,-16000.0,4224.0,128.0
0.42,-15936.0,4224.0,192.0
0.4225,-15936.0,4352.0,128.0
0.425,-16000.0,4224.0,128.0
0.4275,-16000.0,4224.0,192.0
0.43,-16000.0,4224.0,128.0
0.4325,-16064.0,4288.0,128.0
0.435,-16064.0,4224.0,192.0
0.4375,-16064.0,4224.0,192.0
0.44,-16128.0,4224.0,128.0
0.4425,-16064.0,4224.0,192.0
0.445,-16128.0,4288.0,192.0
0.4475,-16064.0,4224.0,64.0
0.45,-16064.0,4224.0,64.0
0.4525,-16064.0,4224.0,64.0
0.455,-16064.0,4224.0,64.0
0.4575,-16064.0,4288.0,64.0
0.46,-16064.0,4224.0,128.0
0.4625,-16128.0,4224.0,128.0
0.465,-16064.0,4288.0,64.0
0.4675,-16128.0,4224.0,64.0
0.47,-16064.0,4288.0,64.0
0.4725,-16128.0,4288.0,192.0
0.475,-16128.0,4224.0,64.0
0.4775,-16064.0,4224.0,0.0
0.48,-16128.0,4224.0,64.0
0.4825,-16064.0,4224.0,0.0
0.485,-16128.0,4224.0,64.0
0.4875,-16192.0,4224.0,64.0
0.49,-16192.0,4224.0,0.0
0.4925,-16192.0,4224.0,-64.0
0.495,-16192.0,4224.0,-64.0
0.4975,-16192.0,4288.0,0.0
0.5,-16192.0,4288.0,64.0
0.5025,-16192.0,4288.0,0.0
0.505,-16128.0,4224.0,64.0
0.5075,-16128.0,4288.0,64.0
0.51,-16192.0,4224.0,64.0
0.5125,-16192.0,4288.0,64.0
0.515,-16128.0,4224.0,64.0
0.5175,-16128.0,4224.0,64.0
0.52,-16128.0,4224.0,64.0
0.5225,-16128.0,4224.0,0.0
0.525,-16192.0,4224.0,0.0
0.5275,-16192.0,4288.0,-64.0
0.53,-16128.0,4288.0,-64.0
0.5325,-16192.0,4288.0,0.0
0.535,-16256.0,4288.0,-64.0
0.5375,-16192.0,4288.0,0.0
0.54,-16256.0,4224.0,64.0
0.5425,-16256.0,4224.0,0.0
0.545,-16256.0,4224.0,0.0
0.5475,-16256.0,4288.0,0.0
0.55,-16256.0,4288.0,0.0
0.5525,-16192.0,4288.0,0.0
0.555,-16192.0,4224.0,0.0
0.5575,-16192.0,4224.0,64.0
0.56,-16192.0,4288.0,64.0
0.5625,-16128.0,4288.0,0.0
0.565,-16128.0,4288.0,0.0
0.5675,-16192.0,4288.0,64.0
0.57,-16128.0,4224.0,64.0
0.5725,-16128.0,4224.0,128.0
0.575,-16000.0,4224.0,64.0
0.5775,-16064.0,4160.0,0.0
0.58,-16064.0,4160.0,64.0
0.5825,-16000.0,4160.0,0.0
0.585,-16000.0,4160.0,-64.0
0.5875,-16000.0,4224.0,0.0
0.59,-16000.0,4160.0,0.0
0.5925,-15936.0,4160.0,0.0
0.595,-15936.0,4160.0,0.0
0.5975,-16000.0,4224.0,0.0
0.6,-16000.0,4160.0,0.0
0.6025,-16000.0,4160.0,-64.0
0.605,-15936.0,4160.0,0.0
0.6075,-16000.0,4224.0,0.0
0.61,-16000.0,4224.0,64.0
0.6125,-16000.0,4288.0,0.0
0.615,-15936.0,4224.0,64.0
0.6175,-15936.0,4288.0,128.0
0.62,-16000.0,4288.0,64.0
0.6225,-16000.0,4288.0,64.0
0.625,-16000.0,4224.0,0.0
0.6275,-16000.0,4288.0,0.0
0.63,-16000.0,4288.0,0.0
0.6325,-16000.0,4288.0,0.0
0.635,-16000.0,4224.0,0.0
0.6375,-16000.0,4224.0,0.0
0.64,-16000.0,4224.0,64.0
0.6425,-16000.0,4288.0,0.0
0.645,-16000.0,4288.0,0.0
0.6475,-16000.0,4288.0,0.0
0.65,-16000.0,4224.0,-128.0
0.6525,-16000.0,4224.0,-128.0
0.655,-16000.0,4288.0,-64.0
0.6575,-16000.0,4288.0,64.0
0.66,-16064.0,4288.0,0.0
0.6625,-16000.0,4352.0,-64.0
0.665,-16064.0,4288.0,-64.0
0.6675,-16064.0,4288.0,-64.0
0.67,-16000.0,4288.0,-64.0
0.6725,-15936.0,4352.0,-64.0
0.675,-16000.0,4352.0,0.0
0.6775,-16000.0,4352.0,0.0
0.68,-16000.0,4288.0,-64.0
0.6825,-16000.0,4352.0,-128.0
0.685,-16000.0,4352.0,-64.0
0.6875,-16000.0,4288.0,0.0
0.69,-16064.0,4224.0,-64.0
0.6925,-16064.0,4288.0,-64.0
0.695,-16000.0,4352.0,0.0
0.6975,-15936.0,4352.0,-64.0
0.7,-15936.0,4416.0,-128.0
0.7025,-15936.0,4416.0,-64.0
0.705,-15936.0,4352.0,-128.0
0.7075,-15936.0,4352.0,-64.0
0.71,-15936.0,4416.0,-64.0
0.7125,-15936.0,4416.0,-128.0
0.715,-15936.0,4416.0,-128.0
0.7175,-15936.0,4416.0,-64.0
0.72,-15936.0,4416.0,-64.0
0.7225,-15936.0,4480.0,-64.0
0.725,-15936.0,4480.0,-128.0
0.7275,-15936.0,4480.0,-64.0
0.73,-16000.0,4416.0,-192.0
0.7325,-16000.0,4480.0,-128.0
0.735,-15936.0,4480.0,-128.0
0.7375,-15936.0,4480.0,-64.0
0.74,-15936.0,4480.0,-64.0
0.7425,-15936.0,4480.0,-128.0
0.745,-15872.0,4480.0,-128.0
0.7475,-15936.0,4480.0,-128.0
0.75,-15872.0,4480.0,-192.0
0.7525,-15872.0,4480.0,-128.0
0.755,-15872.0,4480.0,-128.0
0.7575,-15872.0,4480.0,-64.0
0.76,-15872.0,4416.0,-128.0
0.7625,-15872.0,4416.0,-128.0
0.765,-15872.0,4416.0,-128.0
0.7675,-15872.0,4480.0,-128.0
0.77,-15808.0,4544.0,0.0
0.7725,-15872.0,4480.0,-64.0
0.775,-15872.0,4480.0,-64.0
0.7775,-15872.0,4480.0,-64.0
0.78,-15872.0,4480.0,-128.0
0.7825,-15872.0,4480.0,-128.0
0.785,-15872.0,4480.0,-128.0
0.7875,-15808.0,4480.0,-128.0
0.79,-15808.0,4480.0,-64.0
0.7925,-15744.0,4480.0,-64.0
0.795,-15744.0,4480.0,-64.0
0.7975,-15744.0,4544.0,-128.0
0.8,-15744.0,4544.0,-64.0
0.8025,-15680.0,4480.0,-128.0
0.805,-15744.0,4544.0,-128.0
0.8075,-15744.0,4544.0,-128.0
0.81,-15744.0,4544.0,-128.0
0.8125,-15744.0,4608.0,-64.0
0.815,-15744.0,4608.0,-64.0
0.8175,-15808.0,4608.0,0.0
0.82,-15808.0,4544.0,0.0
0.8225,-15808.0,4544.0,0.0
0.825,-15808.0,4608.0,-64.0
0.8275,-15744.0,4544.0,-64.0
0.83,-15680.0,4544.0,0.0
0.8325,-15680.0,4608.0,-64.0
0.835,-15744.0,4544.0,-64.0
0.8375,-15744.0,4608.0,-128.0
0.84,-15744.0,4608.0,0.0
0.8425,-15808.0,4608.0,-64.0
0.845,-15808.0,4608.0,-64.0
0.8475,-15808.0,4672.0,-64.0
0.85,-15808.0,4672.0,-64.0
0.8525,-15744.0,4736.0,-64.0
0.855,-15808.0,4672.0,-64.0
0.8575,-15744.0,4672.0,0.0
0.86,-15744.0,4736.0,64.0
0.8625,-15744.0,4672.0,0.0
0.865,-15808.0,4672.0,64.0
0.8675,-15808.0,4672.0,0.0
0.87,-15872.0,4608.0,-64.0
0.8725,-15808.0,4608.0,-64.0
0.875,-15808.0,4608.0,-64.0
0.8775,-15872.0,4672.0,-64.0
0.88,-15808.0,4672.0,-64.0
0.8825,-15744.0,4672.0,-128.0
0.885,-15808.0,4672.0,-128.0
0.8875,-15744.0,4672.0,-128.0
0.89,-15744.0,4736.0,-128.0
0.8925,-15808.0,4736.0,-64.0
0.895,-15808.0,4672.0,-64.0
0.8975,-15808.0,4736.0,-64.0
0.9,-15744.0,4672.0,-64.0
0.9025,-15872.0,4736.0,-64.0
0.905,-15872.0,4736.0,64.0
0.9075,-15872.0,4800.0,0.0
0.91,-15872.0,4736.0,64.0
0.9125,-15936.0,4672.0,64.0
0.915,-15936.0,4736.0,0.0
0.9175,-15936.0,4736.0,64.0
0.92,-15872.0,4736.0,128.0
0.9225,-15872.0,4736.0,192.0
0.925,-15872.0,4672.0,192.0
0.9275,-15872.0,4608.0,128.0
0.93,-15872.0,4608.0,128.0
0.9325,-15872.0,4608.0,128.0
0.935,-15872.0,4544.0,64.0
0.9375,-15808.0,4544.0,64.0
0.94,-15808.0,4544.0,128.0
0.9425,-15808.0,4480.0,128.0
0.945,-15808.0,4480.0,128.0
0.9475,-15872.0,4544.0,0.0
0.95,-15872.0,4480.0,128.0
0.9525,-15872.0,4480.0,64.0
0.955,-15872.0,4480.0,64.0
0.9575,-15872.0,4480.0,128.0
0.96,-15872.0,4416.0,64.0
0.9625,-15872.0,4416.0,64.0
0.965,-15872.0,4416.0,128.0
0.9675,-15872.0,4416.0,128.0
0.97,-15872.0,4416.0,128.0
0.9725,-15872.0,4480.0,128.0
0.975,-15872.0,4480.0,128.0
0.9775,-15936.0,4544.0,128.0
0.98,-15872.0,4480.0,192.0
0.9825,-15936.0,4480.0,128.0
0.985,-15936.0,4480.0,128.0
0.9875,-15936.0,4480.0,192.0
0.99,-15936.0,4480.0,192.0
0.9925,-15936.0,4480.0,128.0
0.995,-15936.0,4480.0,192.0
0.9975,-15936.0,4480.0,192.0
1.0,-16000.0,4480.0,128.0
1.0025,-15936.0,4480.0,128.0
1.005,-16000.0,4480.0,128.0
1.0075,-16000.0,4480.0,192.0
1.01,-16000.0,4480.0,192.0
1.0125,-15936.0,4480.0,128.0
1.015,-16000.0,4480.0,128.0
1.0175,-15936.0,4480.0,192.0
1.02,-15936.0,4480.0,128.0
1.0225,-15936.0,4480.0,128.0
1.025,-16000.0,4480.0,64.0
1.0275,-15936.0,4416.0,0.0
1.03,-15936.0,4480.0,64.0
1.0325,-16000.0,4480.0,64.0
1.035,-16000.0,4480.0,64.0
1.0375,-15936.0,4480.0,128.0
1.04,-16000.0,4416.0,64.0
1.0425,-16000.0,4480.0,0.0
1.045,-16064.0,4416.0,0.0
1.0475,-16064.0,4480.0,0.0
1.05,-16064.0,4480.0,0.0
1.0525,-16064.0,4480.0,64.0
1.055,-16128.0,4480.0,0.0
1.0575,-16064.0,4416.0,-64.0
1.06,-16128.0,4480.0,-64.0
1.0625,-16128.0,4480.0,0.0
1.065,-16064.0,4352.0,0.0
1.0675,-16128.0,4416.0,0.0
1.07,-16064.0,4416.0,64.0
1.0725,-16064.0,4416.0,0.0
1.075,-16064.0,4416.0,0.0
1.0775,-16128.0,4416.0,64.0
1.08,-16064.0,4416.0,-64.0
1.0825,-16064.0,4352.0,0.0
1.085,-16064.0,4352.0,0.0
1.0875,-16000.0,4416.0,0.0
1.09,-16064.0,4416.0,0.0
1.0925,-16064.0,4416.0,0.0
1.095,-16192.0,4416.0,0.0
1.0975,-16128.0,4480.0,-64.0
1.1,-16128.0,4480.0,-128.0
1.1025,-16128.0,4416.0,-64.0
1.105,-16128.0,4416.0,0.0
1.1075,-16128.0,4416.0,0.0
1.11,-16128.0,4416.0,-64.0
1.1125,-16128.0,4352.0,-64.0
1.115,-16128.0,4416.0,0.0
1.1175,-16064.0,4352.0,-64.0
1.12,-16064.0,4352.0,-64.0
1.1225,-16064.0,4352.0,0.0
1.125,-16000.0,4352.0,64.0
1.1275,-16064.0,4288.0,64.0
1.13,-16064.0,4288.0,0.0
1.1325,-16064.0,4288.0,0.0
1.135,-16128.0,4224.0,0.0
1.1375,-16064.0,4288.0,0.0
1.14,-16064.0,4224.0,0.0
1.1425,-16064.0,4288.0,0.0
1.145,-16064.0,4288.0,0.0
1.1475,-16128.0,4288.0,-64.0
1.15,-16128.0,4288.0,-64.0
1.1525,-16064.0,4288.0,-64.0
1.155,-16064.0,4288.0,-128.0
1.1575,-16128.0,4288.0,-64.0
1.16,-16064.0,4352.0,-64.0
1.1625,-16000.0,4352.0,0.0
1.165,-16000.0,4288.0,0.0
1.1675,-16000.0,4352.0,0.0
1.17,-16000.0,4352.0,-64.0
1.1725,-16064.0,4352.0,-64.0
1.175,-16064.0,4352.0,-128.0
1.1775,-16064.0,4352.0,-128.0
1.18,-16064.0,4288.0,-128.0
1.1825,-16064.0,4416.0,-128.0
1.185,-16064.0,4416.0,-128.0
1.1875,-16064.0,4416.0,-128.0
1.19,-16000.0,4416.0,0.0
1.1925,-16000.0,4352.0,-64.0
1.195,-16064.0,4352.0,0.0
1.1975,-16064.0,4352.0,0.0
1.2,-16064.0,4352.0,-64.0
1.2025,-16064.0,4352.0,-128.0
1.205,-16064.0,4288.0,-64.0
1.2075,-16064.0,4288.0,-64.0
1.21,-16064.0,4352.0,-64.0
1.2125,-16064.0,4352.0,-128.0
1.215,-16064.0,4352.0,-64.0
1.2175,-16000.0,4416.0,0.0
1.22,-16064.0,4352.0,0.0
1.2225,-16128.0,4416.0,-64.0
1.225,-16064.0,4416.0,-128.0
1.2275,-16000.0,4416.0,-64.0
1.23,-16000.0,4352.0,-64.0
1.2325,-16064.0,4416.0,0.0
1.235,-16000.0,4352.0,-128.0
1.2375,-16064.0,4416.0,-128.0
1.24,-16064.0,4352.0,-128.0
1.2425,-16064.0,4352.0,-64.0
1.245,-16064.0,4352.0,-128.0
1.2475,-16064.0,4352.0,-128.0
1.25,-16064.0,4352.0,0.0
1.2525,-16000.0,4352.0,0.0
1.255,-16064.0,4352.0,0.0
1.2575,-16000.0,4352.0,-128.0
1.26,-16000.0,4352.0,-128.0
1.2625,-16000.0,4352.0,-192.0
1.265,-16000.0,4416.0,-128.0
1.2675,-15936.0,4416.0,-192.0
1.27,-16064.0,4416.0,-128.0
1.2725,-16000.0,4416.0,-128.0
1.275,-16000.0,4416.0,-128.0
1.2775,-16000.0,4480.0,-192.0
1.28,-16000.0,4480.0,-128.0
1.2825,-16000.0,4416.0,-128.0
1.285,-16000.0,4352.0,-192.0
1.2875,-15936.0,4352.0,-128.0
1.29,-16000.0,4416.0,-192.0
1.2925,-15936.0,4480.0,-192.0
1.295,-16000.0,4416.0,-128.0
1.2975,-16000.0,4416.0,-128.0
1.3,-16000.0,4480.0,-128.0
1.3025,-16000.0,4480.0,-64.0
1.305,-16000.0,4480.0,-128.0
1.3075,-16000.0,4544.0,-256.0
1.31,-16064.0,4480.0,-192.0
1.3125,-16000.0,4480.0,-256.0
1.315,-16064.0,4544.0,-192.0
1.3175,-16064.0,4544.0,-192.0
1.32,-16128.0,4480.0,-128.0
1.3225,-16064.0,4480.0,-192.0
1.325,-16000.0,4544.0,-128.0
1.3275,-16064.0,4544.0,-128.0
1.33,-16000.0,4608.0,-128.0
1.3325,-16000.0,4544.0,-128.0
1.335,-16064.0,4544.0,-192.0
1.3375,-16064.0,4544.0,-192.0
1.34,-16064.0,4544.0,-192.0
1.3425,-16064.0,4544.0,-128.0
1.345,-16064.0,4544.0,-64.0
1.3475,-16064.0,4480.0,-64.0
1.35,-16000.0,4544.0,-128.0
1.3525,-16000.0,4480.0,-64.0
1.355,-16000.0,4544.0,-64.0
1.3575,-16000.0,4544.0,-64.0
1.36,-15936.0,4544.0,-64.0
1.3625,-16000.0,4544.0,-64.0
1.365,-15936.0,4480.0,-64.0
1.3675,-15936.0,4480.0,0.0
1.37,-15936.0,4544.0,-64.0
1.3725,-15936.0,4480.0,-64.0
1.375,-15936.0,4544.0,0.0
1.3775,-15936.0,4480.0,-64.0
1.38,-15872.0,4480.0,-128.0
1.3825,-15872.0,4480.0,-64.0
1.385,-15872.0,4416.0,-64.0
1.3875,-15936.0,4480.0,-64.0
1.39,-16000.0,4480.0,-64.0
1.3925,-15936.0,4416.0,-64.0
1.395,-15872.0,4416.0,-64.0
1.3975,-15872.0,4352.0,-128.0
1.4,-15936.0,4480.0,-64.0
1.4025,-15872.0,4480.0,-64.0
1.405,-16128.0,4544.0,-128.0
1.4075,-16000.0,4544.0,-128.0
1.41,-16064.0,4480.0,-128.0
1.4125,-15936.0,4480.0,-192.0
1.415,-15936.0,4544.0,-128.0
1.4175,-15872.0,4544.0,-128.0
1.42,-15872.0,4544.0,-64.0
1.4225,-15872.0,4544.0,-64.0
1.425,-15872.0,4608.0,-64.0
1.4275,-15872.0,4544.0,-64.0
1.43,-15872.0,4480.0,-64.0
1.4325,-15936.0,4480.0,0.0
1.435,-16000.0,4544.0,-64.0
1.4375,-15936.0,4544.0,-192.0
1.44,-16000.0,4480.0,-128.0
1.4425,-16000.0,4480.0,-128.0
1.445,-16000.0,4480.0,-192.0
1.4475,-16000.0,4544.0,-192.0
1.45,-16000.0,4480.0,-256.0
1.4525,-16000.0,4480.0,-256.0
1.455,-15936.0,4544.0,-192.0
1.4575,-16000.0,4608.0,-128.0
1.46,-16000.0,4672.0,-192.0
1.4625,-16000.0,4672.0,-128.0
1.465,-16000.0,4672.0,-256.0
1.4675,-16000.0,4672.0,-192.0
1.47,-16000.0,4672.0,-192.0
1.4725,-15936.0,4672.0,-192.0
1.475,-15936.0,4608.0,-128.0
1.4775,-15936.0,4608.0,-128.0
1.48,-16000.0,4544.0,-128.0
1.4825,-16000.0,4544.0,-64.0
1.485,-15936.0,4544.0,-64.0
1.4875,-15872.0,4608.0,-64.0
1.49,-15872.0,4544.0,-128.0
1.4925,-15872.0,4480.0,-64.0
1.495,-15872.0,4416.0,-128.0
1.4975,-15808.0,4480.0,-128.0
1.5,-15808.0,4544.0,-128.0
1.5025,-15872.0,4480.0,-192.0
1.505,-15872.0,4480.0,-256.0
1.5075,-15872.0,4416.0,-256.0
1.51,-15808.0,4416.0,-192.0
1.5125,-15872.0,4416.0,-256.0
1.515,-15872.0,4416.0,-320.0
1.5175,-15872.0,4416.0,-256.0
1.52,-15808.0,4352.0,-320.0
1.5225,-15744.0,4416.0,-256.0
1.525,-15808.0,4416.0,-192.0
1.5275,-15872.0,4416.0,-256.0
1.53,-15808.0,4416.0,-192.0
1.5325,-15808.0,4416.0,-256.0
1.535,-15808.0,4416.0,-256.0
1.5375,-15808.0,4416.0,-192.0
1.54,-15808.0,4416.0,-192.0
1.5425,-15808.0,4480.0,-128.0
1.545,-15872.0,4416.0,-192.0
1.5475,-15872.0,4416.0,-192.0
1.55,-15936.0,4480.0,-192.0
1.5525,-15872.0,4480.0,-192.0
1.555,-15872.0,4480.0,-192.0
1.5575,-15872.0,4480.0,-192.0
1.56,-15936.0,4544.0,-192.0
1.5625,-16000.0,4480.0,-192.0
1.565,-16000.0,4480.0,-256.0
1.5675,-16000.0,4544.0,-320.0
1.57,-16000.0,4480.0,-256.0
1.5725,-16000.0,4480.0,-320.0
1.575,-16000.0,4480.0,-320.0
1.5775,-16064.0,4480.0,-320.0
1.58,-16064.0,4544.0,-320.0
1.5825,-16064.0,4544.0,-320.0
1.585,-16064.0,4480.0,-320.0
1.5875,-16000.0,4480.0,-320.0
1.59,-16064.0,4416.0,-320.0
1.5925,-16064.0,4480.0,-320.0
1.595,-16000.0,4480.0,-384.0
1.5975,-16064.0,4480.0,-320.0
1.6,-16064.0,4544.0,-384.0
1.6025,-16000.0,4544.0,-384.0
1.605,-16000.0,4480.0,-320.0
1.6075,-16064.0,4480.0,-384.0
1.61,-16064.0,4480.0,-320.0
1.6125,-16064.0,4480.0,-384.0
1.615,-16128.0,4544.0,-384.0
1.6175,-16128.0,4480.0,-384.0
1.62,-16128.0,4544.0,-384.0
1.6225,-16128.0,4544.0,-384.0
1.625,-16128.0,4544.0,-384.0
1.6275,-16064.0,4480.0,-384.0
1.63,-16064.0,4480.0,-384.0
1.6325,-16064.0,4544.0,-384.0
1.635,-16128.0,4544.0,-448.0
1.6375,-16064.0,4544.0,-448.0
1.64,-16064.0,4544.0,-384.0
1.6425,-16064.0,4544.0,-384.0
1.645,-16000.0,4544.0,-320.0
1.6475,-16000.0,4544.0,-320.0
1.65,-16000.0,4544.0,-384.0
1.6525,-16128.0,4544.0,-384.0
1.655,-16064.0,4544.0,-384.0
1.6575,-16064.0,4544.0,-384.0
1.66,-16064.0,4544.0,-320.0
1.6625,-16064.0,4544.0,-448.0
1.665,-16000.0,4544.0,-448.0
1.6675,-16000.0,4480.0,-512.0
1.67,-16064.0,4544.0,-448.0
1.6725,-16064.0,4480.0,-384.0
1.675,-16064.0,4480.0,-320.0
1.6775,-16064.0,4480.0,-384.0
1.68,-15936.0,4544.0,-320.0
1.6825,-16000.0,4480.0,-320.0
1.685,-15936.0,4480.0,-384.0
1.6875,-15936.0,4480.0,-384.0
1.69,-16000.0,4480.0,-320.0
1.6925,-16000.0,4416.0,-320.0
1.695,-15936.0,4480.0,-320.0
1.6975,-16000.0,4416.0,-320.0
1.7,-15936.0,4416.0,-320.0
1.7025,-15936.0,4480.0,-384.0
1.705,-16000.0,4416.0,-320.0
1.7075,-15936.0,4352.0,-384.0
1.71,-15936.0,4416.0,-320.0
1.7125,-15936.0,4416.0,-384.0
1.715,-16000.0,4416.0,-320.0
1.7175,-16000.0,4416.0,-256.0
1.72,-16000.0,4480.0,-320.0
1.7225,-16000.0,4480.0,-256.0
1.725,-16000.0,4480.0,-256.0
1.7275,-16000.0,4416.0,-256.0
1.73,-15936.0,4480.0,-256.0
1.7325,-15936.0,4480.0,-320.0
1.735,-15936.0,4416.0,-256.0
1.7375,-16000.0,4480.0,-256.0
1.74,-16000.0,4416.0,-256.0
1.7425,-15936.0,4416.0,-256.0
1.745,-15936.0,4480.0,-256.0
1.7475,-15936.0,4480.0,-192.0
1.75,-15936.0,4480.0,-192.0
1.7525,-15936.0,4480.0,-128.0
1.755,-15936.0,4480.0,-192.0
1.7575,-15936.0,4480.0,-192.0
1.76,-16064.0,4416.0,-192.0
1.7625,-16000.0,4416.0,-128.0
1.765,-16128.0,4480.0,-192.0
1.7675,-16128.0,4416.0,-192.0
1.77,-16064.0,4416.0,-192.0
1.7725,-16064.0,4416.0,-256.0
1.775,-16000.0,4416.0,-256.0
1.7775,-16064.0,4480.0,-256.0
1.78,-16064.0,4480.0,-192.0
1.7825,-16064.0,4480.0,-192.0
1.785,-16000.0,4352.0,-192.0
1.7875,-16064.0,4416.0,-192.0
1.79,-16064.0,4416.0,-192.0
1.7925,-16064.0,4480.0,-64.0
1.795,-16064.0,4480.0,-64.0
1.7975,-16064.0,4480.0,-128.0
1.8,-16128.0,4544.0,-128.0
1.8025,-16064.0,4480.0,-192.0
1.805,-16128.0,4480.0,-192.0
1.8075,-16064.0,4480.0,-192.0
1.81,-16064.0,4480.0,-192.0
1.8125,-16000.0,4480.0,-192.0
1.815,-16064.0,4480.0,-128.0
1.8175,-16064.0,4544.0,-256.0
1.82,-16064.0,4480.0,-192.0
1.8225,-16000.0,4480.0,-192.0
1.825,-16000.0,4480.0,-128.0
1.8275,-16064.0,4480.0,-64.0
1.83,-16064.0,4544.0,-128.0
1.8325,-16128.0,4544.0,-64.0
1.835,-16064.0,4544.0,-128.0
1.8375,-16064.0,4544.0,-128.0
1.84,-16064.0,4480.0,-192.0
1.8425,-16128.0,4544.0,-64.0
1.845,-16000.0,4544.0,-128.0
1.8475,-16064.0,4480.0,-64.0
1.85,-16064.0,4480.0,-128.0
1.8525,-16064.0,4480.0,-128.0
1.855,-16064.0,4544.0,-64.0
1.8575,-16064.0,4544.0,-128.0
1.86,-16064.0,4608.0,-64.0
1.8625,-16000.0,4544.0,-128.0
1.865,-16000.0,4608.0,-128.0
1.8675,-16000.0,4544.0,-192.0
1.87,-16000.0,4544.0,-128.0
1.8725,-16064.0,4544.0,-128.0
1.875,-16064.0,4544.0,-192.0
1.8775,-16064.0,4544.0,-192.0
1.88,-16064.0,4544.0,-128.0
1.8825,-16064.0,4544.0,-128.0
1.885,-16000.0,4544.0,-192.0
1.8875,-16128.0,4480.0,-192.0
1.89,-16064.0,4544.0,-192.0
1.8925,-16128.0,4544.0,-128.0
1.895,-16064.0,4608.0,-64.0
1.8975,-16064.0,4608.0,-128.0
1.9,-16064.0,4544.0,-64.0
1.9025,-16064.0,4608.0,-128.0
1.905,-16064.0,4544.0,-128.0
1.9075,-16064.0,4544.0,-128.0
1.91,-16064.0,4544.0,-192.0
1.9125,-16064.0,4608.0,-128.0
1.915,-16064.0,4544.0,-192.0
1.9175,-16064.0,4608.0,-192.0
1.92,-16000.0,4544.0,-256.0
1.9225,-16064.0,4544.0,-192.0
1.925,-16000.0,4544.0,-128.0
1.9275,-16064.0,4544.0,-128.0
1.93,-16064.0,4544.0,-192.0
1.9325,-16000.0,4544.0,-192.0
1.935,-16064.0,4544.0,-192.0
1.9375,-16064.0,4480.0,-128.0
1.94,-16064.0,4544.0,-128.0
1.9425,-16064.0,4544.0,-192.0
1.945,-16064.0,4544.0,-320.0
1.9475,-16000.0,4480.0,-192.0
1.95,-16064.0,4544.0,-128.0
1.9525,-16064.0,4544.0,-128.0
1.955,-16064.0,4544.0,-192.0
1.9575,-16000.0,4544.0,-192.0
1.96,-16000.0,4544.0,-128.0
1.9625,-16000.0,4544.0,-128.0
1.965,-16064.0,4544.0,-128.0
1.9675,-16064.0,4608.0,-128.0
1.97,-16000.0,4544.0,-192.0
1.9725,-16064.0,4544.0,-128.0
1.975,-16064.0,4608.0,-192.0
1.9775,-16064.0,4608.0,-192.0
1.98,-16064.0,4608.0,-192.0
1.9825,-16128.0,4608.0,-192.0
1.985,-16192.0,4608.0,-128.0
1.9875,-16192.0,4608.0,-192.0
1.99,-16128.0,4608.0,-128.0
1.9925,-16128.0,4608.0,-64.0
1.995,-16128.0,4672.0,0.0
1.9975,-16128.0,4608.0,-64.0
2.0,-16128.0,4544.0,-64.0
2.0025,-16128.0,4544.0,-128.0
2.005,-16192.0,4480.0,-192.0
2.0075,-16192.0,4480.0,-192.0
2.01,-16192.0,4480.0,-192.0
2.0125,-16128.0,4480.0,-256.0
2.015,-16192.0,4352.0,-320.0
2.0175,-16128.0,4416.0,-256.0
2.02,-16064.0,4416.0,-320.0
2.0225,-16064.0,4544.0,-320.0
2.025,-16000.0,4480.0,-384.0
2.0275,-16064.0,4480.0,-384.0
2.03,-16064.0,4480.0,-256.0
2.0325,-16064.0,4544.0,-192.0
2.035,-16064.0,4544.0,-192.0
2.0375,-16064.0,4544.0,-192.0
2.04,-16064.0,4544.0,-128.0
2.0425,-16064.0,4544.0,-128.0
2.045,-16128.0,4544.0,-128.0
2.0475,-16064.0,4544.0,-128.0
2.05,-16000.0,4480.0,-64.0
2.0525,-16064.0,4480.0,-128.0
2.055,-16000.0,4416.0,-64.0
2.0575,-15936.0,4480.0,-128.0
2.06,-15872.0,4416.0,-192.0
2.0625,-15872.0,4416.0,-192.0
2.065,-15872.0,4416.0,-256.0
2.0675,-15808.0,4352.0,-192.0
2.07,-15872.0,4352.0,-128.0
2.0725,-15872.0,4288.0,-128.0
2.075,-15808.0,4288.0,-192.0
2.0775,-15808.0,4288.0,-128.0
2.08,-15808.0,4288.0,-256.0
2.0825,-15808.0,4288.0,-256.0
2.085,-15808.0,4288.0,-256.0
2.0875,-15808.0,4224.0,-192.0
2.09,-15808.0,4224.0,-192.0
2.0925,-15808.0,4288.0,-256.0
2.095,-15808.0,4288.0,-320.0
2.0975,-15808.0,4288.0,-256.0
2.1,-15808.0,4288.0,-192.0
2.1025,-15744.0,4224.0,-256.0
2.105,-15744.0,4288.0,-192.0
2.1075,-15808.0,4288.0,-192.0
2.11,-15808.0,4288.0,-256.0
2.1125,-15808.0,4288.0,-256.0
2.115,-15872.0,4288.0,-256.0
2.1175,-15872.0,4288.0,-256.0
2.12,-15872.0,4288.0,-256.0
2.1225,-15872.0,4352.0,-256.0
2.125,-15872.0,4352.0,-192.0
2.1275,-15936.0,4416.0,-256.0
2.13,-15936.0,4416.0,-320.0
2.1325,-16000.0,4416.0,-256.0
2.135,-16000.0,4416.0,-256.0
2.1375,-16000.0,4416.0,-256.0
2.14,-16000.0,4416.0,-320.0
2.1425,-16000.0,4416.0,-320.0
2.145,-16000.0,4416.0,-320.0
2.1475,-16000.0,4416.0,-384.0
2.15,-16064.0,4480.0,-384.0
2.1525,-16064.0,4480.0,-384.0
2.155,-16064.0,4480.0,-384.0
2.1575,-16064.0,4416.0,-448.0
2.16,-16064.0,4480.0,-448.0
2.1625,-16064.0,4480.0,-448.0
2.165,-16000.0,4480.0,-448.0
2.1675,-16064.0,4544.0,-448.0
2.17,-16064.0,4480.0,-448.0
2.1725,-16064.0,4544.0,-384.0
2.175,-16064.0,4480.0,-448.0
2.1775,-16000.0,4480.0,-512.0
2.18,-16064.0,4544.0,-512.0
2.1825,-16064.0,4544.0,-512.0
2.185,-16064.0,4544.0,-512.0
2.1875,-16000.0,4544.0,-512.0
2.19,-16000.0,4544.0,-512.0
2.1925,-16000.0,4544.0,-448.0
2.195,-16128.0,4544.0,-448.0
2.1975,-16064.0,4544.0,-384.0
2.2,-16128.0,4544.0,-384.0
2.2025,-16064.0,4544.0,-448.0
2.205,-16000.0,4480.0,-448.0
2.2075,-16064.0,4480.0,-448.0
2.21,-16000.0,4480.0,-384.0
2.2125,-16000.0,4480.0,-384.0
2.215,-16000.0,4416.0,-384.0
2.2175,-16000.0,4480.0,-384.0
2.22,-15936.0,4416.0,-384.0
2.2225,-15936.0,4480.0,-384.0
2.225,-15936.0,4480.0,-320.0
2.2275,-16000.0,4416.0,-384.0
2.23,-16000.0,4416.0,-320.0
2.2325,-16064.0,4416.0,-320.0
2.235,-16064.0,4480.0,-384.0
2.2375,-16064.0,4544.0,-320.0
2.24,-16000.0,4544.0,-320.0
2.2425,-16000.0,4544.0,-320.0
2.245,-16000.0,4480.0,-320.0
2.2475,-16000.0,4480.0,-256.0
2.25,-16000.0,4416.0,-320.0
2.2525,-16000.0,4416.0,-256.0
2.255,-16000.0,4480.0,-192.0
2.2575,-16000.0,4480.0,-192.0
2.26,-16000.0,4480.0,-192.0
2.2625,-16000.0,4480.0,-192.0
2.265,-16000.0,4480.0,-128.0
2.2675,-16000.0,4480.0,-128.0
2.27,-16000.0,4544.0,-192.0
2.2725,-16000.0,4480.0,-128.0
2.275,-16064.0,4480.0,-128.0
2.2775,-16064.0,4480.0,-128.0
2.28,-16064.0,4480.0,-128.0
2.2825,-16064.0,4480.0,-128.0
2.285,-16128.0,4480.0,-128.0
2.2875,-16064.0,4480.0,-64.0
2.29,-16064.0,4480.0,-128.0
2.2925,-16064.0,4480.0,-64.0
2.295,-16000.0,4416.0,-64.0
2.2975,-16000.0,4416.0,-64.0
2.3,-16000.0,4416.0,-64.0
2.3025,-16000.0,4480.0,-64.0
2.305,-16064.0,4416.0,-128.0
2.3075,-16000.0,4480.0,-64.0
2.31,-16000.0,4544.0,-64.0
2.3125,-16064.0,4480.0,64.0
2.315,-16000.0,4480.0,0.0
2.3175,-16064.0,4480.0,0.0
2.32,-16000.0,4544.0,64.0
2.3225,-15936.0,4480.0,64.0
2.325,-16000.0,4480.0,0.0
2.3275,-16000.0,4544.0,64.0
2.33,-16000.0,4480.0,128.0
2.3325,-15936.0,4480.0,192.0
2.335,-15936.0,4480.0,128.0
2.3375,-16000.0,4480.0,128.0
2.34,-16000.0,4480.0,128.0
2.3425,-15936.0,4480.0,192.0
2.345,-15936.0,4544.0,128.0
2.3475,-16000.0,4480.0,64.0
2.35,-15936.0,4480.0,128.0
2.3525,-15936.0,4480.0,192.0
2.355,-15936.0,4480.0,256.0
2.3575,-15936.0,4480.0,192.0
2.36,-15936.0,4480.0,192.0
2.3625,-16000.0,4416.0,192.0
2.365,-16000.0,4416.0,192.0
2.3675,-15872.0,4480.0,192.0
2.37,-15936.0,4480.0,128.0
2.3725,-15936.0,4480.0,128.0
2.375,-15936.0,4416.0,128.0
2.3775,-15936.0,4416.0,128.0
2.38,-15936.0,4416.0,192.0
2.3825,-15936.0,4352.0,128.0
2.385,-15872.0,4416.0,192.0
2.3875,-15936.0,4352.0,192.0
2.39,-15872.0,4416.0,128.0
2.3925,-15872.0,4416.0,128.0
2.395,-15936.0,4416.0,64.0
2.3975,-15936.0,4352.0,128.0
2.4,-15872.0,4416.0,128.0
2.4025,-15872.0,4352.0,64.0
2.405,-15872.0,4480.0,128.0
2.4075,-15872.0,4480.0,192.0
2.41,-15936.0,4480.0,192.0
2.4125,-15936.0,4416.0,128.0
2.415,-15936.0,4416.0,128.0
2.4175,-16000.0,4416.0,128.0
2.42,-16000.0,4416.0,128.0
2.4225,-15936.0,4416.0,128.0
2.425,-15872.0,4352.0,64.0
2.4275,-15936.0,4416.0,64.0
2.43,-15936.0,4480.0,64.0
2.4325,-16000.0,4416.0,0.0
2.435,-16064.0,4352.0,0.0
2.4375,-16128.0,4352.0,0.0
2.44,-16064.0,4352.0,-64.0
2.4425,-16000.0,4352.0,0.0
2.445,-16064.0,4416.0,64.0
2.4475,-16064.0,4416.0,64.0
2.45,-16064.0,4416.0,64.0
2.4525,-16064.0,4416.0,0.0
2.455,-16128.0,4352.0,-64.0
2.4575,-16064.0,4352.0,-64.0
2.46,-16000.0,4288.0,-64.0
2.4625,-16064.0,4352.0,-64.0
2.465,-16064.0,4352.0,-64.0
2.4675,-16128.0,4416.0,-128.0
2.47,-16128.0,4416.0,-128.0
2.4725,-16128.0,4416.0,-64.0
2.475,-16192.0,4416.0,-128.0
2.4775,-16192.0,4416.0,-192.0
2.48,-16128.0,4352.0,-192.0
2.4825,-16128.0,4352.0,-128.0
2.485,-16192.0,4352.0,-192.0
2.4875,-16192.0,4352.0,-192.0
2.49,-16128.0,4416.0,-128.0
2.4925,-16128.0,4416.0,-128.0
2.495,-16128.0,4352.0,-256.0
2.4975,-16128.0,4352.0,-192.0
2.5,-16128.0,4288.0,-128.0
2.5025,-16064.0,4224.0,-192.0
2.505,-16064.0,4288.0,-192.0
2.5075,-16064.0,4224.0,-128.0
2.51,-16064.0,4288.0,-192.0
2.5125,-16064.0,4288.0,-192.0
2.515,-16064.0,4224.0,-192.0
2.5175,-16000.0,4352.0,-320.0
2.52,-16064.0,4288.0,-256.0
2.5225,-16000.0,4224.0,-192.0
2.525,-16064.0,4288.0,-320.0
2.5275,-16000.0,4288.0,-320.0
2.53,-15936.0,4224.0,-256.0
2.5325,-16000.0,4224.0,-256.0
2.535,-15936.0,4224.0,-256.0
2.5375,-15936.0,4288.0,-320.0
2.54,-16000.0,4288.0,-320.0
2.5425,-16000.0,4288.0,-256.0
2.545,-16000.0,4288.0,-256.0
2.5475,-16000.0,4352.0,-256.0
2.55,-16000.0,4352.0,-320.0
2.5525,-16000.0,4288.0,-320.0
2.555,-16064.0,4288.0,-320.0
2.5575,-15936.0,4160.0,-320.0
2.56,-15936.0,4288.0,-320.0
2.5625,-15936.0,4288.0,-320.0
2.565,-15936.0,4352.0,-320.0
2.5675,-16064.0,4352.0,-256.0
2.57,-16000.0,4288.0,-256.0
2.5725,-16000.0,4288.0,-256.0
2.575,-16000.0,4224.0,-256.0
2.5775,-16000.0,4288.0,-256.0
2.58,-16064.0,4288.0,-320.0
2.5825,-16064.0,4224.0,-320.0
2.585,-16000.0,4224.0,-384.0
2.5875,-16000.0,4224.0,-384.0
2.59,-15872.0,4288.0,-384.0
2.5925,-15872.0,4288.0,-384.0
2.595,-15936.0,4224.0,-448.0
2.5975,-15936.0,4288.0,-384.0
2.6,-15936.0,4352.0,-384.0
2.6025,-15936.0,4416.0,-384.0
2.605,-15936.0,4416.0,-384.0
2.6075,-15936.0,4480.0,-384.0
2.61,-15936.0,4544.0,-320.0
2.6125,-16000.0,4544.0,-384.0
2.615,-16064.0,4544.0,-384.0
2.6175,-16000.0,4480.0,-384.0
2.62,-16000.0,4544.0,-384.0
2.6225,-15936.0,4480.0,-320.0
2.625,-16000.0,4480.0,-320.0
2.6275,-16000.0,4480.0,-256.0
2.63,-16064.0,4480.0,-320.0
2.6325,-15936.0,4480.0,-256.0
2.635,-15936.0,4416.0,-256.0
2.6375,-15936.0,4416.0,-320.0
2.64,-15936.0,4352.0,-256.0
2.6425,-15936.0,4288.0,-256.0
2.645,-15936.0,4288.0,-320.0
2.6475,-15936.0,4352.0,-320.0
2.65,-16000.0,4352.0,-320.0
2.6525,-15936.0,4288.0,-384.0
2.655,-15936.0,4352.0,-384.0
2.6575,-15936.0,4352.0,-320.0
2.66,-15936.0,4352.0,-256.0
2.6625,-15936.0,4288.0,-320.0
2.665,-15872.0,4352.0,-256.0
2.6675,-16000.0,4352.0,-192.0
2.67,-15936.0,4352.0,-128.0
2.6725,-15936.0,4416.0,-192.0
2.675,-15936.0,4352.0,-192.0
2.6775,-15936.0,4288.0,-192.0
2.68,-15936.0,4352.0,-128.0
2.6825,-15936.0,4352.0,-128.0
2.685,-15936.0,4416.0,-192.0
2.6875,-15936.0,4352.0,-128.0
2.69,-15936.0,4352.0,-128.0
2.6925,-15936.0,4288.0,-64.0
2.695,-15936.0,4352.0,-64.0
2.6975,-15936.0,4416.0,-128.0
2.7,-16000.0,4416.0,-128.0
2.7025,-15936.0,4352.0,-128.0
2.705,-15936.0,4352.0,-128.0
2.7075,-15936.0,4416.0,-128.0
2.71,-15936.0,4416.0,-128.0
2.7125,-15936.0,4416.0,-64.0
2.715,-15936.0,4416.0,0.0
2.7175,-15936.0,4416.0,-64.0
2.72,-16000.0,4416.0,64.0
2.7225,-15936.0,4416.0,0.0
2.725,-15936.0,4416.0,0.0
2.7275,-15872.0,4416.0,0.0
2.73,-15936.0,4480.0,64.0
2.7325,-15872.0,4480.0,0.0
2.735,-15936.0,4480.0,0.0
2.7375,-15936.0,4480.0,-64.0
2.74,-15872.0,4416.0,0.0
2.7425,-15872.0,4416.0,0.0
2.745,-15872.0,4480.0,0.0
2.7475,-15936.0,4480.0,0.0
2.75,-15936.0,4608.0,0.0
2.7525,-15936.0,4544.0,-64.0
2.755,-16000.0,4544.0,64.0
2.7575,-15936.0,4480.0,-64.0
2.76,-15936.0,4544.0,0.0
2.7625,-15872.0,4544.0,0.0
2.765,-15872.0,4544.0,-64.0
2.7675,-15936.0,4480.0,0.0
2.77,-15936.0,4480.0,0.0
2.7725,-15936.0,4544.0,0.0
2.775,-15936.0,4480.0,0.0
2.7775,-15936.0,4480.0,64.0
2.78,-15872.0,4544.0,64.0
2.7825,-15936.0,4544.0,64.0
2.785,-16000.0,4480.0,64.0
2.7875,-16000.0,4544.0,128.0
2.79,-16000.0,4480.0,128.0
2.7925,-16000.0,4480.0,64.0
2.795,-16064.0,4416.0,0.0
2.7975,-16000.0,4480.0,64.0
2.8,-16000.0,4480.0,0.0
2.8025,-16064.0,4480.0,64.0
2.805,-16000.0,4480.0,128.0
2.8075,-16000.0,4480.0,64.0
2.81,-16000.0,4480.0,64.0
2.8125,-16000.0,4480.0,64.0
2.815,-16000.0,4416.0,64.0
2.8175,-16000.0,4416.0,128.0
2.82,-16000.0,4416.0,128.0
2.8225,-15936.0,4416.0,128.0
2.825,-15936.0,4416.0,128.0
2.8275,-15936.0,4416.0,128.0
2.83,-15936.0,4416.0,128.0
2.8325,-15872.0,4352.0,128.0
2.835,-15872.0,4416.0,64.0
2.8375,-15872.0,4352.0,128.0
2.84,-15872.0,4416.0,128.0
2.8425,-15936.0,4416.0,64.0
2.845,-15936.0,4416.0,128.0
2.8475,-15936.0,4416.0,128.0
2.85,-15872.0,4416.0,192.0
2.8525,-15936.0,4480.0,64.0
2.855,-15936.0,4480.0,64.0
2.8575,-15936.0,4416.0,64.0
2.86,-15936.0,4416.0,128.0
2.8625,-15936.0,4416.0,64.0
2.865,-16000.0,4416.0,128.0
2.8675,-15936.0,4416.0,128.0
2.87,-15936.0,4416.0,128.0
2.8725,-15936.0,4416.0,128.0
2.875,-15936.0,4480.0,192.0
2.8775,-15936.0,4480.0,128.0
2.88,-15936.0,4480.0,192.0
2.8825,-15936.0,4416.0,128.0
2.885,-15936.0,4480.0,192.0
2.8875,-15872.0,4544.0,128.0
2.89,-15936.0,4544.0,128.0
2.8925,-15936.0,4544.0,128.0
2.895,-15936.0,4416.0,128.0
2.8975,-15936.0,4416.0,192.0
2.9,-15936.0,4480.0,192.0
2.9025,-15936.0,4480.0,128.0
2.905,-15936.0,4480.0,192.0
2.9075,-15936.0,4416.0,128.0
2.91,-15936.0,4416.0,192.0
2.9125,-16000.0,4416.0,192.0
2.915,-15936.0,4480.0,192.0
2.9175,-15936.0,4416.0,128.0
2.92,-15936.0,4416.0,128.0
2.9225,-15872.0,4416.0,128.0
2.925,-15936.0,4416.0,64.0
2.9275,-15808.0,4416.0,64.0
2.93,-15872.0,4416.0,64.0
2.9325,-15872.0,4416.0,64.0
2.935,-15936.0,4352.0,64.0
2.9375,-15936.0,4352.0,64.0
2.94,-15872.0,4416.0,0.0
2.9425,-15936.0,4416.0,64.0
2.945,-15936.0,4480.0,64.0
2.9475,-15936.0,4416.0,0.0
2.95,-15936.0,4416.0,0.0
2.9525,-15936.0,4416.0,0.0
2.955,-15936.0,4416.0,0.0
2.9575,-15936.0,4352.0,0.0
2.96,-16000.0,4416.0,128.0
2.9625,-16000.0,4416.0,64.0
2.965,-16000.0,4416.0,64.0
2.9675,-16064.0,4416.0,64.0
2.97,-16064.0,4352.0,0.0
2.9725,-16000.0,4416.0,-64.0
2.975,-16000.0,4352.0,0.0
2.9775,-16000.0,4416.0,0.0
2.98,-16000.0,4480.0,-64.0
2.9825,-16000.0,4416.0,-64.0
2.985,-16000.0,4416.0,-64.0
2.9875,-16000.0,4416.0,-64.0
2.99,-16000.0,4416.0,-64.0
2.9925,-16064.0,4352.0,-64.0
2.995,-16000.0,4352.0,-64.0
2.9975,-16000.0,4352.0,-128.0
3.0,-16000.0,4416.0,-64.0
3.0025,-16000.0,4416.0,-64.0
3.005,-16000.0,4416.0,-128.0
3.0075,-15936.0,4416.0,-128.0
3.01,-16000.0,4416.0,-128.0
3.0125,-15936.0,4416.0,-128.0
3.015,-16000.0,4352.0,-64.0
3.0175,-16000.0,4416.0,-128.0
3.02,-15936.0,4416.0,-128.0
3.0225,-15936.0,4416.0,-128.0
3.025,-16000.0,4416.0,-128.0
3.0275,-16064.0,4352.0,-128.0
3.03,-16064.0,4416.0,-128.0
3.0325,-16064.0,4416.0,-128.0
3.035,-16000.0,4352.0,-128.0
3.0375,-16064.0,4352.0,-128.0
3.04,-16064.0,4416.0,-256.0
3.0425,-16064.0,4352.0,-192.0
3.045,-16064.0,4352.0,-192.0
3.0475,-16000.0,4416.0,-128.0
3.05,-16064.0,4416.0,-192.0
3.0525,-16064.0,4352.0,-192.0
3.055,-16000.0,4352.0,-256.0
3.0575,-15936.0,4352.0,-192.0
3.06,-16000.0,4416.0,-192.0
3.0625,-16000.0,4480.0,-128.0
3.065,-15936.0,4416.0,-192.0
3.0675,-16000.0,4416.0,-192.0
3.07,-16000.0,4416.0,-128.0
3.0725,-16000.0,4416.0,-192.0
3.075,-15936.0,4352.0,-64.0
3.0775,-15936.0,4416.0,-64.0
3.08,-15936.0,4352.0,-128.0
3.0825,-15936.0,4352.0,-128.0
3.085,-15936.0,4288.0,-128.0
3.0875,-16000.0,4288.0,-128.0
3.09,-15936.0,4288.0,-192.0
3.0925,-15936.0,4352.0,-192.0
3.095,-15936.0,4352.0,-192.0
3.0975,-15936.0,4288.0,-192.0
3.1,-15936.0,4288.0,-192.0
3.1025,-15936.0,4288.0,-128.0
3.105,-16000.0,4352.0,-256.0
3.1075,-16000.0,4352.0,-256.0
3.11,-16000.0,4416.0,-192.0
3.1125,-16000.0,4352.0,-256.0
3.115,-16064.0,4352.0,-256.0
3.1175,-16000.0,4416.0,-256.0
3.12,-16000.0,4352.0,-64.0
3.1225,-16000.0,4352.0,-128.0
3.125,-15936.0,4352.0,-64.0
3.1275,-16000.0,4352.0,-192.0
3.13,-16000.0,4352.0,-128.0
3.1325,-16000.0,4288.0,-192.0
3.135,-16000.0,4352.0,-128.0
3.1375,-16000.0,4288.0,-192.0
3.14,-16000.0,4288.0,-192.0
3.1425,-15936.0,4288.0,-192.0
3.145,-15936.0,4288.0,-192.0
3.1475,-16000.0,4288.0,-192.0
3.15,-16000.0,4352.0,-192.0
3.1525,-15936.0,4352.0,-192.0
3.155,-16000.0,4352.0,-128.0
3.1575,-16000.0,4416.0,-192.0
3.16,-16000.0,4352.0,-192.0
3.1625,-16000.0,4416.0,-192.0
3.165,-16064.0,4416.0,-128.0
3.1675,-16064.0,4416.0,-64.0
3.17,-16064.0,4416.0,-128.0
3.1725,-16000.0,4416.0,-64.0
3.175,-16128.0,4352.0,-64.0
3.1775,-16064.0,4416.0,-128.0
3.18,-16000.0,4352.0,-128.0
3.1825,-16064.0,4352.0,-128.0
3.185,-16000.0,4352.0,-64.0
3.1875,-16000.0,4352.0,-64.0
3.19,-16000.0,4352.0,-64.0
3.1925,-16064.0,4288.0,-64.0
3.195,-16064.0,4352.0,-64.0
3.1975,-16064.0,4288.0,-128.0
3.2,-16000.0,4288.0,-64.0
3.2025,-16064.0,4288.0,-128.0
3.205,-16064.0,4288.0,-192.0
3.2075,-16000.0,4224.0,-192.0
3.21,-16000.0,4288.0,-128.0
3.2125,-16000.0,4224.0,-192.0
3.215,-16000.0,4224.0,-192.0
3.2175,-16000.0,4224.0,-192.0
3.22,-16064.0,4288.0,-192.0
3.2225,-16064.0,4224.0,-192.0
3.225,-16064.0,4288.0,-192.0
3.2275,-16064.0,4288.0,-128.0
3.23,-16064.0,4288.0,-128.0
3.2325,-16000.0,4288.0,-128.0
3.235,-16064.0,4288.0,-64.0
3.2375,-16064.0,4288.0,-128.0
3.24,-16000.0,4288.0,-192.0
3.2425,-16128.0,4352.0,-64.0
3.245,-16064.0,4352.0,-64.0
3.2475,-16064.0,4288.0,-128.0
3.25,-16128.0,4288.0,-128.0
3.2525,-16064.0,4352.0,0.0
3.255,-16064.0,4352.0,-64.0
3.2575,-16064.0,4352.0,-128.0
3.26,-16064.0,4352.0,-64.0
3.2625,-16064.0,4288.0,-128.0
3.265,-16064.0,4288.0,-128.0
3.2675,-16192.0,4352.0,-128.0
3.27,-16128.0,4352.0,-64.0
3.2725,-16128.0,4352.0,-64.0
3.275,-16064.0,4352.0,0.0
3.2775,-16064.0,4288.0,-128.0
3.28,-16128.0,4352.0,-64.0
3.2825,-16128.0,4352.0,-64.0
3.285,-16128.0,4288.0,-128.0
3.2875,-16064.0,4288.0,-64.0
3.29,-16064.0,4288.0,-64.0
3.2925,-16128.0,4352.0,-128.0
3.295,-16128.0,4352.0,-64.0
3.2975,-16128.0,4352.0,-64.0
3.3,-16128.0,4288.0,-64.0
3.3025,-16128.0,4288.0,-128.0
3.305,-16064.0,4288.0,-192.0
3.3075,-16128.0,4288.0,-128.0
3.31,-16128.0,4224.0,-128.0
3.3125,-16128.0,4224.0,-192.0
3.315,-16128.0,4288.0,-128.0
3.3175,-16128.0,4352.0,-128.0
3.32,-16128.0,4352.0,-192.0
3.3225,-16192.0,4352.0,-128.0
3.325,-16128.0,4352.0,-128.0
3.3275,-16128.0,4352.0,-192.0
3.33,-16128.0,4352.0,-192.0
3.3325,-16128.0,4352.0,-128.0
3.335,-16192.0,4352.0,-64.0
3.3375,-16128.0,4288.0,-64.0
3.34,-16192.0,4352.0,-64.0
3.3425,-16128.0,4416.0,-64.0
3.345,-16192.0,4352.0,-128.0
3.3475,-16192.0,4352.0,-128.0
3.35,-16128.0,4352.0,-128.0
3.3525,-16128.0,4352.0,-64.0
3.355,-16128.0,4352.0,-128.0
3.3575,-16064.0,4416.0,-128.0
3.36,-16064.0,4416.0,-128.0
3.3625,-16128.0,4416.0,-128.0
3.365,-16128.0,4416.0,-64.0
3.3675,-16128.0,4416.0,-128.0
3.37,-16064.0,4352.0,-64.0
3.3725,-16064.0,4416.0,-64.0
3.375,-16064.0,4416.0,-64.0
3.3775,-16064.0,4352.0,-128.0
3.38,-16000.0,4352.0,-128.0
3.3825,-15936.0,4352.0,-64.0
3.385,-15936.0,4288.0,-128.0
3.3875,-15936.0,4288.0,-128.0
3.39,-16000.0,4416.0,-64.0
3.3925,-15936.0,4352.0,-128.0
3.395,-15936.0,4352.0,0.0
3.3975,-15936.0,4288.0,-128.0
3.4,-16000.0,4352.0,-64.0
3.4025,-16000.0,4352.0,0.0
3.405,-15936.0,4288.0,0.0
3.4075,-15936.0,4352.0,-64.0
3.41,-15872.0,4352.0,-128.0
3.4125,-15872.0,4352.0,-128.0
3.415,-15872.0,4352.0,-128.0
3.4175,-15936.0,4352.0,-128.0
3.42,-15936.0,4416.0,-64.0
3.4225,-15936.0,4352.0,-128.0
3.425,-15872.0,4352.0,-64.0
3.4275,-15872.0,4352.0,-64.0
3.43,-15936.0,4352.0,-64.0
3.4325,-16000.0,4416.0,0.0
3.435,-15936.0,4480.0,0.0
3.4375,-15936.0,4416.0,0.0
3.44,-15936.0,4480.0,0.0
3.4425,-15872.0,4544.0,-64.0
3.445,-15808.0,4480.0,-64.0
3.4475,-15872.0,4480.0,-128.0
3.45,-15872.0,4480.0,-128.0
3.4525,-15936.0,4544.0,-64.0
3.455,-15936.0,4544.0,-128.0
3.4575,-16000.0,4544.0,-128.0
3.46,-16000.0,4544.0,-128.0
3.4625,-15936.0,4544.0,-64.0
3.465,-15936.0,4480.0,0.0
3.4675,-16000.0,4480.0,-64.0
3.47,-16000.0,4544.0,-64.0
3.4725,-16000.0,4480.0,0.0
3.475,-16000.0,4416.0,0.0
3.4775,-16000.0,4480.0,-64.0
3.48,-16000.0,4416.0,-128.0
3.4825,-16000.0,4480.0,-64.0
3.485,-16000.0,4416.0,-64.0
3.4875,-16000.0,4416.0,0.0
3.49,-15936.0,4480.0,-64.0
3.4925,-15872.0,4480.0,-192.0
3.495,-15936.0,4416.0,-128.0
3.4975,-15872.0,4480.0,-128.0
3.5,-15872.0,4480.0,-128.0
3.5025,-15872.0,4480.0,-128.0
3.505,-15936.0,4416.0,-192.0
3.5075,-15872.0,4480.0,-128.0
3.51,-15872.0,4416.0,-192.0
3.5125,-15872.0,4480.0,-192.0
3.515,-15936.0,4480.0,-128.0
3.5175,-15872.0,4480.0,-256.0
3.52,-15872.0,4480.0,-128.0
3.5225,-15872.0,4480.0,-64.0
3.525,-15872.0,4416.0,-128.0
3.5275,-15872.0,4352.0,-256.0
3.53,-15872.0,4352.0,-256.0
3.5325,-15936.0,4416.0,-192.0
3.535,-15936.0,4416.0,-192.0
3.5375,-15936.0,4480.0,-192.0
3.54,-15872.0,4416.0,-192.0
3.5425,-15872.0,4416.0,-192.0
3.545,-15872.0,4352.0,-256.0
3.5475,-15936.0,4416.0,-192.0
3.55,-15936.0,4416.0,-128.0
3.5525,-15936.0,4416.0,-128.0
3.555,-15872.0,4352.0,-192.0
3.5575,-15936.0,4352.0,-128.0
3.56,-16000.0,4352.0,-128.0
3.5625,-15936.0,4288.0,-128.0
3.565,-15936.0,4288.0,-192.0
3.5675,-15936.0,4288.0,-128.0
3.57,-15936.0,4288.0,-192.0
3.5725,-15936.0,4288.0,-256.0
3.575,-15936.0,4224.0,-256.0
3.5775,-15936.0,4224.0,-256.0
3.58,-15936.0,4224.0,-192.0
3.5825,-15936.0,4288.0,-256.0
3.585,-16000.0,4288.0,-256.0
3.5875,-16000.0,4288.0,-256.0
3.59,-16000.0,4352.0,-256.0
3.5925,-16000.0,4352.0,-256.0
3.595,-16000.0,4416.0,-192.0
3.5975,-16000.0,4352.0,-192.0
3.6,-16000.0,4416.0,-192.0
3.6025,-16000.0,4480.0,-128.0
3.605,-16000.0,4480.0,-128.0
3.6075,-16000.0,4480.0,-128.0
3.61,-16000.0,4544.0,-64.0
3.6125,-16000.0,4544.0,-128.0
3.615,-16000.0,4608.0,-64.0
3.6175,-16000.0,4608.0,-128.0
3.62,-16064.0,4544.0,-128.0
3.6225,-16064.0,4608.0,-128.0
3.625,-16000.0,4608.0,-192.0
3.6275,-16000.0,4608.0,-192.0
3.63,-16000.0,4608.0,-128.0
3.6325,-16064.0,4608.0,-128.0
3.635,-16000.0,4544.0,-128.0
3.6375,-16064.0,4544.0,-128.0
3.64,-16000.0,4480.0,-128.0
3.6425,-16064.0,4544.0,-128.0
3.645,-16128.0,4544.0,-192.0
3.6475,-16064.0,4544.0,-256.0
3.65,-16064.0,4608.0,-256.0
3.6525,-16128.0,4544.0,-320.0
3.655,-16064.0,4480.0,-320.0
3.6575,-16064.0,4480.0,-320.0
3.66,-16128.0,4480.0,-320.0
3.6625,-16064.0,4480.0,-320.0
3.665,-16128.0,4480.0,-320.0
3.6675,-16064.0,4544.0,-320.0
3.67,-16128.0,4480.0,-320.0
3.6725,-16128.0,4480.0,-320.0
3.675,-16064.0,4544.0,-320.0
3.6775,-16128.0,4544.0,-320.0
3.68,-16192.0,4480.0,-256.0
3.6825,-16128.0,4480.0,-192.0
3.685,-16128.0,4416.0,-192.0
3.6875,-16128.0,4352.0,-256.0
3.69,-16128.0,4352.0,-256.0
3.6925,-16128.0,4352.0,-256.0
3.695,-16128.0,4288.0,-192.0
3.6975,-16128.0,4352.0,-320.0
3.7,-16064.0,4352.0,-320.0
3.7025,-16064.0,4352.0,-320.0
3.705,-16000.0,4352.0,-256.0
3.7075,-16064.0,4352.0,-320.0
3.71,-16128.0,4352.0,-384.0
3.7125,-16064.0,4352.0,-320.0
3.715,-16128.0,4352.0,-384.0
3.7175,-16064.0,4416.0,-320.0
3.72,-16192.0,4480.0,-256.0
3.7225,-16128.0,4416.0,-256.0
3.725,-16128.0,4416.0,-256.0
3.7275,-16128.0,4544.0,-256.0
3.73,-16128.0,4544.0,-192.0
3.7325,-16128.0,4544.0,-192.0
3.735,-16064.0,4544.0,-256.0
3.7375,-16064.0,4544.0,-192.0
3.74,-16128.0,4480.0,-192.0
3.7425,-16128.0,4480.0,-192.0
3.745,-16128.0,4480.0,-128.0
3.7475,-16128.0,4416.0,-192.0
3.75,-16128.0,4416.0,-192.0
3.7525,-16064.0,4352.0,-128.0
3.755,-16064.0,4352.0,-128.0
3.7575,-16064.0,4352.0,-192.0
3.76,-16064.0,4288.0,-192.0
3.7625,-16064.0,4288.0,-192.0
3.765,-16064.0,4288.0,-192.0
3.7675,-16000.0,4288.0,-192.0
3.77,-16064.0,4224.0,-192.0
3.7725,-16064.0,4288.0,-192.0
3.775,-16064.0,4352.0,-192.0
3.7775,-16000.0,4352.0,-192.0
3.78,-16000.0,4352.0,-256.0
3.7825,-15936.0,4352.0,-192.0
3.785,-15936.0,4288.0,-128.0
3.7875,-15936.0,4288.0,-192.0
3.79,-15872.0,4288.0,-128.0
3.7925,-15936.0,4288.0,-128.0
3.795,-15872.0,4352.0,-128.0
3.7975,-15936.0,4352.0,-64.0
3.8,-15936.0,4352.0,-64.0
3.8025,-15936.0,4352.0,-64.0
3.805,-15872.0,4352.0,-64.0
3.8075,-15936.0,4352.0,-64.0
3.81,-15936.0,4288.0,-64.0
3.8125,-15872.0,4352.0,-64.0
3.815,-15936.0,4352.0,-64.0
3.8175,-16000.0,4288.0,-128.0
3.82,-16000.0,4288.0,-128.0
3.8225,-16064.0,4288.0,-192.0
3.825,-16064.0,4288.0,-192.0
3.8275,-16064.0,4288.0,-128.0
3.83,-16064.0,4288.0,-192.0
3.8325,-16064.0,4288.0,-256.0
3.835,-16128.0,4352.0,-256.0
3.8375,-16064.0,4224.0,-192.0
3.84,-16128.0,4288.0,-192.0
3.8425,-16192.0,4224.0,-128.0
3.845,-16128.0,4160.0,-128.0
3.8475,-16192.0,4224.0,-128.0
3.85,-16192.0,4288.0,-192.0
3.8525,-16128.0,4224.0,-256.0
3.855,-16128.0,4224.0,-192.0
3.8575,-16128.0,4288.0,-192.0
3.86,-16128.0,4224.0,-192.0
3.8625,-16128.0,4224.0,-256.0
3.865,-16192.0,4224.0,-320.0
3.8675,-16192.0,4288.0,-320.0
3.87,-16128.0,4288.0,-256.0
3.8725,-16128.0,4352.0,-192.0
3.875,-16128.0,4288.0,-256.0
3.8775,-16192.0,4352.0,-256.0
3.88,-16128.0,4352.0,-192.0
3.8825,-16064.0,4480.0,-192.0
3.885,-16128.0,4480.0,-64.0
3.8875,-16064.0,4480.0,-64.0
3.89,-16064.0,4416.0,-64.0
3.8925,-16000.0,4480.0,-64.0
3.895,-16000.0,4416.0,-128.0
3.8975,-16000.0,4480.0,-64.0
3.9,-16000.0,4544.0,-64.0
3.9025,-15936.0,4544.0,-64.0
3.905,-15936.0,4480.0,-128.0
3.9075,-15936.0,4480.0,-128.0
3.91,-15936.0,4416.0,-192.0
3.9125,-15936.0,4480.0,-128.0
3.915,-16000.0,4480.0,-256.0
3.9175,-16000.0,4416.0,-192.0
3.92,-16000.0,4416.0,-192.0
3.9225,-16000.0,4416.0,-192.0
3.925,-16064.0,4416.0,-128.0
3.9275,-16000.0,4480.0,-128.0
3.93,-16064.0,4480.0,-128.0
3.9325,-16064.0,4480.0,-192.0
3.935,-16000.0,4544.0,-128.0
3.9375,-16000.0,4480.0,-128.0
3.94,-16000.0,4480.0,-128.0
3.9425,-16064.0,4416.0,-64.0
3.945,-16000.0,4480.0,-64.0
3.9475,-16064.0,4480.0,-64.0
3.95,-16000.0,4480.0,-128.0
3.9525,-16064.0,4544.0,-192.0
3.955,-16000.0,4544.0,-128.0
3.9575,-16000.0,4544.0,-128.0
3.96,-15936.0,4480.0,-64.0
3.9625,-16000.0,4480.0,-64.0
3.965,-16000.0,4544.0,-64.0
3.9675,-16000.0,4544.0,-64.0
3.97,-16000.0,4480.0,0.0
3.9725,-16064.0,4544.0,64.0
3.975,-16000.0,4480.0,0.0
3.9775,-16064.0,4480.0,-64.0
3.98,-16000.0,4544.0,-64.0
3.9825,-16000.0,4544.0,0.0
3.985,-16000.0,4544.0,0.0
3.9875,-16064.0,4544.0,0.0
3.99,-16000.0,4480.0,0.0
3.9925,-16064.0,4480.0,-64.0
3.995,-16064.0,4416.0,-64.0
3.9975,-16064.0,4480.0,0.0
4.0,-16064.0,4480.0,0.0
4.0025,-16000.0,4480.0,0.0
4.005,-16000.0,4416.0,0.0
4.0075,-16064.0,4480.0,64.0
4.01,-16064.0,4480.0,-64.0
4.0125,-16064.0,4416.0,-64.0
4.015,-16064.0,4416.0,0.0
4.0175,-16064.0,4480.0,64.0
4.02,-16000.0,4416.0,0.0
4.0225,-16064.0,4416.0,0.0
4.025,-16000.0,4416.0,0.0
4.0275,-16000.0,4480.0,0.0
4.03,-16064.0,4416.0,-64.0
4.0325,-16064.0,4416.0,0.0
4.035,-16064.0,4416.0,64.0
4.0375,-16064.0,4416.0,64.0
4.04,-16000.0,4352.0,0.0
4.0425,-16000.0,4352.0,0.0
4.045,-16064.0,4352.0,-64.0
4.0475,-16128.0,4352.0,-64.0
4.05,-16064.0,4416.0,-128.0
4.0525,-16000.0,4288.0,0.0
4.055,-16064.0,4352.0,-64.0
4.0575,-16064.0,4352.0,-128.0
4.06,-16000.0,4288.0,-64.0
4.0625,-16000.0,4224.0,-64.0
4.065,-16000.0,4224.0,-128.0
4.0675,-16000.0,4288.0,-128.0
4.07,-16000.0,4224.0,-64.0
4.0725,-16000.0,4288.0,-192.0
4.075,-16000.0,4352.0,-128.0
4.0775,-16000.0,4288.0,-128.0
4.08,-16000.0,4288.0,-64.0
4.0825,-16000.0,4288.0,-64.0
4.085,-16064.0,4288.0,-192.0
4.0875,-16064.0,4352.0,-192.0
4.09,-16064.0,4352.0,-192.0
4.0925,-16128.0,4352.0,-128.0
4.095,-16128.0,4416.0,-128.0
4.0975,-16128.0,4416.0,-128.0
4.1,-16128.0,4352.0,-128.0
4.1025,-16128.0,4352.0,-128.0
4.105,-16064.0,4352.0,-128.0
4.1075,-16128.0,4416.0,-128.0
4.11,-16064.0,4416.0,-128.0
4.1125,-16064.0,4352.0,-64.0
4.115,-16128.0,4352.0,-128.0
4.1175,-16064.0,4352.0,-128.0
4.12,-16128.0,4352.0,-64.0
4.1225,-16128.0,4416.0,-64.0
4.125,-16064.0,4352.0,-64.0
4.1275,-16064.0,4352.0,-128.0
4.13,-16064.0,4288.0,-64.0
4.1325,-16000.0,4288.0,-64.0
4.135,-16000.0,4352.0,-128.0
4.1375,-16000.0,4352.0,-128.0
4.14,-16000.0,4352.0,-64.0
4.1425,-16064.0,4352.0,-128.0
4.145,-16064.0,4288.0,-192.0
4.1475,-16000.0,4352.0,-192.0
4.15,-16064.0,4352.0,-256.0
4.1525,-16064.0,4352.0,-192.0
4.155,-16064.0,4416.0,-128.0
4.1575,-16000.0,4416.0,-192.0
4.16,-16128.0,4416.0,-192.0
4.1625,-16128.0,4416.0,-192.0
4.165,-16064.0,4480.0,-192.0
4.1675,-16064.0,4480.0,-128.0
4.17,-16000.0,4480.0,-192.0
4.1725,-16064.0,4416.0,-192.0
4.175,-16064.0,4352.0,-128.0
4.1775,-16064.0,4416.0,-128.0
4.18,-16000.0,4480.0,-128.0
4.1825,-16064.0,4480.0,-128.0
4.185,-16064.0,4416.0,-128.0
4.1875,-16064.0,4480.0,-128.0
4.19,-16064.0,4480.0,-192.0
4.1925,-16128.0,4480.0,-192.0
4.195,-16128.0,4480.0,-192.0
4.1975,-16064.0,4480.0,-192.0
4.2,-16128.0,4480.0,-128.0
4.2025,-16128.0,4544.0,-128.0
4.205,-16064.0,4544.0,-192.0
4.2075,-16064.0,4480.0,-192.0
4.21,-16064.0,4480.0,-192.0
4.2125,-16128.0,4480.0,-192.0
4.215,-16128.0,4480.0,-192.0
4.2175,-16128.0,4480.0,-256.0
4.22,-16128.0,4416.0,-192.0
4.2225,-16128.0,4480.0,-192.0
4.225,-16064.0,4480.0,-256.0
4.2275,-16128.0,4480.0,-256.0
4.23,-16128.0,4480.0,-256.0
4.2325,-16192.0,4480.0,-320.0
4.235,-16128.0,4544.0,-256.0
4.2375,-16128.0,4608.0,-320.0
4.24,-16192.0,4480.0,-192.0
4.2425,-16192.0,4480.0,-320.0
4.245,-16128.0,4544.0,-320.0
4.2475,-16256.0,4544.0,-256.0
4.25,-16256.0,4544.0,-256.0
4.2525,-16256.0,4544.0,-128.0
4.255,-16192.0,4608.0,-128.0
4.2575,-16192.0,4544.0,-128.0
4.26,-16192.0,4544.0,-128.0
4.2625,-16256.0,4544.0,-128.0
4.265,-16192.0,4544.0,-192.0
4.2675,-16192.0,4480.0,-256.0
4.27,-16192.0,4544.0,-192.0
4.2725,-16192.0,4480.0,-192.0
4.275,-16192.0,4544.0,-192.0
4.2775,-16192.0,4544.0,-192.0
4.28,-16192.0,4544.0,-128.0
4.2825,-16128.0,4544.0,-256.0
4.285,-16384.0,4480.0,-64.0
4.2875,-16192.0,4544.0,0.0
4.29,-16128.0,4480.0,64.0
4.2925,-16192.0,4480.0,128.0
4.295,-16192.0,4544.0,192.0
4.2975,-16192.0,4544.0,256.0
4.3,-16192.0,4608.0,320.0
4.3025,-16256.0,4608.0,320.0
4.305,-16192.0,4608.0,320.0
4.3075,-16192.0,4608.0,384.0
4.31,-16128.0,4544.0,320.0
4.3125,-16192.0,4480.0,320.0
4.315,-16192.0,4544.0,320.0
4.3175,-16128.0,4480.0,320.0
4.32,-16128.0,4416.0,384.0
4.3225,-16064.0,4544.0,448.0
4.325,-16064.0,4544.0,448.0
4.3275,-16000.0,4544.0,448.0
4.33,-16000.0,4544.0,448.0
4.3325,-16000.0,4544.0,512.0
4.335,-16000.0,4544.0,576.0
4.3375,-16000.0,4608.0,512.0
4.34,-16000.0,4544.0,576.0
4.3425,-16000.0,4544.0,576.0
4.345,-16064.0,4544.0,576.0
4.3475,-16064.0,4544.0,576.0
4.35,-16128.0,4480.0,576.0
4.3525,-16064.0,4480.0,576.0
4.355,-16064.0,4416.0,576.0
4.3575,-16064.0,4416.0,512.0
4.36,-16064.0,4480.0,576.0
4.3625,-16064.0,4480.0,576.0
4.365,-16000.0,4416.0,576.0
4.3675,-16000.0,4352.0,576.0
4.37,-16064.0,4352.0,576.0
4.3725,-16000.0,4416.0,576.0
4.375,-16000.0,4416.0,576.0
4.3775,-15936.0,4352.0,576.0
4.38,-15936.0,4416.0,576.0
4.3825,-15936.0,4416.0,576.0
4.385,-15872.0,4480.0,640.0
4.3875,-15872.0,4352.0,640.0
4.39,-15872.0,4352.0,704.0
4.3925,-15808.0,4352.0,640.0
4.395,-15808.0,4352.0,576.0
4.3975,-15808.0,4288.0,576.0
4.4,-15680.0,4288.0,576.0
4.4025,-15680.0,4288.0,640.0
4.405,-15552.0,4352.0,576.0
4.4075,-15552.0,4352.0,512.0
4.41,-15488.0,4224.0,576.0
4.4125,-15488.0,4224.0,512.0
4.415,-15424.0,4224.0,576.0
4.4175,-15360.0,4224.0,576.0
4.42,-15296.0,4224.0,576.0
4.4225,-15232.0,4224.0,512.0
4.425,-15232.0,4224.0,512.0
4.4275,-15232.0,4160.0,512.0
4.43,-15168.0,4160.0,512.0
4.4325,-15168.0,4160.0,512.0
4.435,-15104.0,4160.0,512.0
4.4375,-15040.0,4160.0,512.0
4.44,-15040.0,4096.0,512.0
4.4425,-15040.0,4160.0,448.0
4.445,-14976.0,4160.0,384.0
4.4475,-14976.0,4160.0,384.0
4.45,-14976.0,4160.0,448.0
4.4525,-14976.0,4224.0,384.0
4.455,-14976.0,4224.0,448.0
4.4575,-14976.0,4288.0,448.0
4.46,-14912.0,4288.0,384.0
4.4625,-14976.0,4288.0,384.0
4.465,-14976.0,4288.0,448.0
4.4675,-14912.0,4288.0,384.0
4.47,-14848.0,4288.0,448.0
4.4725,-14912.0,4288.0,448.0
4.475,-14912.0,4224.0,448.0
4.4775,-14912.0,4288.0,448.0
4.48,-14976.0,4224.0,384.0
4.4825,-14976.0,4224.0,448.0
4.485,-14912.0,4224.0,384.0
4.4875,-14912.0,4288.0,384.0
4.49,-14848.0,4224.0,384.0
4.4925,-14848.0,4224.0,384.0
4.495,-14848.0,4224.0,256.0
4.4975,-14848.0,4160.0,256.0
4.5,-14848.0,4160.0,320.0
4.5025,-14848.0,4160.0,256.0
4.505,-14784.0,4160.0,256.0
4.5075,-14784.0,4096.0,192.0
4.51,-14784.0,4160.0,256.0
4.5125,-14784.0,4096.0,256.0
4.515,-14784.0,4096.0,256.0
4.5175,-14720.0,4096.0,320.0
4.52,-14784.0,4096.0,256.0
4.5225,-14784.0,4096.0,256.0
4.525,-14848.0,4096.0,256.0
4.5275,-14848.0,4096.0,192.0
4.53,-14912.0,4096.0,256.0
4.5325,-14912.0,4096.0,256.0
4.535,-14976.0,4096.0,192.0
4.5375,-15040.0,4160.0,256.0
4.54,-15040.0,4160.0,192.0
4.5425,-15104.0,4160.0,192.0
4.545,-15104.0,4160.0,256.0
4.5475,-15104.0,4160.0,256.0
4.55,-15168.0,4224.0,192.0
4.5525,-15104.0,4224.0,192.0
4.555,-15232.0,4224.0,192.0
4.5575,-15296.0,4224.0,192.0
4.56,-15360.0,4224.0,128.0
4.5625,-15360.0,4224.0,64.0
4.565,-15424.0,4224.0,128.0
4.5675,-15424.0,4224.0,64.0
4.57,-15360.0,4224.0,64.0
4.5725,-15360.0,4096.0,64.0
4.575,-15360.0,4160.0,128.0
4.5775,-15360.0,4160.0,192.0
4.58,-15360.0,4096.0,128.0
4.5825,-15296.0,4032.0,192.0
4.585,-15232.0,4032.0,192.0
4.5875,-15232.0,4032.0,192.0
4.59,-15168.0,4032.0,128.0
4.5925,-15168.0,4032.0,128.0
4.595,-15232.0,3968.0,64.0
4.5975,-15232.0,3904.0,64.0
4.6,-15168.0,3904.0,128.0
4.6025,-15168.0,3904.0,64.0
4.605,-15168.0,3904.0,64.0
4.6075,-15168.0,3840.0,0.0
4.61,-15232.0,3904.0,0.0
4.6125,-15168.0,3904.0,0.0
4.615,-15232.0,3840.0,-64.0
4.6175,-15232.0,3840.0,-64.0
4.62,-15296.0,3840.0,0.0
4.6225,-15232.0,3904.0,-64.0
4.625,-15168.0,3904.0,-64.0
4.6275,-15232.0,3904.0,-64.0
4.63,-15296.0,3904.0,-64.0
4.6325,-15360.0,3904.0,-128.0
4.635,-15296.0,3968.0,-128.0
4.6375,-15232.0,3968.0,-64.0
4.64,-15232.0,3904.0,-64.0
4.6425,-15168.0,3904.0,-64.0
4.645,-15232.0,3904.0,0.0
4.6475,-15104.0,3904.0,-64.0
4.65,-15104.0,3904.0,0.0
4.6525,-15040.0,3904.0,-64.0
4.655,-15040.0,3840.0,-64.0
4.6575,-14976.0,3840.0,-64.0
4.66,-14976.0,3904.0,-128.0
4.6625,-14912.0,3840.0,-128.0
4.665,-14976.0,3904.0,-64.0
4.6675,-14976.0,3904.0,-64.0
4.67,-14976.0,3904.0,-64.0
4.6725,-14976.0,3840.0,-64.0
4.675,-14976.0,3904.0,0.0
4.6775,-14976.0,3840.0,0.0
4.68,-14912.0,3904.0,-64.0
4.6825,-14912.0,3904.0,-128.0
4.685,-14976.0,3904.0,-64.0
4.6875,-15104.0,3968.0,-64.0
4.69,-15104.0,3968.0,-64.0
4.6925,-15168.0,4032.0,-64.0
4.695,-15168.0,4096.0,-64.0
4.6975,-15232.0,4096.0,-64.0
4.7,-15296.0,4160.0,-64.0
4.7025,-15296.0,4224.0,0.0
4.705,-15296.0,4224.0,-64.0
4.7075,-15296.0,4288.0,-128.0
4.71,-15360.0,4352.0,-128.0
4.7125,-15360.0,4352.0,-64.0
4.715,-15424.0,4416.0,0.0
4.7175,-15360.0,4416.0,64.0
4.72,-15296.0,4416.0,0.0
4.7225,-15296.0,4480.0,64.0
4.725,-15296.0,4416.0,64.0
4.7275,-15360.0,4416.0,128.0
4.73,-15296.0,4416.0,64.0
4.7325,-15296.0,4352.0,128.0
4.735,-15168.0,4352.0,128.0
4.7375,-15104.0,4288.0,192.0
4.74,-14976.0,4288.0,192.0
4.7425,-14912.0,4224.0,192.0
4.745,-14848.0,4160.0,192.0
4.7475,-14784.0,4160.0,256.0
4.75,-14656.0,4096.0,192.0
4.7525,-14528.0,4096.0,256.0
4.755,-14464.0,4096.0,320.0
4.7575,-14400.0,3968.0,256.0
4.76,-14400.0,3904.0,320.0
4.7625,-14272.0,3776.0,320.0
4.765,-14208.0,3840.0,320.0
4.7675,-14144.0,3776.0,320.0
4.77,-14144.0,3840.0,384.0
4.7725,-14144.0,3776.0,384.0
4.775,-14144.0,3776.0,384.0
4.7775,-14080.0,3776.0,320.0
4.78,-14016.0,3776.0,384.0
4.7825,-14080.0,3776.0,384.0
4.785,-14016.0,3776.0,384.0
4.7875,-14080.0,3840.0,512.0
4.79,-14144.0,3776.0,512.0
4.7925,-14080.0,3840.0,512.0
4.795,-14208.0,3840.0,512.0
4.7975,-14208.0,3840.0,512.0
4.8,-14400.0,3968.0,576.0
4.8025,-14464.0,4032.0,576.0
4.805,-14464.0,4032.0,640.0
4.8075,-14592.0,4032.0,640.0
4.81,-14656.0,4032.0,640.0
4.8125,-14720.0,4032.0,640.0
4.815,-14720.0,4032.0,576.0
4.8175,-14848.0,4096.0,640.0
4.82,-14848.0,4096.0,640.0
4.8225,-14912.0,4096.0,640.0
4.825,-14976.0,4096.0,576.0
4.8275,-15104.0,4096.0,576.0
4.83,-15104.0,4096.0,640.0
4.8325,-15232.0,4096.0,640.0
4.835,-15168.0,4160.0,640.0
4.8375,-15168.0,4160.0,704.0
4.84,-15232.0,4096.0,704.0
4.8425,-15168.0,4160.0,832.0
4.845,-15168.0,4096.0,768.0
4.8475,-15168.0,4096.0,768.0
4.85,-15168.0,4096.0,768.0
4.8525,-15104.0,4096.0,768.0
4.855,-15040.0,4096.0,768.0
4.8575,-15040.0,4096.0,832.0
4.86,-15104.0,4096.0,832.0
4.8625,-15104.0,4096.0,768.0
4.865,-15168.0,4096.0,832.0
4.8675,-15168.0,4096.0,704.0
4.87,-15232.0,4096.0,768.0
4.8725,-15232.0,4096.0,832.0
4.875,-15232.0,4160.0,832.0
4.8775,-15232.0,4160.0,896.0
4.88,-15232.0,4160.0,832.0
4.8825,-15360.0,4160.0,896.0
4.885,-15296.0,4160.0,896.0
4.8875,-15360.0,4224.0,1024.0
4.89,-15360.0,4160.0,1088.0
4.8925,-15360.0,4224.0,1152.0
4.895,-15424.0,4160.0,1024.0
4.8975,-15488.0,4160.0,1024.0
4.9,-15488.0,4224.0,1024.0
4.9025,-15488.0,4224.0,960.0
4.905,-15616.0,4224.0,960.0
4.9075,-15680.0,4224.0,1024.0
4.91,-15616.0,4224.0,1024.0
4.9125,-15616.0,4160.0,960.0
4.915,-15680.0,4224.0,960.0
4.9175,-15680.0,4160.0,960.0
4.92,-15616.0,4160.0,1024.0
4.9225,-15616.0,4160.0,1024.0
4.925,-15616.0,4160.0,1024.0
4.9275,-15616.0,4160.0,1024.0
4.93,-15680.0,4160.0,1088.0
4.9325,-15680.0,4224.0,1024.0
4.935,-15616.0,4224.0,1088.0
4.9375,-15616.0,4224.0,1024.0
4.94,-15616.0,4224.0,1024.0
4.9425,-15616.0,4224.0,1024.0
4.945,-15616.0,4224.0,1024.0
4.9475,-15616.0,4224.0,1024.0
4.95,-15552.0,4224.0,1024.0
4.9525,-15552.0,4224.0,1024.0
4.955,-15552.0,4224.0,1024.0
4.9575,-15552.0,4224.0,1088.0
4.96,-15488.0,4224.0,1152.0
4.9625,-15488.0,4224.0,1152.0
4.965,-15424.0,4160.0,1088.0
4.9675,-15360.0,4160.0,1088.0
4.97,-15360.0,4160.0,1088.0
4.9725,-15360.0,4224.0,1088.0
4.975,-15360.0,4160.0,1024.0
4.9775,-15424.0,4160.0,1024.0
4.98,-15424.0,4224.0,1024.0
4.9825,-15488.0,4160.0,960.0
4.985,-15488.0,4160.0,960.0
4.9875,-15488.0,4160.0,960.0
4.99,-15488.0,4160.0,960.0
4.9925,-15488.0,4160.0,960.0
4.995,-15488.0,4160.0,960.0
4.9975,-15552.0,4224.0,960.0
5.0,-15552.0,4160.0,896.0
5.0025,-15616.0,4224.0,960.0
5.005,-15616.0,4160.0,960.0
5.0075,-15616.0,4224.0,960.0
5.01,-15616.0,4224.0,1024.0
5.0125,-15616.0,4160.0,960.0
5.015,-15552.0,4160.0,896.0
5.0175,-15488.0,4160.0,896.0
5.02,-15552.0,4160.0,896.0
5.0225,-15488.0,4160.0,832.0
5.025,-15552.0,4160.0,896.0
5.0275,-15552.0,4224.0,896.0
5.03,-15424.0,4224.0,832.0
5.0325,-15488.0,4224.0,896.0
5.035,-15488.0,4224.0,896.0
5.0375,-15424.0,4160.0,896.0
5.04,-15360.0,4160.0,896.0
5.0425,-15360.0,4160.0,896.0
5.045,-15296.0,4160.0,832.0
5.0475,-15296.0,4160.0,832.0
5.05,-15296.0,4160.0,768.0
5.0525,-15296.0,4160.0,768.0
5.055,-15232.0,4160.0,704.0
5.0575,-15296.0,4224.0,768.0
5.06,-15296.0,4160.0,768.0
5.0625,-15296.0,4160.0,704.0
5.065,-15296.0,4160.0,640.0
5.0675,-15296.0,4160.0,704.0
5.07,-15296.0,4160.0,704.0
5.0725,-15296.0,4160.0,704.0
5.075,-15360.0,4160.0,640.0
5.0775,-15360.0,4096.0,640.0
5.08,-15296.0,4096.0,640.0
5.0825,-15296.0,4160.0,640.0
5.085,-15296.0,4160.0,704.0
5.0875,-15296.0,4160.0,704.0
5.09,-15296.0,4160.0,704.0
5.0925,-15296.0,4160.0,704.0
5.095,-15360.0,4160.0,640.0
5.0975,-15360.0,4160.0,704.0
5.1,-15360.0,4160.0,640.0
5.1025,-15360.0,4096.0,576.0
5.105,-15360.0,4096.0,512.0
5.1075,-15424.0,4096.0,576.0
5.11,-15424.0,4160.0,576.0
5.1125,-15424.0,4160.0,512.0
5.115,-15488.0,4160.0,576.0
5.1175,-15488.0,4160.0,576.0
5.12,-15488.0,4160.0,640.0
5.1225,-15488.0,4160.0,640.0
5.125,-15488.0,4160.0,704.0
5.1275,-15424.0,4096.0,704.0
5.13,-15424.0,4096.0,640.0
5.1325,-15488.0,4096.0,768.0
5.135,-15488.0,4096.0,768.0
5.1375,-15552.0,4032.0,768.0
5.14,-15552.0,4032.0,768.0
5.1425,-15424.0,4096.0,768.0
5.145,-15424.0,4096.0,768.0
5.1475,-15488.0,4096.0,832.0
5.15,-15488.0,4032.0,832.0
5.1525,-15488.0,4032.0,832.0
5.155,-15424.0,4096.0,896.0
5.1575,-15360.0,4032.0,896.0
5.16,-15424.0,4032.0,960.0
5.1625,-15424.0,3968.0,960.0
5.165,-15488.0,4032.0,1024.0
5.1675,-15424.0,4096.0,1024.0
5.17,-15488.0,4096.0,1024.0
5.1725,-15488.0,4032.0,1024.0
5.175,-15488.0,4032.0,1024.0
5.1775,-15424.0,3968.0,1024.0
5.18,-15424.0,3968.0,1024.0
5.1825,-15488.0,3968.0,1024.0
5.185,-15488.0,4032.0,1088.0
5.1875,-15488.0,4032.0,1024.0
5.19,-15488.0,4032.0,1024.0
5.1925,-15424.0,4032.0,960.0
5.195,-15488.0,4096.0,1024.0
5.1975,-15488.0,4096.0,1024.0
5.2,-15552.0,4096.0,960.0
5.2025,-15552.0,4096.0,1024.0
5.205,-15552.0,4160.0,960.0
5.2075,-15616.0,4160.0,1024.0
5.21,-15616.0,4160.0,1024.0
5.2125,-15616.0,4160.0,1024.0
5.215,-15680.0,4224.0,1024.0
5.2175,-15680.0,4288.0,1024.0
5.22,-15744.0,4224.0,960.0
5.2225,-15808.0,4288.0,896.0
5.225,-15808.0,4288.0,960.0
5.2275,-15872.0,4288.0,896.0
5.23,-15872.0,4416.0,896.0
5.2325,-15872.0,4416.0,896.0
5.235,-15936.0,4416.0,960.0
5.2375,-16000.0,4480.0,896.0
5.24,-16000.0,4544.0,832.0
5.2425,-16064.0,4544.0,896.0
5.245,-16064.0,4608.0,896.0
5.2475,-16128.0,4608.0,960.0
5.25,-16128.0,4608.0,896.0
5.2525,-16192.0,4608.0,960.0
5.255,-16192.0,4672.0,1024.0
5.2575,-16256.0,4672.0,1024.0
5.26,-16320.0,4672.0,1024.0
5.2625,-16320.0,4736.0,1088.0
5.265,-16320.0,4800.0,1088.0
5.2675,-16384.0,4736.0,1088.0
5.27,-16320.0,4736.0,1088.0
5.2725,-16320.0,4736.0,1152.0
5.275,-16320.0,4736.0,1152.0
5.2775,-16320.0,4736.0,1152.0
5.28,-16320.0,4672.0,1152.0
5.2825,-16320.0,4672.0,1088.0
5.285,-16384.0,4672.0,1152.0
5.2875,-16384.0,4672.0,1216.0
5.29,-16384.0,4672.0,1216.0
5.2925,-16320.0,4672.0,1216.0
5.295,-16256.0,4672.0,1216.0
5.2975,-16256.0,4608.0,1216.0
5.3,-16192.0,4544.0,1280.0
5.3025,-16192.0,4544.0,1280.0
5.305,-16256.0,4544.0,1344.0
5.3075,-16192.0,4544.0,1344.0
5.31,-16256.0,4544.0,1344.0
5.3125,-16256.0,4480.0,1344.0
5.315,-16320.0,4480.0,1344.0
5.3175,-16384.0,4480.0,1344.0
5.32,-16384.0,4480.0,1408.0
5.3225,-16384.0,4544.0,1344.0
5.325,-16384.0,4544.0,1344.0
5.3275,-16448.0,4544.0,1408.0
5.33,-16512.0,4544.0,1408.0
5.3325,-16512.0,4544.0,1408.0
5.335,-16576.0,4544.0,1408.0
5.3375,-16640.0,4608.0,1408.0
5.34,-16576.0,4608.0,1472.0
5.3425,-16576.0,4608.0,1472.0
5.345,-16576.0,4608.0,1408.0
5.3475,-16576.0,4608.0,1408.0
5.35,-16576.0,4672.0,1472.0
5.3525,-16640.0,4672.0,1472.0
5.355,-16704.0,4736.0,1472.0
5.3575,-16704.0,4736.0,1472.0
5.36,-16576.0,4800.0,1472.0
5.3625,-16576.0,4800.0,1600.0
5.365,-16448.0,4800.0,1536.0
5.3675,-16384.0,4736.0,1600.0
5.37,-16384.0,4800.0,1600.0
5.3725,-16384.0,4800.0,1664.0
5.375,-16448.0,4864.0,1792.0
5.3775,-16384.0,4864.0,1792.0
5.38,-16320.0,4864.0,1728.0
5.3825,-16384.0,4928.0,1728.0
5.385,-16320.0,4928.0,1792.0
5.3875,-16320.0,4928.0,1792.0
5.39,-16320.0,4928.0,1856.0
5.3925,-16192.0,4928.0,1792.0
5.395,-16192.0,4928.0,1792.0
5.3975,-16128.0,4928.0,1856.0
5.4,-16128.0,4992.0,1920.0
5.4025,-16064.0,4992.0,1920.0
5.405,-16128.0,5056.0,1920.0
5.4075,-16064.0,5056.0,1984.0
5.41,-16064.0,5120.0,1984.0
5.4125,-16000.0,5056.0,2048.0
5.415,-16000.0,5056.0,2048.0
5.4175,-16000.0,5120.0,2048.0
5.42,-16000.0,5056.0,2112.0
5.4225,-16000.0,5120.0,2112.0
5.425,-16000.0,5184.0,2112.0
5.4275,-16064.0,5248.0,2048.0
5.43,-16128.0,5184.0,2048.0
5.4325,-16128.0,5248.0,2048.0
5.435,-16064.0,5248.0,2048.0
5.4375,-16064.0,5312.0,1984.0
5.44,-16064.0,5248.0,2048.0
5.4425,-16000.0,5248.0,2048.0
5.445,-16000.0,5248.0,2112.0
5.4475,-16000.0,5312.0,2176.0
5.45,-15936.0,5312.0,2176.0
5.4525,-15936.0,5312.0,2112.0
5.455,-16000.0,5376.0,2112.0
5.4575,-15936.0,5376.0,2048.0
5.46,-15936.0,5440.0,2048.0
5.4625,-15872.0,5440.0,2048.0
5.465,-15872.0,5376.0,2048.0
5.4675,-15808.0,5376.0,2048.0
5.47,-15744.0,5440.0,2048.0
5.4725,-15744.0,5376.0,2048.0
5.475,-15744.0,5440.0,2048.0
5.4775,-15680.0,5440.0,1984.0
5.48,-15680.0,5440.0,1984.0
5.4825,-15680.0,5440.0,1920.0
5.485,-15680.0,5504.0,1984.0
5.4875,-15680.0,5504.0,1920.0
5.49,-15680.0,5440.0,1984.0
5.4925,-15680.0,5440.0,1984.0
5.495,-15744.0,5376.0,1920.0
5.4975,-15680.0,5376.0,1920.0
5.5,-15744.0,5376.0,1856.0
5.5025,-15808.0,5440.0,1792.0
5.505,-15744.0,5504.0,1856.0
5.5075,-15808.0,5504.0,1792.0
5.51,-15744.0,5440.0,1856.0
5.5125,-15808.0,5440.0,1792.0
5.515,-15872.0,5504.0,1792.0
5.5175,-15872.0,5440.0,1728.0
5.52,-15872.0,5504.0,1792.0
5.5225,-15872.0,5568.0,1792.0
5.525,-15936.0,5632.0,1792.0
5.5275,-15936.0,5696.0,1792.0
5.53,-15936.0,5696.0,1792.0
5.5325,-15936.0,5696.0,1856.0
5.535,-15936.0,5696.0,1856.0
5.5375,-16000.0,5760.0,1856.0
5.54,-16064.0,5760.0,1920.0
5.5425,-16128.0,5760.0,1920.0
5.545,-16128.0,5760.0,1984.0
5.5475,-16192.0,5760.0,2112.0
5.55,-16192.0,5760.0,2048.0
5.5525,-16192.0,5824.0,2112.0
5.555,-16128.0,5824.0,2112.0
5.5575,-16192.0,5760.0,2176.0
5.56,-16192.0,5760.0,2176.0
5.5625,-16192.0,5824.0,2112.0
5.565,-16256.0,5760.0,2048.0
5.5675,-16192.0,5824.0,2048.0
5.57,-16256.0,5888.0,2048.0
5.5725,-16192.0,5888.0,2048.0
5.575,-16320.0,5824.0,1984.0
5.5775,-16384.0,5888.0,1984.0
5.58,-16448.0,5888.0,2048.0
5.5825,-16576.0,5824.0,2048.0
5.585,-16576.0,5824.0,2048.0
5.5875,-16704.0,5760.0,1984.0
5.59,-16768.0,5824.0,1984.0
5.5925,-16704.0,5760.0,2048.0
5.595,-16704.0,5696.0,2048.0
5.5975,-16704.0,5696.0,2048.0
5.6,-16768.0,5696.0,1984.0
5.6025,-16768.0,5696.0,2048.0
5.605,-16768.0,5632.0,1920.0
5.6075,-16768.0,5696.0,1920.0
5.61,-16704.0,5760.0,1856.0
5.6125,-16704.0,5760.0,1856.0
5.615,-16704.0,5888.0,1792.0
5.6175,-16704.0,5824.0,1792.0
5.62,-16704.0,5824.0,1792.0
5.6225,-16640.0,5888.0,1728.0
5.625,-16704.0,5888.0,1728.0
5.6275,-16576.0,5824.0,1664.0
5.63,-16512.0,5824.0,1728.0
5.6325,-16512.0,5888.0,1792.0
5.635,-16384.0,5824.0,1792.0
5.6375,-16384.0,5760.0,1792.0
5.64,-16256.0,5696.0,1792.0
5.6425,-16192.0,5760.0,1792.0
5.645,-16192.0,5760.0,1728.0
5.6475,-16192.0,5760.0,1792.0
5.65,-16128.0,5824.0,1856.0
5.6525,-16128.0,5824.0,1856.0
5.655,-16064.0,5824.0,1856.0
5.6575,-16064.0,5824.0,1856.0
5.66,-16064.0,5824.0,1792.0
5.6625,-16064.0,5824.0,1728.0
5.665,-16064.0,5760.0,1664.0
5.6675,-16064.0,5696.0,1600.0
5.67,-16064.0,5760.0,1600.0
5.6725,-16064.0,5824.0,1536.0
5.675,-16000.0,5824.0,1472.0
5.6775,-15936.0,5824.0,1472.0
5.68,-15936.0,5888.0,1472.0
5.6825,-16000.0,5952.0,1408.0
5.685,-16128.0,5952.0,1344.0
5.6875,-16128.0,6016.0,1408.0
5.69,-16192.0,6016.0,1408.0
5.6925,-16320.0,6144.0,1344.0
5.695,-16448.0,6144.0,1408.0
5.6975,-16512.0,6144.0,1344.0
5.7,-16576.0,6272.0,1344.0
5.7025,-16704.0,6336.0,1280.0
5.705,-16768.0,6528.0,1216.0
5.7075,-16832.0,6592.0,1152.0
5.71,-16896.0,6656.0,1088.0
5.7125,-17024.0,6720.0,1024.0
5.715,-17088.0,6720.0,960.0
5.7175,-17152.0,6784.0,960.0
5.72,-17152.0,6848.0,1024.0
5.7225,-17280.0,6848.0,960.0
5.725,-17408.0,6912.0,1088.0
5.7275,-17536.0,6976.0,1088.0
5.73,-17536.0,6976.0,1024.0
5.7325,-17536.0,6976.0,1088.0
5.735,-17600.0,6976.0,1216.0
5.7375,-17600.0,6912.0,1152.0
5.74,-17664.0,6912.0,1216.0
5.7425,-17600.0,6912.0,1216.0
5.745,-17600.0,6912.0,1216.0
5.7475,-17600.0,6848.0,1152.0
5.75,-17600.0,6848.0,1216.0
5.7525,-17600.0,6720.0,1152.0
5.755,-17600.0,6656.0,1280.0
5.7575,-17600.0,6656.0,1280.0
5.76,-17472.0,6528.0,1216.0
5.7625,-17472.0,6464.0,1280.0
5.765,-17408.0,6464.0,1216.0
5.7675,-17344.0,6464.0,1216.0
5.77,-17344.0,6528.0,1216.0
5.7725,-17408.0,6528.0,1152.0
5.775,-17408.0,6528.0,1216.0
5.7775,-17344.0,6528.0,1280.0
5.78,-17344.0,6528.0,1216.0
5.7825,-17408.0,6592.0,1216.0
5.785,-17408.0,6656.0,1216.0
5.7875,-17408.0,6784.0,1280.0
5.79,-17408.0,6848.0,1344.0
5.7925,-17344.0,6912.0,1408.0
5.795,-17472.0,7040.0,1536.0
5.7975,-17600.0,7104.0,1600.0
5.8,-17600.0,7168.0,1664.0
5.8025,-17600.0,7168.0,1728.0
5.805,-17728.0,7168.0,1856.0
5.8075,-17728.0,7232.0,1920.0
5.81,-17792.0,7296.0,1984.0
5.8125,-17856.0,7296.0,1984.0
5.815,-17856.0,7296.0,1984.0
5.8175,-17920.0,7296.0,1920.0
5.82,-17920.0,7296.0,1920.0
5.8225,-17920.0,7232.0,1920.0
5.825,-17984.0,7232.0,1920.0
5.8275,-17984.0,7232.0,1920.0
5.83,-17984.0,7232.0,1920.0
5.8325,-18048.0,7168.0,1856.0
5.835,-18048.0,7104.0,1856.0
5.8375,-18048.0,7104.0,1920.0
5.84,-17984.0,6976.0,1856.0
5.8425,-17984.0,6912.0,1856.0
5.845,-17920.0,6912.0,1856.0
5.8475,-17856.0,6912.0,1920.0
5.85,-17728.0,6912.0,1920.0
5.8525,-17728.0,6784.0,1984.0
5.855,-17600.0,6656.0,2112.0
5.8575,-17536.0,6656.0,2176.0
5.86,-17472.0,6656.0,2112.0
5.8625,-17472.0,6592.0,2112.0
5.865,-17408.0,6528.0,2112.0
5.8675,-17344.0,6528.0,2112.0
5.87,-17344.0,6528.0,2176.0
5.8725,-17280.0,6464.0,2176.0
5.875,-17216.0,6528.0,2240.0
5.8775,-17152.0,6528.0,2240.0
5.88,-17152.0,6528.0,2304.0
5.8825,-17152.0,6528.0,2240.0
5.885,-17152.0,6528.0,2304.0
5.8875,-17152.0,6528.0,2368.0
5.89,-17152.0,6528.0,2368.0
5.8925,-17216.0,6528.0,2368.0
5.895,-17216.0,6592.0,2432.0
5.8975,-17152.0,6592.0,2432.0
5.9,-17088.0,6592.0,2496.0
5.9025,-17152.0,6656.0,2496.0
5.905,-17088.0,6656.0,2560.0
5.9075,-17088.0,6656.0,2560.0
5.91,-17088.0,6656.0,2560.0
5.9125,-17088.0,6656.0,2496.0
5.915,-17024.0,6656.0,2432.0
5.9175,-17024.0,6656.0,2496.0
5.92,-17024.0,6656.0,2368.0
5.9225,-17024.0,6528.0,2368.0
5.925,-16960.0,6592.0,2304.0
5.9275,-17024.0,6528.0,2304.0
5.93,-17024.0,6528.0,2304.0
5.9325,-17024.0,6592.0,2304.0
5.935,-17024.0,6592.0,2240.0
5.9375,-17024.0,6656.0,2304.0
5.94,-17024.0,6720.0,2368.0
5.9425,-17024.0,6784.0,2304.0
5.945,-17088.0,6784.0,2176.0
5.9475,-17024.0,6720.0,2112.0
5.95,-17088.0,6720.0,2176.0
5.9525,-17088.0,6784.0,2112.0
5.955,-17216.0,6848.0,2112.0
5.9575,-17280.0,6848.0,2176.0
5.96,-17216.0,6848.0,2112.0
5.9625,-17216.0,6912.0,2112.0
5.965,-17280.0,6976.0,2048.0
5.9675,-17280.0,6976.0,2048.0
5.97,-17344.0,7040.0,2112.0
5.9725,-17280.0,7104.0,2176.0
5.975,-17280.0,7168.0,2176.0
5.9775,-17280.0,7168.0,2240.0
5.98,-17280.0,7168.0,2304.0
5.9825,-17280.0,7168.0,2240.0
5.985,-17216.0,7232.0,2304.0
5.9875,-17216.0,7232.0,2304.0
5.99,-17216.0,7232.0,2304.0
5.9925,-17216.0,7232.0,2304.0
5.995,-17280.0,7296.0,2368.0
5.9975,-17216.0,7296.0,2368.0
6.0,-17216.0,7232.0,2368.0
6.0025,-17216.0,7296.0,2368.0
6.005,-17216.0,7360.0,2432.0
6.0075,-17152.0,7296.0,2432.0
6.01,-17216.0,7232.0,2432.0
6.0125,-17216.0,7232.0,2496.0
6.015,-17216.0,7168.0,2496.0
6.0175,-17152.0,7232.0,2496.0
6.02,-17088.0,7168.0,2560.0
6.0225,-17152.0,7168.0,2560.0
6.025,-17152.0,7168.0,2560.0
6.0275,-17152.0,7168.0,2560.0
6.03,-17088.0,7232.0,2560.0
6.0325,-17088.0,7232.0,2560.0
6.035,-17088.0,7168.0,2624.0
6.0375,-17152.0,7168.0,2624.0
6.04,-17088.0,7168.0,2560.0
6.0425,-17024.0,7168.0,2624.0
6.045,-17024.0,7104.0,2560.0
6.0475,-16960.0,7104.0,2560.0
6.05,-16960.0,7104.0,2496.0
6.0525,-16960.0,7040.0,2432.0
6.055,-16960.0,7040.0,2432.0
6.0575,-16896.0,6976.0,2496.0
6.06,-16832.0,6976.0,2432.0
6.0625,-16832.0,6976.0,2432.0
6.065,-16832.0,6976.0,2432.0
6.0675,-16832.0,6976.0,2368.0
6.07,-16832.0,6912.0,2240.0
6.0725,-16832.0,6912.0,2304.0
6.075,-16832.0,6848.0,2304.0
6.0775,-16768.0,6848.0,2240.0
6.08,-16768.0,6848.0,2240.0
6.0825,-16768.0,6848.0,2176.0
6.085,-16768.0,6784.0,2240.0
6.0875,-16704.0,6720.0,2240.0
6.09,-16640.0,6784.0,2176.0
6.0925,-16640.0,6720.0,2176.0
6.095,-16512.0,6656.0,2176.0
6.0975,-16448.0,6656.0,2112.0
6.1,-16448.0,6592.0,2048.0
6.1025,-16384.0,6656.0,2048.0
6.105,-16384.0,6592.0,1984.0
6.1075,-16320.0,6592.0,1984.0
6.11,-16320.0,6528.0,1984.0
6.1125,-16320.0,6528.0,1920.0
6.115,-16320.0,6528.0,1920.0
6.1175,-16320.0,6464.0,1920.0
6.12,-16192.0,6528.0,1920.0
6.1225,-16192.0,6528.0,1920.0
6.125,-16192.0,6464.0,1856.0
6.1275,-16256.0,6464.0,1856.0
6.13,-16256.0,6464.0,1856.0
6.1325,-16192.0,6336.0,1856.0
6.135,-16256.0,6272.0,1792.0
6.1375,-16320.0,6272.0,1856.0
6.14,-16320.0,6336.0,1792.0
6.1425,-16384.0,6272.0,1728.0
6.145,-16448.0,6144.0,1728.0
6.1475,-16576.0,6144.0,1664.0
6.15,-16512.0,6144.0,1600.0
6.1525,-16576.0,6080.0,1664.0
6.155,-16640.0,6144.0,1664.0
6.1575,-16704.0,6080.0,1664.0
6.16,-16768.0,6208.0,1600.0
6.1625,-16768.0,6144.0,1536.0
6.165,-16768.0,6080.0,1536.0
6.1675,-16768.0,6080.0,1536.0
6.17,-16896.0,6144.0,1472.0
6.1725,-16896.0,6080.0,1536.0
6.175,-16960.0,6080.0,1472.0
6.1775,-17024.0,6016.0,1472.0
6.18,-17088.0,6080.0,1472.0
6.1825,-17024.0,6080.0,1408.0
6.185,-17088.0,6144.0,1344.0
6.1875,-17088.0,6144.0,1344.0
6.19,-17152.0,6144.0,1280.0
6.1925,-17216.0,6272.0,1280.0
6.195,-17216.0,6272.0,1280.0
6.1975,-17216.0,6336.0,1280.0
6.2,-17280.0,6400.0,1280.0
6.2025,-17280.0,6400.0,1280.0
6.205,-17280.0,6336.0,1344.0
6.2075,-17344.0,6336.0,1344.0
6.21,-17344.0,6272.0,1344.0
6.2125,-17344.0,6336.0,1344.0
6.215,-17344.0,6336.0,1280.0
6.2175,-17344.0,6272.0,1280.0
6.22,-17280.0,6272.0,1344.0
6.2225,-17280.0,6272.0,1344.0
6.225,-17216.0,6336.0,1408.0
6.2275,-17152.0,6336.0,1408.0
6.23,-17216.0,6336.0,1408.0
6.2325,-17088.0,6272.0,1408.0
6.235,-17024.0,6272.0,1408.0
6.2375,-17024.0,6272.0,1408.0
6.24,-16896.0,6080.0,1472.0
6.2425,-16832.0,6016.0,1536.0
6.245,-16768.0,5952.0,1536.0
6.2475,-16704.0,5888.0,1536.0
6.25,-16704.0,5824.0,1600.0
6.2525,-16640.0,5760.0,1664.0
6.255,-16576.0,5696.0,1728.0
6.2575,-16448.0,5696.0,1664.0
6.26,-16384.0,5632.0,1728.0
6.2625,-16320.0,5632.0,1728.0
6.265,-16192.0,5632.0,1664.0
6.2675,-16128.0,5568.0,1728.0
6.27,-16128.0,5504.0,1856.0
6.2725,-16064.0,5440.0,1792.0
6.275,-15936.0,5440.0,1792.0
6.2775,-15872.0,5504.0,1856.0
6.28,-15808.0,5440.0,1856.0
6.2825,-15744.0,5376.0,1856.0
6.285,-15744.0,5312.0,1920.0
6.2875,-15744.0,5312.0,1920.0
6.29,-15616.0,5312.0,1920.0
6.2925,-15616.0,5312.0,1856.0
6.295,-15552.0,5312.0,1920.0
6.2975,-15552.0,5248.0,1920.0
6.3,-15552.0,5248.0,1920.0
6.3025,-15552.0,5312.0,1984.0
6.305,-15488.0,5248.0,1920.0
6.3075,-15488.0,5184.0,1920.0
6.31,-15424.0,5184.0,1920.0
6.3125,-15424.0,5248.0,1920.0
6.315,-15360.0,5184.0,1920.0
6.3175,-15360.0,5248.0,1920.0
6.32,-15424.0,5248.0,1920.0
6.3225,-15488.0,5248.0,1984.0
6.325,-15488.0,5312.0,1984.0
6.3275,-15552.0,5312.0,1920.0
6.33,-15488.0,5376.0,1920.0
6.3325,-15552.0,5440.0,1984.0
6.335,-15552.0,5376.0,1920.0
6.3375,-15552.0,5440.0,1856.0
6.34,-15616.0,5376.0,1856.0
6.3425,-15744.0,5504.0,1792.0
6.345,-15680.0,5504.0,1792.0
6.3475,-15680.0,5504.0,1728.0
6.35,-15744.0,5504.0,1728.0
6.3525,-15744.0,5568.0,1664.0
6.355,-15808.0,5568.0,1728.0
6.3575,-15872.0,5632.0,1728.0
6.36,-15872.0,5632.0,1600.0
6.3625,-15808.0,5696.0,1664.0
6.365,-15744.0,5760.0,1600.0
6.3675,-15808.0,5696.0,1664.0
6.37,-15808.0,5760.0,1664.0
6.3725,-15808.0,5760.0,1664.0
6.375,-15872.0,5760.0,1664.0
6.3775,-15808.0,5696.0,1664.0
6.38,-15808.0,5760.0,1664.0
6.3825,-15744.0,5696.0,1728.0
6.385,-15744.0,5696.0,1664.0
6.3875,-15680.0,5696.0,1728.0
6.39,-15680.0,5696.0,1792.0
6.3925,-15680.0,5696.0,1792.0
6.395,-15744.0,5696.0,1792.0
6.3975,-15680.0,5632.0,1728.0
6.4,-15680.0,5568.0,1664.0
6.4025,-15680.0,5504.0,1728.0
6.405,-15680.0,5504.0,1600.0
6.4075,-15616.0,5440.0,1600.0
6.41,-15616.0,5440.0,1472.0
6.4125,-15616.0,5376.0,1536.0
6.415,-15616.0,5376.0,1472.0
6.4175,-15680.0,5376.0,1408.0
6.42,-15744.0,5440.0,1344.0
6.4225,-15808.0,5504.0,1280.0
6.425,-15872.0,5504.0,1216.0
6.4275,-15872.0,5440.0,1216.0
6.43,-15872.0,5376.0,1152.0
6.4325,-15808.0,5312.0,1152.0
6.435,-15808.0,5312.0,1088.0
6.4375,-15808.0,5312.0,1216.0
6.44,-15744.0,5312.0,1152.0
6.4425,-15744.0,5312.0,1216.0
6.445,-15744.0,5376.0,1152.0
6.4475,-15744.0,5376.0,1088.0
6.45,-15680.0,5376.0,1024.0
6.4525,-15552.0,5376.0,1088.0
6.455,-15552.0,5312.0,1088.0
6.4575,-15552.0,5248.0,1152.0
6.46,-15552.0,5184.0,1152.0
6.4625,-15488.0,5248.0,1152.0
6.465,-15424.0,5184.0,1216.0
6.4675,-15360.0,5184.0,1280.0
6.47,-15360.0,5120.0,1216.0
6.4725,-15296.0,5120.0,1216.0
6.475,-15232.0,5056.0,1152.0
6.4775,-15104.0,5120.0,1088.0
6.48,-14912.0,5120.0,1024.0
6.4825,-14912.0,5120.0,1088.0
6.485,-14912.0,5056.0,1024.0
6.4875,-14784.0,4992.0,1024.0
6.49,-14784.0,4992.0,960.0
6.4925,-14784.0,4928.0,1024.0
6.495,-14720.0,4992.0,896.0
6.4975,-14720.0,5056.0,960.0
6.5,-14720.0,4992.0,1024.0
6.5025,-14720.0,5120.0,1088.0
6.505,-14720.0,5120.0,1024.0
6.5075,-14720.0,5120.0,1024.0
6.51,-14720.0,5120.0,1088.0
6.5125,-14720.0,5184.0,1088.0
6.515,-14720.0,5184.0,1088.0
6.5175,-14720.0,5184.0,1024.0
6.52,-14720.0,5184.0,1024.0
6.5225,-14720.0,5184.0,1024.0
6.525,-14720.0,5184.0,1088.0
6.5275,-14720.0,5120.0,1024.0
6.53,-14720.0,5120.0,1088.0
6.5325,-14656.0,5120.0,1088.0
6.535,-14720.0,5120.0,1088.0
6.5375,-14720.0,5120.0,1088.0
6.54,-14784.0,5120.0,1152.0
6.5425,-14784.0,5056.0,1152.0
6.545,-14784.0,5056.0,1152.0
6.5475,-14784.0,5120.0,1152.0
6.55,-14848.0,5120.0,1152.0
6.5525,-14784.0,5120.0,1088.0
6.555,-14784.0,5120.0,1088.0
6.5575,-14784.0,5056.0,1152.0
6.56,-14784.0,5120.0,1216.0
6.5625,-14848.0,5120.0,1280.0
6.565,-14848.0,5120.0,1280.0
6.5675,-14784.0,5120.0,1280.0
6.57,-14720.0,5056.0,1344.0
6.5725,-14656.0,5056.0,1408.0
6.575,-14656.0,5056.0,1472.0
6.5775,-14592.0,4992.0,1536.0
6.58,-14592.0,4992.0,1472.0
6.5825,-14528.0,4992.0,1408.0
6.585,-14528.0,5056.0,1408.0
6.5875,-14592.0,4992.0,1472.0
6.59,-14592.0,4992.0,1536.0
6.5925,-14592.0,4992.0,1408.0
6.595,-14592.0,4992.0,1472.0
6.5975,-14592.0,4992.0,1472.0
6.6,-14592.0,4992.0,1536.0
6.6025,-14656.0,5056.0,1472.0
6.605,-14592.0,5056.0,1536.0
6.6075,-14656.0,5120.0,1600.0
6.61,-14592.0,5056.0,1600.0
6.6125,-14656.0,5120.0,1664.0
6.615,-14656.0,5056.0,1664.0
6.6175,-14656.0,4992.0,1728.0
6.62,-14656.0,4992.0,1728.0
6.6225,-14720.0,5056.0,1792.0
6.625,-14848.0,5056.0,1792.0
6.6275,-14912.0,4992.0,1792.0
6.63,-14912.0,5056.0,1664.0
6.6325,-14912.0,4992.0,1664.0
6.635,-14912.0,4992.0,1664.0
6.6375,-14976.0,5056.0,1664.0
6.64,-14976.0,4992.0,1664.0
6.6425,-14976.0,4992.0,1600.0
6.645,-14976.0,5120.0,1600.0
6.6475,-14976.0,5056.0,1536.0
6.65,-14976.0,5056.0,1536.0
6.6525,-15040.0,5056.0,1600.0
6.655,-15040.0,4992.0,1536.0
6.6575,-14976.0,5056.0,1600.0
6.66,-14976.0,4992.0,1664.0
6.6625,-14976.0,4992.0,1664.0
6.665,-15040.0,4992.0,1664.0
6.6675,-14976.0,4928.0,1600.0
6.67,-15040.0,4992.0,1600.0
6.6725,-14976.0,4928.0,1664.0
6.675,-14912.0,4928.0,1600.0
6.6775,-14976.0,4928.0,1600.0
6.68,-14976.0,4928.0,1600.0
6.6825,-14848.0,4928.0,1536.0
6.685,-14784.0,4928.0,1600.0
6.6875,-14784.0,4992.0,1600.0
6.69,-14720.0,4992.0,1600.0
6.6925,-14720.0,5056.0,1664.0
6.695,-14720.0,4992.0,1664.0
6.6975,-14720.0,4992.0,1600.0
6.7,-14656.0,5056.0,1600.0
6.7025,-14592.0,4928.0,1600.0
6.705,-14528.0,4992.0,1536.0
6.7075,-14528.0,4992.0,1472.0
6.71,-14464.0,4928.0,1536.0
6.7125,-14400.0,4864.0,1536.0
6.715,-14400.0,4928.0,1472.0
6.7175,-14400.0,4992.0,1472.0
6.72,-14272.0,4992.0,1472.0
6.7225,-14336.0,5056.0,1472.0
6.725,-14208.0,5056.0,1472.0
6.7275,-14272.0,5056.0,1472.0
6.73,-14272.0,5056.0,1408.0
6.7325,-14208.0,5120.0,1536.0
6.735,-14272.0,5184.0,1536.0
6.7375,-14272.0,5184.0,1536.0
6.74,-14272.0,5312.0,1472.0
6.7425,-14400.0,5312.0,1536.0
6.745,-14400.0,5312.0,1536.0
6.7475,-14400.0,5312.0,1536.0
6.75,-14400.0,5248.0,1536.0
6.7525,-14464.0,5312.0,1472.0
6.755,-14528.0,5376.0,1536.0
6.7575,-14528.0,5440.0,1472.0
6.76,-14592.0,5504.0,1408.0
6.7625,-14592.0,5504.0,1408.0
6.765,-14656.0,5568.0,1408.0
6.7675,-14656.0,5568.0,1280.0
6.77,-14656.0,5696.0,1280.0
6.7725,-14720.0,5696.0,1216.0
6.775,-14784.0,5696.0,1216.0
6.7775,-14784.0,5696.0,1152.0
6.78,-14912.0,5632.0,1216.0
6.7825,-14912.0,5696.0,1152.0
6.785,-14976.0,5696.0,1216.0
6.7875,-14976.0,5696.0,1216.0
6.79,-15040.0,5696.0,1216.0
6.7925,-15040.0,5632.0,1152.0
6.795,-15040.0,5568.0,1152.0
6.7975,-15040.0,5568.0,1152.0
6.8,-15104.0,5568.0,1280.0
6.8025,-15104.0,5568.0,1280.0
6.805,-14976.0,5504.0,1344.0
6.8075,-15040.0,5504.0,1216.0
6.81,-15040.0,5440.0,1152.0
6.8125,-15040.0,5440.0,1280.0
6.815,-15040.0,5376.0,1152.0
6.8175,-15040.0,5440.0,1088.0
6.82,-15104.0,5376.0,1088.0
6.8225,-15104.0,5376.0,1088.0
6.825,-15104.0,5376.0,1152.0
6.8275,-15040.0,5440.0,1088.0
6.83,-15040.0,5440.0,1088.0
6.8325,-15040.0,5440.0,1088.0
6.835,-15104.0,5440.0,1088.0
6.8375,-15040.0,5504.0,1152.0
6.84,-15104.0,5504.0,1216.0
6.8425,-15168.0,5568.0,1152.0
6.845,-15232.0,5568.0,1088.0
6.8475,-15168.0,5568.0,1088.0
6.85,-15104.0,5568.0,1152.0
6.8525,-15168.0,5568.0,1152.0
6.855,-15168.0,5504.0,1088.0
6.8575,-15296.0,5504.0,1152.0
6.86,-15296.0,5440.0,1152.0
6.8625,-15232.0,5440.0,1088.0
6.865,-15232.0,5440.0,1024.0
6.8675,-15296.0,5440.0,1088.0
6.87,-15296.0,5440.0,1024.0
6.8725,-15232.0,5440.0,1024.0
6.875,-15168.0,5376.0,1088.0
6.8775,-15232.0,5376.0,1088.0
6.88,-15040.0,5312.0,1024.0
6.8825,-14976.0,5312.0,1088.0
6.885,-14848.0,5248.0,1024.0
6.8875,-14784.0,5184.0,1088.0
6.89,-14720.0,5184.0,1088.0
6.8925,-14656.0,5184.0,1024.0
6.895,-14656.0,5120.0,1088.0
6.8975,-14592.0,5120.0,1088.0
6.9,-14464.0,5120.0,1152.0
6.9025,-14464.0,5056.0,1152.0
6.905,-14400.0,5056.0,1152.0
6.9075,-14272.0,5056.0,1216.0
6.91,-14272.0,4992.0,1216.0
6.9125,-14208.0,4992.0,1152.0
6.915,-14144.0,4928.0,1216.0
6.9175,-14208.0,4928.0,1216.0
6.92,-14272.0,4864.0,1216.0
6.9225,-14208.0,4864.0,1280.0
6.925,-14208.0,4928.0,1216.0
6.9275,-14272.0,4864.0,1216.0
6.93,-14208.0,4800.0,1152.0
6.9325,-14208.0,4800.0,1216.0
6.935,-14208.0,4864.0,1216.0
6.9375,-14208.0,4864.0,1152.0
6.94,-14336.0,4864.0,1088.0
6.9425,-14336.0,4800.0,1152.0
6.945,-14400.0,4864.0,1152.0
6.9475,-14528.0,4864.0,1152.0
6.95,-14528.0,4992.0,1152.0
6.9525,-14592.0,4992.0,1216.0
6.955,-14592.0,4992.0,1088.0
6.9575,-14656.0,4928.0,1152.0
6.96,-14784.0,5120.0,1152.0
6.9625,-14784.0,5056.0,1088.0
6.965,-14848.0,5056.0,1088.0
6.9675,-14848.0,5056.0,1088.0
6.97,-14912.0,5056.0,1088.0
6.9725,-14976.0,5120.0,1024.0
6.975,-14976.0,5120.0,1024.0
6.9775,-15040.0,5184.0,1024.0
6.98,-15040.0,5184.0,1024.0
6.9825,-15040.0,5184.0,1024.0
6.985,-15104.0,5184.0,1024.0
6.9875,-15104.0,5184.0,1088.0
6.99,-15168.0,5184.0,1024.0
6.9925,-15104.0,5120.0,1024.0
6.995,-15040.0,5184.0,1088.0
6.9975,-15104.0,5120.0,1088.0
7.0,-15040.0,5120.0,1088.0
7.0025,-15104.0,5056.0,1024.0
7.005,-14976.0,5056.0,960.0
7.0075,-14912.0,4992.0,896.0
7.01,-14912.0,4992.0,832.0
7.0125,-14848.0,4928.0,896.0
7.015,-14784.0,4864.0,960.0
7.0175,-14784.0,4864.0,960.0
7.02,-14784.0,4800.0,896.0
7.0225,-14720.0,4864.0,960.0
7.025,-14720.0,4736.0,896.0
7.0275,-14656.0,4800.0,832.0
7.03,-14656.0,4736.0,832.0
7.0325,-14720.0,4800.0,768.0
7.035,-14784.0,4800.0,768.0
7.0375,-14848.0,4864.0,768.0
7.04,-14976.0,4928.0,768.0
7.0425,-15104.0,4992.0,704.0
7.045,-15296.0,5056.0,640.0
7.0475,-15424.0,5120.0,640.0
7.05,-15488.0,5184.0,640.0
7.0525,-15552.0,5248.0,640.0
7.055,-15680.0,5312.0,576.0
7.0575,-15808.0,5376.0,576.0
7.06,-15872.0,5440.0,512.0
7.0625,-15872.0,5504.0,512.0
7.065,-15936.0,5504.0,448.0
7.0675,-16000.0,5504.0,448.0
7.07,-16000.0,5568.0,448.0
7.0725,-16128.0,5632.0,448.0
7.075,-16192.0,5632.0,512.0
7.0775,-16192.0,5632.0,384.0
7.08,-16256.0,5696.0,448.0
7.0825,-16256.0,5632.0,448.0
7.085,-16192.0,5632.0,448.0
7.0875,-16192.0,5568.0,448.0
7.09,-16256.0,5504.0,384.0
7.0925,-16256.0,5504.0,448.0
7.095,-16192.0,5440.0,448.0
7.0975,-16064.0,5376.0,448.0
7.1,-16064.0,5312.0,448.0
7.1025,-16064.0,5312.0,384.0
7.105,-16064.0,5312.0,448.0
7.1075,-16000.0,5312.0,384.0
7.11,-16000.0,5312.0,384.0
7.1125,-16000.0,5312.0,448.0
7.115,-16000.0,5376.0,448.0
7.1175,-15936.0,5376.0,448.0
7.12,-16064.0,5440.0,384.0
7.1225,-16064.0,5376.0,448.0
7.125,-16064.0,5504.0,512.0
7.1275,-16064.0,5504.0,512.0
7.13,-16128.0,5504.0,512.0
7.1325,-16128.0,5504.0,512.0
7.135,-16128.0,5504.0,512.0
7.1375,-16128.0,5504.0,512.0
7.14,-16128.0,5504.0,576.0
7.1425,-16128.0,5504.0,512.0
7.145,-16128.0,5568.0,576.0
7.1475,-16064.0,5632.0,640.0
7.15,-16064.0,5632.0,640.0
7.1525,-16000.0,5568.0,640.0
7.155,-16000.0,5568.0,576.0
7.1575,-15936.0,5568.0,576.0
7.16,-15936.0,5568.0,640.0
7.1625,-15872.0,5568.0,576.0
7.165,-15808.0,5568.0,640.0
7.1675,-15808.0,5440.0,640.0
7.17,-15680.0,5376.0,640.0
7.1725,-15616.0,5440.0,640.0
7.175,-15552.0,5376.0,640.0
7.1775,-15552.0,5312.0,704.0
7.18,-15488.0,5248.0,704.0
7.1825,-15424.0,5184.0,704.0
7.185,-15296.0,5184.0,704.0
7.1875,-15168.0,5120.0,704.0
7.19,-15168.0,5120.0,704.0
7.1925,-15104.0,5120.0,704.0
7.195,-15040.0,5056.0,704.0
7.1975,-14976.0,5056.0,704.0
7.2,-14848.0,5056.0,640.0
7.2025,-14848.0,5056.0,640.0
7.205,-14784.0,5184.0,640.0
7.2075,-14784.0,5120.0,704.0
7.21,-14848.0,5120.0,704.0
7.2125,-14848.0,5120.0,704.0
7.215,-14848.0,5120.0,704.0
7.2175,-14848.0,5120.0,768.0
7.22,-14912.0,5120.0,768.0
7.2225,-14912.0,5184.0,832.0
7.225,-14976.0,5120.0,896.0
7.2275,-14912.0,5184.0,896.0
7.23,-14976.0,5120.0,896.0
7.2325,-14912.0,5056.0,896.0
7.235,-14848.0,5056.0,960.0
7.2375,-14784.0,5056.0,960.0
7.24,-14784.0,4992.0,1024.0
7.2425,-14720.0,4992.0,1088.0
7.245,-14656.0,5056.0,1024.0
7.2475,-14592.0,4992.0,1088.0
7.25,-14592.0,4928.0,1216.0
7.2525,-14592.0,4864.0,1280.0
7.255,-14464.0,4800.0,1280.0
7.2575,-14400.0,4800.0,1280.0
7.26,-14336.0,4736.0,1280.0
7.2625,-14336.0,4672.0,1280.0
7.265,-14272.0,4608.0,1280.0
7.2675,-14272.0,4672.0,1280.0
7.27,-14208.0,4608.0,1344.0
7.2725,-14144.0,4608.0,1344.0
7.275,-14080.0,4544.0,1408.0
7.2775,-14016.0,4480.0,1344.0
7.28,-13888.0,4544.0,1408.0
7.2825,-13888.0,4480.0,1408.0
7.285,-13952.0,4544.0,1472.0
7.2875,-14016.0,4544.0,1472.0
7.29,-14016.0,4608.0,1472.0
7.2925,-14080.0,4608.0,1472.0
7.295,-14080.0,4608.0,1472.0
7.2975,-14144.0,4672.0,1472.0
7.3,-14144.0,4672.0,1472.0
7.3025,-14208.0,4736.0,1536.0
7.305,-14272.0,4800.0,1536.0
7.3075,-14272.0,4736.0,1536.0
7.31,-14400.0,4800.0,1536.0
7.3125,-14464.0,4864.0,1536.0
7.315,-14528.0,4864.0,1408.0
7.3175,-14592.0,4992.0,1472.0
7.32,-14656.0,5056.0,1472.0
7.3225,-14656.0,5056.0,1472.0
7.325,-14784.0,5056.0,1472.0
7.3275,-14848.0,5056.0,1472.0
7.33,-14912.0,5056.0,1408.0
7.3325,-15040.0,5184.0,1408.0
7.335,-15168.0,5184.0,1408.0
7.3375,-15232.0,5184.0,1408.0
7.34,-15296.0,5184.0,1408.0
7.3425,-15360.0,5184.0,1344.0
7.345,-15360.0,5184.0,1344.0
7.3475,-15360.0,5184.0,1216.0
7.35,-15360.0,5184.0,1216.0
7.3525,-15424.0,5248.0,1216.0
7.355,-15488.0,5248.0,1280.0
7.3575,-15488.0,5248.0,1280.0
7.36,-15424.0,5312.0,1216.0
7.3625,-15296.0,5312.0,1216.0
7.365,-15296.0,5312.0,1216.0
7.3675,-15296.0,5312.0,1216.0
7.37,-15232.0,5312.0,1280.0
7.3725,-15232.0,5248.0,1216.0
7.375,-15232.0,5312.0,1216.0
7.3775,-15168.0,5248.0,1216.0
7.38,-15104.0,5312.0,1216.0
7.3825,-15104.0,5312.0,1280.0
7.385,-15040.0,5312.0,1280.0
7.3875,-15104.0,5248.0,1216.0
7.39,-15104.0,5248.0,1216.0
7.3925,-15104.0,5248.0,1152.0
7.395,-15104.0,5312.0,1216.0
7.3975,-15104.0,5312.0,1280.0
7.4,-15104.0,5312.0,1344.0
7.4025,-15168.0,5376.0,1344.0
7.405,-15168.0,5440.0,1344.0
7.4075,-15168.0,5504.0,1280.0
7.41,-15232.0,5568.0,1280.0
7.4125,-15296.0,5568.0,1280.0
7.415,-15360.0,5568.0,1280.0
7.4175,-15360.0,5568.0,1280.0
7.42,-15296.0,5632.0,1344.0
7.4225,-15360.0,5696.0,1280.0
7.425,-15296.0,5696.0,1280.0
7.4275,-15296.0,5760.0,1280.0
7.43,-15296.0,5760.0,1280.0
7.4325,-15232.0,5760.0,1280.0
7.435,-15232.0,5760.0,1280.0
7.4375,-15232.0,5696.0,1280.0
7.44,-15168.0,5760.0,1216.0
7.4425,-15168.0,5824.0,1152.0
7.445,-15040.0,5824.0,1216.0
7.4475,-15168.0,5760.0,1152.0
7.45,-15232.0,5824.0,1088.0
7.4525,-15168.0,5888.0,1088.0
7.455,-15232.0,5888.0,1088.0
7.4575,-15168.0,5952.0,1152.0
7.46,-15232.0,5952.0,1088.0
7.4625,-15232.0,6016.0,1024.0
7.465,-15296.0,5952.0,1088.0
7.4675,-15296.0,5952.0,1088.0
7.47,-15296.0,6016.0,1024.0
7.4725,-15296.0,6080.0,1088.0
7.475,-15296.0,6080.0,1088.0
7.4775,-15424.0,6016.0,1088.0
7.48,-15360.0,6016.0,1088.0
7.4825,-15360.0,6080.0,1152.0
7.485,-15296.0,6016.0,1152.0
7.4875,-15296.0,6016.0,1152.0
7.49,-15232.0,6016.0,1152.0
7.4925,-15232.0,6016.0,1216.0
7.495,-15168.0,6080.0,1216.0
7.4975,-15040.0,5952.0,1152.0
7.5,-15040.0,5952.0,1216.0
7.5025,-14976.0,5952.0,1216.0
7.505,-14912.0,5952.0,1152.0
7.5075,-14848.0,5888.0,1152.0
7.51,-14848.0,5888.0,1152.0
7.5125,-14720.0,5824.0,1152.0
7.515,-14720.0,5888.0,1024.0
7.5175,-14592.0,5824.0,1024.0
7.52,-14592.0,5888.0,1088.0
7.5225,-14464.0,5824.0,1152.0
7.525,-14400.0,5824.0,1088.0
7.5275,-14400.0,5824.0,1088.0
7.53,-14400.0,5824.0,1152.0
7.5325,-14400.0,5760.0,1152.0
7.535,-14336.0,5824.0,1152.0
7.5375,-14336.0,5760.0,1152.0
7.54,-14336.0,5696.0,1152.0
7.5425,-14336.0,5760.0,1152.0
7.545,-14336.0,5760.0,1088.0
7.5475,-14336.0,5824.0,1024.0
7.55,-14336.0,5888.0,1024.0
7.5525,-14336.0,5888.0,960.0
7.555,-14336.0,5952.0,960.0
7.5575,-14400.0,5888.0,1024.0
7.56,-14400.0,5888.0,960.0
7.5625,-14400.0,5888.0,960.0
7.565,-14400.0,5888.0,960.0
7.5675,-14400.0,5952.0,896.0
7.57,-14400.0,6016.0,896.0
7.5725,-14400.0,6016.0,832.0
7.575,-14400.0,6016.0,832.0
7.5775,-14400.0,6016.0,832.0
7.58,-14464.0,5952.0,832.0
7.5825,-14592.0,5952.0,704.0
7.585,-14528.0,6016.0,832.0
7.5875,-14528.0,6016.0,768.0
7.59,-14528.0,6016.0,768.0
7.5925,-14528.0,6016.0,832.0
7.595,-14528.0,6016.0,832.0
7.5975,-14464.0,6016.0,704.0
7.6,-14464.0,6016.0,768.0
7.6025,-14464.0,6016.0,768.0
7.605,-14464.0,6016.0,704.0
7.6075,-14464.0,5952.0,640.0
7.61,-14400.0,5952.0,640.0
7.6125,-14400.0,5888.0,640.0
7.615,-14336.0,5824.0,640.0
7.6175,-14336.0,5824.0,640.0
7.62,-14336.0,5760.0,640.0
7.6225,-14336.0,5760.0,576.0
7.625,-14400.0,5760.0,576.0
7.6275,-14272.0,5696.0,512.0
7.63,-14272.0,5760.0,576.0
7.6325,-14272.0,5696.0,576.0
7.635,-14272.0,5696.0,512.0
7.6375,-14272.0,5696.0,576.0
7.64,-14208.0,5760.0,576.0
7.6425,-14272.0,5696.0,576.0
7.645,-14272.0,5760.0,576.0
7.6475,-14272.0,5696.0,576.0
7.65,-14208.0,5696.0,640.0
7.6525,-14208.0,5760.0,512.0
7.655,-14272.0,5696.0,512.0
7.6575,-14272.0,5696.0,576.0
7.66,-14336.0,5696.0,576.0
7.6625,-14336.0,5696.0,576.0
7.665,-14272.0,5632.0,576.0
7.6675,-14272.0,5632.0,640.0
7.67,-14208.0,5632.0,704.0
7.6725,-14144.0,5632.0,704.0
7.675,-14080.0,5632.0,704.0
7.6775,-14144.0,5632.0,704.0
7.68,-13952.0,5568.0,768.0
7.6825,-13888.0,5568.0,832.0
7.685,-13824.0,5568.0,832.0
7.6875,-13824.0,5504.0,896.0
7.69,-13760.0,5440.0,896.0
7.6925,-13760.0,5376.0,896.0
7.695,-13696.0,5312.0,896.0
7.6975,-13568.0,5248.0,960.0
7.7,-13568.0,5248.0,1024.0
7.7025,-13568.0,5184.0,1088.0
7.705,-13504.0,5120.0,1088.0
7.7075,-13376.0,5120.0,1088.0
7.71,-13312.0,5056.0,1088.0
7.7125,-13312.0,5056.0,1088.0
7.715,-13376.0,5056.0,1152.0
7.7175,-13376.0,5056.0,1088.0
7.72,-13376.0,5120.0,1152.0
7.7225,-13440.0,5056.0,1088.0
7.725,-13440.0,5056.0,1024.0
7.7275,-13568.0,5120.0,1152.0
7.73,-13696.0,5120.0,1088.0
7.7325,-13760.0,5184.0,1024.0
7.735,-13888.0,5248.0,1024.0
7.7375,-13888.0,5248.0,1024.0
7.74,-13952.0,5248.0,1152.0
7.7425,-14080.0,5312.0,1152.0
7.745,-14144.0,5312.0,1088.0
7.7475,-14272.0,5312.0,1152.0
7.75,-14336.0,5376.0,1088.0
7.7525,-14400.0,5376.0,1152.0
7.755,-14528.0,5312.0,1088.0
7.7575,-14592.0,5376.0,1088.0
7.76,-14784.0,5440.0,1088.0
7.7625,-14848.0,5504.0,960.0
7.765,-15040.0,5504.0,1024.0
7.7675,-15040.0,5504.0,1024.0
7.77,-15040.0,5440.0,1024.0
7.7725,-15168.0,5440.0,960.0
7.775,-15168.0,5440.0,960.0
7.7775,-15168.0,5440.0,1024.0
7.78,-15168.0,5440.0,1024.0
7.7825,-15168.0,5440.0,1088.0
7.785,-15168.0,5440.0,1088.0
7.7875,-15168.0,5376.0,1152.0
7.79,-15168.0,5312.0,1088.0
7.7925,-15104.0,5248.0,1152.0
7.795,-15040.0,5248.0,1152.0
7.7975,-14976.0,5184.0,1152.0
7.8,-14848.0,5120.0,1152.0
7.8025,-14784.0,5120.0,1216.0
7.805,-14720.0,4992.0,1280.0
7.8075,-14592.0,4992.0,1216.0
7.81,-14528.0,4864.0,1216.0
7.8125,-14400.0,4864.0,1216.0
7.815,-14400.0,4864.0,1280.0
7.8175,-14272.0,4864.0,1216.0
7.82,-14208.0,4800.0,1280.0
7.8225,-14208.0,4736.0,1280.0
7.825,-14144.0,4672.0,1280.0
7.8275,-14144.0,4672.0,1216.0
7.83,-14080.0,4608.0,1344.0
7.8325,-14080.0,4608.0,1344.0
7.835,-14080.0,4608.0,1408.0
7.8375,-14080.0,4544.0,1472.0
7.84,-14080.0,4608.0,1472.0
7.8425,-14016.0,4608.0,1472.0
7.845,-14016.0,4608.0,1472.0
7.8475,-14080.0,4608.0,1472.0
7.85,-14144.0,4672.0,1472.0
7.8525,-14144.0,4672.0,1536.0
7.855,-14208.0,4672.0,1472.0
7.8575,-14272.0,4736.0,1536.0
7.86,-14272.0,4672.0,1472.0
7.8625,-14336.0,4736.0,1472.0
7.865,-14400.0,4672.0,1472.0
7.8675,-14464.0,4672.0,1536.0
7.87,-14592.0,4736.0,1536.0
7.8725,-14592.0,4800.0,1600.0
7.875,-14592.0,4800.0,1536.0
7.8775,-14592.0,4864.0,1472.0
7.88,-14592.0,4864.0,1536.0
7.8825,-14528.0,4864.0,1472.0
7.885,-14592.0,4864.0,1408.0
7.8875,-14592.0,4928.0,1344.0
7.89,-14592.0,4864.0,1408.0
7.8925,-14656.0,4928.0,1344.0
7.895,-14592.0,4992.0,1216.0
7.8975,-14720.0,4928.0,1216.0
7.9,-14720.0,4992.0,1216.0
7.9025,-14720.0,4992.0,1152.0
7.905,-14784.0,4992.0,1152.0
7.9075,-14784.0,4992.0,1152.0
7.91,-14784.0,4992.0,1216.0
7.9125,-14848.0,5056.0,1152.0
7.915,-14848.0,5056.0,1152.0
7.9175,-14912.0,5056.0,1088.0
7.92,-14976.0,5184.0,1152.0
7.9225,-15040.0,5184.0,1088.0
7.925,-15040.0,5248.0,1024.0
7.9275,-15104.0,5312.0,1024.0
7.93,-15168.0,5312.0,1024.0
7.9325,-15104.0,5440.0,960.0
7.935,-15104.0,5440.0,896.0
7.9375,-15168.0,5504.0,896.0
7.94,-15168.0,5568.0,960.0
7.9425,-15168.0,5568.0,1024.0
7.945,-15168.0,5632.0,960.0
7.9475,-15232.0,5696.0,1024.0
7.95,-15296.0,5696.0,1024.0
7.9525,-15296.0,5760.0,960.0
7.955,-15232.0,5824.0,1024.0
7.9575,-15232.0,5824.0,1024.0
7.96,-15296.0,5888.0,1024.0
7.9625,-15232.0,5888.0,1088.0
7.965,-15232.0,5888.0,1088.0
7.9675,-15232.0,5824.0,1088.0
7.97,-15232.0,5824.0,1152.0
7.9725,-15168.0,5824.0,1152.0
7.975,-15104.0,5760.0,1152.0
7.9775,-14976.0,5696.0,1088.0
7.98,-14976.0,5696.0,1088.0
7.9825,-14912.0,5696.0,1088.0
7.985,-14784.0,5632.0,1088.0
7.9875,-14720.0,5568.0,1152.0
7.99,-14656.0,5568.0,1152.0
7.9925,-14528.0,5504.0,1152.0
7.995,-14464.0,5504.0,1152.0
7.9975,-14464.0,5504.0,1216.0
8.0,-14400.0,5440.0,1216.0
8.0025,-14336.0,5440.0,1216.0
8.005,-14336.0,5440.0,1152.0
8.0075,-14272.0,5376.0,1152.0
8.01,-14272.0,5440.0,1216.0
8.0125,-14336.0,5440.0,1216.0
8.015,-14336.0,5440.0,1216.0
8.0175,-14400.0,5504.0,1216.0
8.02,-14464.0,5440.0,1152.0
8.0225,-14464.0,5504.0,1152.0
8.025,-14464.0,5504.0,1152.0
8.0275,-14464.0,5504.0,1088.0
8.03,-14528.0,5568.0,1088.0
8.0325,-14592.0,5568.0,1024.0
8.035,-14592.0,5568.0,1088.0
8.0375,-14528.0,5504.0,1024.0
8.04,-14464.0,5568.0,1152.0
8.0425,-14528.0,5504.0,1216.0
8.045,-14528.0,5568.0,1152.0
8.0475,-14592.0,5504.0,1088.0
8.05,-14592.0,5504.0,1088.0
8.0525,-14656.0,5568.0,1088.0
8.055,-14656.0,5568.0,1216.0
8.0575,-14656.0,5568.0,1152.0
8.06,-14656.0,5632.0,1280.0
8.0625,-14656.0,5632.0,1216.0
8.065,-14656.0,5632.0,1280.0
8.0675,-14720.0,5632.0,1216.0
8.07,-14656.0,5632.0,1216.0
8.0725,-14656.0,5632.0,1152.0
8.075,-14720.0,5632.0,1152.0
8.0775,-14720.0,5632.0,1216.0
8.08,-14720.0,5632.0,1216.0
8.0825,-14656.0,5632.0,1216.0
8.085,-14656.0,5632.0,1216.0
8.0875,-14656.0,5632.0,1216.0
8.09,-14656.0,5568.0,1216.0
8.0925,-14656.0,5568.0,1216.0
8.095,-14656.0,5632.0,1216.0
8.0975,-14592.0,5568.0,1280.0
8.1,-14656.0,5504.0,1280.0
8.1025,-14592.0,5504.0,1280.0
8.105,-14528.0,5504.0,1280.0
8.1075,-14528.0,5568.0,1344.0
8.11,-14528.0,5504.0,1344.0
8.1125,-14464.0,5568.0,1344.0
8.115,-14528.0,5632.0,1344.0
8.1175,-14528.0,5632.0,1344.0
8.12,-14528.0,5568.0,1280.0
8.1225,-14592.0,5632.0,1344.0
8.125,-14656.0,5568.0,1344.0
8.1275,-14656.0,5632.0,1344.0
8.13,-14720.0,5696.0,1408.0
8.1325,-14720.0,5696.0,1344.0
8.135,-14784.0,5696.0,1408.0
8.1375,-14784.0,5696.0,1344.0
8.14,-14784.0,5760.0,1408.0
8.1425,-14912.0,5696.0,1344.0
8.145,-14912.0,5760.0,1408.0
8.1475,-14976.0,5760.0,1408.0
8.15,-15040.0,5824.0,1408.0
8.1525,-15104.0,5824.0,1344.0
8.155,-15168.0,5824.0,1344.0
8.1575,-15232.0,5824.0,1344.0
8.16,-15232.0,5952.0,1344.0
8.1625,-15360.0,5888.0,1408.0
8.165,-15360.0,5888.0,1408.0
8.1675,-15424.0,5952.0,1408.0
8.17,-15488.0,5888.0,1344.0
8.1725,-15488.0,5952.0,1280.0
8.175,-15552.0,5888.0,1280.0
8.1775,-15616.0,5888.0,1344.0
8.18,-15552.0,5888.0,1408.0
8.1825,-15616.0,5888.0,1408.0
8.185,-15552.0,5888.0,1408.0
8.1875,-15552.0,5888.0,1408.0
8.19,-15552.0,5824.0,1472.0
8.1925,-15616.0,5888.0,1536.0
8.195,-15616.0,5824.0,1536.0
8.1975,-15616.0,5824.0,1472.0
8.2,-15552.0,5760.0,1472.0
8.2025,-15424.0,5760.0,1536.0
8.205,-15424.0,5824.0,1600.0
8.2075,-15424.0,5824.0,1664.0
8.21,-15424.0,5760.0,1728.0
8.2125,-15360.0,5824.0,1728.0
8.215,-15360.0,5824.0,1664.0
8.2175,-15296.0,5824.0,1600.0
8.22,-15296.0,5888.0,1664.0
8.2225,-15296.0,5888.0,1728.0
8.225,-15232.0,5888.0,1728.0
8.2275,-15232.0,5824.0,1728.0
8.23,-15360.0,5888.0,1792.0
8.2325,-15296.0,5952.0,1792.0
8.235,-15296.0,5952.0,1792.0
8.2375,-15360.0,5952.0,1792.0
8.24,-15360.0,5888.0,1856.0
8.2425,-15424.0,5888.0,1856.0
8.245,-15424.0,5952.0,1920.0
8.2475,-15488.0,6016.0,1856.0
8.25,-15552.0,6016.0,1856.0
8.2525,-15552.0,6016.0,1792.0
8.255,-15616.0,6080.0,1856.0
8.2575,-15616.0,6144.0,1856.0
8.26,-15680.0,6208.0,1792.0
8.2625,-15680.0,6208.0,1792.0
8.265,-15616.0,6144.0,1792.0
8.2675,-15616.0,6144.0,1728.0
8.27,-15616.0,6080.0,1664.0
8.2725,-15680.0,6144.0,1728.0
8.275,-15680.0,6144.0,1792.0
8.2775,-15680.0,6208.0,1792.0
8.28,-15680.0,6272.0,1856.0
8.2825,-15616.0,6272.0,1920.0
8.285,-15552.0,6272.0,1920.0
8.2875,-15488.0,6272.0,1856.0
8.29,-15552.0,6272.0,1792.0
8.2925,-15552.0,6272.0,1792.0
8.295,-15488.0,6336.0,1792.0
8.2975,-15488.0,6272.0,1792.0
8.3,-15488.0,6272.0,1856.0
8.3025,-15488.0,6208.0,1856.0
8.305,-15488.0,6272.0,1856.0
8.3075,-15488.0,6336.0,1856.0
8.31,-15488.0,6336.0,1792.0
8.3125,-15552.0,6336.0,1792.0
8.315,-15552.0,6272.0,1728.0
8.3175,-15488.0,6336.0,1792.0
8.32,-15552.0,6400.0,1792.0
8.3225,-15488.0,6400.0,1856.0
8.325,-15552.0,6464.0,1792.0
8.3275,-15552.0,6464.0,1792.0
8.33,-15616.0,6464.0,1792.0
8.3325,-15616.0,6464.0,1792.0
8.335,-15680.0,6464.0,1792.0
8.3375,-15744.0,6528.0,1792.0
8.34,-15744.0,6528.0,1792.0
8.3425,-15744.0,6592.0,1856.0
8.345,-15744.0,6656.0,1728.0
8.3475,-15808.0,6656.0,1792.0
8.35,-15808.0,6656.0,1792.0
8.3525,-15872.0,6656.0,1792.0
8.355,-15936.0,6656.0,1728.0
8.3575,-15936.0,6720.0,1728.0
8.36,-16000.0,6720.0,1728.0
8.3625,-16064.0,6784.0,1664.0
8.365,-16064.0,6848.0,1728.0
8.3675,-16192.0,6848.0,1792.0
8.37,-16256.0,6848.0,1792.0
8.3725,-16384.0,6848.0,1792.0
8.375,-16384.0,6848.0,1728.0
8.3775,-16448.0,6848.0,1728.0
8.38,-16576.0,6848.0,1728.0
8.3825,-16640.0,6912.0,1728.0
8.385,-16640.0,6912.0,1728.0
8.3875,-16640.0,6912.0,1792.0
8.39,-16768.0,6976.0,1728.0
8.3925,-16768.0,6976.0,1728.0
8.395,-16768.0,6912.0,1728.0
8.3975,-16832.0,6912.0,1792.0
8.4,-16832.0,6912.0,1856.0
8.4025,-16768.0,6848.0,1856.0
8.405,-16768.0,6912.0,1920.0
8.4075,-16704.0,6848.0,1984.0
8.41,-16704.0,6848.0,1856.0
8.4125,-16576.0,6720.0,1920.0
8.415,-16512.0,6720.0,1984.0
8.4175,-16512.0,6656.0,2048.0
8.42,-16384.0,6656.0,1984.0
8.4225,-16384.0,6592.0,2048.0
8.425,-16384.0,6528.0,2112.0
8.4275,-16256.0,6528.0,2112.0
8.43,-16256.0,6464.0,2176.0
8.4325,-16192.0,6464.0,2304.0
8.435,-16128.0,6400.0,2240.0
8.4375,-16064.0,6400.0,2176.0
8.44,-16064.0,6400.0,2240.0
8.4425,-16064.0,6336.0,2240.0
8.445,-16000.0,6336.0,2304.0
8.4475,-16000.0,6272.0,2304.0
8.45,-16000.0,6208.0,2368.0
8.4525,-15936.0,6208.0,2304.0
8.455,-15936.0,6144.0,2368.0
8.4575,-15936.0,6144.0,2368.0
8.46,-16000.0,6208.0,2304.0
8.4625,-16064.0,6272.0,2432.0
8.465,-15936.0,6272.0,2432.0
8.4675,-15936.0,6272.0,2496.0
8.47,-15872.0,6208.0,2560.0
8.4725,-15936.0,6208.0,2496.0
8.475,-15936.0,6208.0,2624.0
8.4775,-15936.0,6208.0,2624.0
8.48,-15936.0,6208.0,2624.0
8.4825,-15936.0,6272.0,2688.0
8.485,-16000.0,6336.0,2624.0
8.4875,-16000.0,6400.0,2624.0
8.49,-16064.0,6464.0,2496.0
8.4925,-16000.0,6464.0,2496.0
8.495,-16000.0,6464.0,2496.0
8.4975,-16128.0,6464.0,2432.0
8.5,-16128.0,6464.0,2496.0
8.5025,-16128.0,6464.0,2432.0
8.505,-16128.0,6528.0,2368.0
8.5075,-16128.0,6592.0,2368.0
8.51,-16128.0,6720.0,2368.0
8.5125,-16192.0,6784.0,2368.0
8.515,-16192.0,6848.0,2368.0
8.5175,-16128.0,6784.0,2368.0
8.52,-16128.0,6848.0,2368.0
8.5225,-16064.0,6912.0,2368.0
8.525,-16128.0,6976.0,2304.0
8.5275,-16064.0,6976.0,2304.0
8.53,-16064.0,7040.0,2368.0
8.5325,-16064.0,7040.0,2368.0
8.535,-16064.0,7104.0,2304.0
8.5375,-16064.0,7104.0,2304.0
8.54,-16128.0,7104.0,2304.0
8.5425,-16128.0,7232.0,2368.0
8.545,-16128.0,7232.0,2304.0
8.5475,-16192.0,7232.0,2304.0
8.55,-16192.0,7296.0,2304.0
8.5525,-16128.0,7424.0,2240.0
8.555,-16128.0,7424.0,2240.0
8.5575,-16128.0,7424.0,2240.0
8.56,-16192.0,7360.0,2240.0
8.5625,-16256.0,7424.0,2240.0
8.565,-16256.0,7424.0,2240.0
8.5675,-16256.0,7488.0,2176.0
8.57,-16256.0,7552.0,2176.0
8.5725,-16256.0,7552.0,2176.0
8.575,-16256.0,7616.0,2048.0
8.5775,-16256.0,7616.0,2048.0
8.58,-16256.0,7616.0,2048.0
8.5825,-16192.0,7616.0,1984.0
8.585,-16192.0,7616.0,2048.0
8.5875,-16192.0,7744.0,2048.0
8.59,-16192.0,7680.0,2048.0
8.5925,-16192.0,7616.0,2048.0
8.595,-16128.0,7616.0,2048.0
8.5975,-16064.0,7616.0,2176.0
8.6,-16064.0,7616.0,2176.0
8.6025,-16064.0,7552.0,2240.0
8.605,-16064.0,7552.0,2176.0
8.6075,-16064.0,7552.0,2176.0
8.61,-16128.0,7552.0,2176.0
8.6125,-16000.0,7552.0,2176.0
8.615,-16000.0,7552.0,2240.0
8.6175,-16000.0,7552.0,2112.0
8.62,-16000.0,7552.0,2176.0
8.6225,-15936.0,7552.0,2112.0
8.625,-15808.0,7552.0,2176.0
8.6275,-15808.0,7552.0,2176.0
8.63,-15808.0,7488.0,2240.0
8.6325,-15744.0,7488.0,2240.0
8.635,-15744.0,7488.0,2368.0
8.6375,-15680.0,7488.0,2304.0
8.64,-15680.0,7360.0,2432.0
8.6425,-15616.0,7424.0,2432.0
8.645,-15552.0,7424.0,2432.0
8.6475,-15552.0,7424.0,2432.0
8.65,-15552.0,7360.0,2432.0
8.6525,-15488.0,7296.0,2432.0
8.655,-15552.0,7296.0,2368.0
8.6575,-15552.0,7296.0,2368.0
8.66,-15552.0,7296.0,2368.0
8.6625,-15552.0,7232.0,2368.0
8.665,-15488.0,7168.0,2368.0
8.6675,-15488.0,7232.0,2368.0
8.67,-15552.0,7232.0,2304.0
8.6725,-15552.0,7232.0,2368.0
8.675,-15552.0,7232.0,2304.0
8.6775,-15552.0,7360.0,2368.0
8.68,-15616.0,7360.0,2304.0
8.6825,-15616.0,7424.0,2240.0
8.685,-15680.0,7424.0,2304.0
8.6875,-15680.0,7424.0,2176.0
8.69,-15744.0,7488.0,2112.0
8.6925,-15808.0,7552.0,2176.0
8.695,-15872.0,7616.0,2112.0
8.6975,-15872.0,7680.0,2112.0
8.7,-15936.0,7680.0,2112.0
8.7025,-16064.0,7808.0,2112.0
8.705,-16128.0,7808.0,2048.0
8.7075,-16192.0,7744.0,2048.0
8.71,-16256.0,7808.0,1984.0
8.7125,-16320.0,7872.0,1920.0
8.715,-16384.0,7808.0,1856.0
8.7175,-16448.0,7872.0,1792.0
8.72,-16640.0,7872.0,1664.0
8.7225,-16640.0,7936.0,1728.0
8.725,-16704.0,7936.0,1728.0
8.7275,-16704.0,7936.0,1728.0
8.73,-16768.0,8000.0,1600.0
8.7325,-16768.0,8000.0,1664.0
8.735,-16768.0,8064.0,1600.0
8.7375,-16768.0,8128.0,1536.0
8.74,-16832.0,8128.0,1536.0
8.7425,-16832.0,8128.0,1536.0
8.745,-16896.0,8128.0,1472.0
8.7475,-16832.0,8128.0,1472.0
8.75,-16832.0,8128.0,1472.0
8.7525,-16896.0,8128.0,1472.0
8.755,-16896.0,8128.0,1472.0
8.7575,-16896.0,8128.0,1472.0
8.76,-16896.0,8192.0,1472.0
8.7625,-16896.0,8192.0,1472.0
8.765,-16960.0,8256.0,1536.0
8.7675,-17024.0,8256.0,1536.0
8.77,-16960.0,8256.0,1600.0
8.7725,-16960.0,8256.0,1536.0
8.775,-17024.0,8192.0,1536.0
8.7775,-16960.0,8256.0,1536.0
8.78,-16960.0,8192.0,1536.0
8.7825,-16960.0,8128.0,1536.0
8.785,-16960.0,8128.0,1600.0
8.7875,-16960.0,8192.0,1600.0
8.79,-17024.0,8128.0,1536.0
8.7925,-17024.0,8128.0,1536.0
8.795,-17088.0,8192.0,1600.0
8.7975,-17024.0,8128.0,1600.0
8.8,-17088.0,8128.0,1600.0
8.8025,-17088.0,8128.0,1600.0
8.805,-17088.0,8192.0,1600.0
8.8075,-17088.0,8192.0,1664.0
8.81,-17088.0,8192.0,1728.0
8.8125,-17088.0,8128.0,1792.0
8.815,-17088.0,8128.0,1792.0
8.8175,-17152.0,8064.0,1728.0
8.82,-17152.0,8064.0,1728.0
8.8225,-17088.0,8128.0,1792.0
8.825,-17088.0,8128.0,1856.0
8.8275,-17088.0,8128.0,1792.0
8.83,-17152.0,8128.0,1792.0
8.8325,-17088.0,8064.0,1728.0
8.835,-17152.0,8128.0,1728.0
8.8375,-17088.0,8128.0,1792.0
8.84,-17152.0,8128.0,1792.0
8.8425,-17152.0,8064.0,1792.0
8.845,-17152.0,8064.0,1792.0
8.8475,-17152.0,8064.0,1856.0
8.85,-17152.0,8064.0,1856.0
8.8525,-17152.0,8064.0,1856.0
8.855,-17152.0,8000.0,1856.0
8.8575,-17088.0,8000.0,1920.0
8.86,-17024.0,8064.0,1984.0
8.8625,-17024.0,8064.0,2048.0
8.865,-17024.0,8064.0,2048.0
8.8675,-17024.0,8064.0,2112.0
8.87,-17024.0,8064.0,2176.0
8.8725,-16960.0,8000.0,2112.0
8.875,-16960.0,8000.0,2112.0
8.8775,-16896.0,8064.0,2112.0
8.88,-16896.0,8000.0,2176.0
8.8825,-16832.0,8000.0,2176.0
8.885,-16896.0,7936.0,2240.0
8.8875,-16896.0,8000.0,2368.0
8.89,-16896.0,7936.0,2304.0
8.8925,-16896.0,7936.0,2368.0
8.895,-16896.0,7936.0,2432.0
8.8975,-16896.0,7936.0,2368.0
8.9,-16896.0,7872.0,2432.0
8.9025,-16832.0,7936.0,2432.0
8.905,-16832.0,7872.0,2432.0
8.9075,-16832.0,7872.0,2432.0
8.91,-16832.0,7872.0,2496.0
8.9125,-16896.0,7936.0,2560.0
8.915,-16896.0,7936.0,2624.0
8.9175,-16960.0,7936.0,2624.0
8.92,-16960.0,7936.0,2752.0
8.9225,-16960.0,7936.0,2688.0
8.925,-16960.0,7936.0,2624.0
8.9275,-16896.0,8000.0,2624.0
8.93,-16832.0,7936.0,2624.0
8.9325,-16832.0,7936.0,2688.0
8.935,-16832.0,7872.0,2688.0
8.9375,-16832.0,7872.0,2752.0
8.94,-16832.0,7872.0,2816.0
8.9425,-16768.0,7872.0,2880.0
8.945,-16768.0,7872.0,2880.0
8.9475,-16704.0,7872.0,2944.0
8.95,-16768.0,7808.0,2880.0
8.9525,-16704.0,7744.0,2944.0
8.955,-16640.0,7808.0,2944.0
8.9575,-16576.0,7680.0,2944.0
8.96,-16640.0,7680.0,3072.0
8.9625,-16576.0,7616.0,3072.0
8.965,-16512.0,7680.0,3008.0
8.9675,-16448.0,7616.0,3072.0
8.97,-16448.0,7552.0,3072.0
8.9725,-16384.0,7488.0,3072.0
8.975,-16384.0,7424.0,3008.0
8.9775,-16384.0,7552.0,3008.0
8.98,-16384.0,7552.0,3008.0
8.9825,-16384.0,7488.0,2944.0
8.985,-16384.0,7424.0,2944.0
8.9875,-16384.0,7424.0,2944.0
8.99,-16384.0,7424.0,2944.0
8.9925,-16384.0,7424.0,2944.0
8.995,-16320.0,7488.0,2880.0
8.9975,-16384.0,7488.0,2816.0
9.0,-16384.0,7424.0,2816.0
9.0025,-16384.0,7424.0,2752.0
9.005,-16448.0,7488.0,2752.0
9.0075,-16448.0,7488.0,2752.0
9.01,-16512.0,7552.0,2752.0
9.0125,-16512.0,7552.0,2752.0
9.015,-16576.0,7616.0,2688.0
9.0175,-16640.0,7616.0,2688.0
9.02,-16704.0,7552.0,2624.0
9.0225,-16704.0,7552.0,2560.0
9.025,-16640.0,7616.0,2496.0
9.0275,-16640.0,7680.0,2496.0
9.03,-16704.0,7680.0,2432.0
9.0325,-16704.0,7680.0,2368.0
9.035,-16704.0,7680.0,2368.0
9.0375,-16704.0,7680.0,2304.0
9.04,-16640.0,7744.0,2304.0
9.0425,-16704.0,7808.0,2304.0
9.045,-16704.0,7808.0,2240.0
9.0475,-16704.0,7872.0,2240.0
9.05,-16704.0,7872.0,2240.0
9.0525,-16704.0,7872.0,2176.0
9.055,-16704.0,7808.0,2176.0
9.0575,-16704.0,7872.0,2176.0
9.06,-16640.0,7936.0,2112.0
9.0625,-16704.0,7872.0,2112.0
9.065,-16704.0,7808.0,2112.0
9.0675,-16640.0,7872.0,2112.0
9.07,-16576.0,7808.0,2112.0
9.0725,-16640.0,7808.0,2112.0
9.075,-16640.0,7808.0,2112.0
9.0775,-16640.0,7872.0,2112.0
9.08,-16576.0,7872.0,2112.0
9.0825,-16576.0,7936.0,2112.0
9.085,-16576.0,7936.0,2048.0
9.0875,-16512.0,7936.0,2048.0
9.09,-16576.0,7872.0,2048.0
9.0925,-16512.0,7808.0,2048.0
9.095,-16576.0,7808.0,1984.0
9.0975,-16512.0,7744.0,2048.0
9.1,-16448.0,7680.0,2112.0
9.1025,-16448.0,7680.0,2048.0
9.105,-16448.0,7680.0,2112.0
9.1075,-16384.0,7616.0,2112.0
9.11,-16320.0,7552.0,2048.0
9.1125,-16256.0,7488.0,2048.0
9.115,-16128.0,7488.0,2176.0
9.1175,-16064.0,7424.0,2240.0
9.12,-15872.0,7424.0,2176.0
9.1225,-15872.0,7296.0,2112.0
9.125,-15808.0,7296.0,2176.0
9.1275,-15744.0,7232.0,2176.0
9.13,-15744.0,7232.0,2112.0
9.1325,-15680.0,7232.0,2176.0
9.135,-15680.0,7232.0,2176.0
9.1375,-15616.0,7104.0,2176.0
9.14,-15552.0,7104.0,2240.0
9.1425,-15552.0,7040.0,2240.0
9.145,-15488.0,7040.0,2112.0
9.1475,-15488.0,6912.0,2240.0
9.15,-15424.0,6848.0,2240.0
9.1525,-15424.0,6848.0,2240.0
9.155,-15360.0,6848.0,2176.0
9.1575,-15232.0,6784.0,2176.0
9.16,-15296.0,6784.0,2240.0
9.1625,-15168.0,6656.0,2240.0
9.165,-15168.0,6720.0,2240.0
9.1675,-15168.0,6592.0,2240.0
9.17,-15040.0,6592.0,2240.0
9.1725,-14976.0,6592.0,2304.0
9.175,-15040.0,6592.0,2304.0
9.1775,-14976.0,6528.0,2304.0
9.18,-14912.0,6528.0,2240.0
9.1825,-14912.0,6464.0,2176.0
9.185,-14848.0,6464.0,2304.0
9.1875,-14848.0,6400.0,2176.0
9.19,-14784.0,6400.0,2176.0
9.1925,-14784.0,6336.0,2176.0
9.195,-14784.0,6336.0,2176.0
9.1975,-14784.0,6336.0,2176.0
9.2,-14848.0,6464.0,2112.0
9.2025,-14848.0,6464.0,2112.0
9.205,-14848.0,6528.0,2048.0
9.2075,-14912.0,6528.0,1984.0
9.21,-14976.0,6528.0,1920.0
9.2125,-14976.0,6528.0,1920.0
9.215,-14976.0,6656.0,1792.0
9.2175,-15104.0,6656.0,1856.0
9.22,-15104.0,6656.0,1792.0
9.2225,-15168.0,6720.0,1792.0
9.225,-15168.0,6784.0,1792.0
9.2275,-15232.0,6848.0,1664.0
9.23,-15360.0,6912.0,1664.0
9.2325,-15360.0,6912.0,1664.0
9.235,-15424.0,6912.0,1664.0
9.2375,-15488.0,6976.0,1664.0
9.24,-15488.0,6976.0,1536.0
9.2425,-15552.0,6976.0,1472.0
9.245,-15552.0,7040.0,1536.0
9.2475,-15552.0,7040.0,1472.0
9.25,-15616.0,7040.0,1472.0
9.2525,-15552.0,7040.0,1536.0
9.255,-15488.0,6976.0,1472.0
9.2575,-15488.0,6976.0,1536.0
9.26,-15424.0,6976.0,1600.0
9.2625,-15360.0,6976.0,1600.0
9.265,-15360.0,6912.0,1536.0
9.2675,-15232.0,6976.0,1536.0
9.27,-15168.0,6976.0,1536.0
9.2725,-15040.0,6976.0,1472.0
9.275,-15040.0,6912.0,1344.0
9.2775,-15040.0,6912.0,1408.0
9.28,-14976.0,6848.0,1408.0
9.2825,-14912.0,6848.0,1472.0
9.285,-14848.0,6848.0,1472.0
9.2875,-14784.0,6720.0,1472.0
9.29,-14784.0,6720.0,1536.0
9.2925,-14720.0,6656.0,1472.0
9.295,-14720.0,6720.0,1536.0
9.2975,-14656.0,6720.0,1536.0
9.3,-14656.0,6656.0,1472.0
9.3025,-14592.0,6656.0,1472.0
9.305,-14592.0,6592.0,1472.0
9.3075,-14528.0,6592.0,1472.0
9.31,-14592.0,6528.0,1408.0
9.3125,-14656.0,6656.0,1472.0
9.315,-14656.0,6656.0,1408.0
9.3175,-14656.0,6592.0,1408.0
9.32,-14720.0,6528.0,1472.0
9.3225,-14720.0,6528.0,1408.0
9.325,-14720.0,6528.0,1408.0
9.3275,-14784.0,6528.0,1408.0
9.33,-14784.0,6464.0,1408.0
9.3325,-14848.0,6464.0,1408.0
9.335,-14784.0,6528.0,1408.0
9.3375,-14912.0,6464.0,1344.0
9.34,-14976.0,6464.0,1344.0
9.3425,-14912.0,6464.0,1408.0
9.345,-14976.0,6400.0,1344.0
9.3475,-14976.0,6464.0,1408.0
9.35,-14976.0,6400.0,1344.0
9.3525,-14912.0,6336.0,1408.0
9.355,-14912.0,6400.0,1344.0
9.3575,-14912.0,6464.0,1408.0
9.36,-14784.0,6400.0,1344.0
9.3625,-14720.0,6336.0,1408.0
9.365,-14656.0,6400.0,1344.0
9.3675,-14592.0,6400.0,1344.0
9.37,-14592.0,6400.0,1408.0
9.3725,-14528.0,6336.0,1408.0
9.375,-14464.0,6336.0,1472.0
9.3775,-14464.0,6336.0,1472.0
9.38,-14464.0,6272.0,1472.0
9.3825,-14400.0,6272.0,1536.0
9.385,-14464.0,6336.0,1536.0
9.3875,-14400.0,6336.0,1536.0
9.39,-14400.0,6272.0,1600.0
9.3925,-14400.0,6336.0,1664.0
9.395,-14336.0,6272.0,1664.0
9.3975,-14336.0,6272.0,1664.0
9.4,-14336.0,6272.0,1728.0
9.4025,-14400.0,6208.0,1728.0
9.405,-14400.0,6208.0,1664.0
9.4075,-14336.0,6272.0,1664.0
9.41,-14336.0,6272.0,1664.0
9.4125,-14400.0,6272.0,1664.0
9.415,-14464.0,6272.0,1600.0
9.4175,-14528.0,6336.0,1600.0
9.42,-14592.0,6272.0,1600.0
9.4225,-14592.0,6336.0,1600.0
9.425,-14656.0,6336.0,1600.0
9.4275,-14656.0,6336.0,1600.0
9.43,-14656.0,6272.0,1600.0
9.4325,-14656.0,6272.0,1664.0
9.435,-14592.0,6336.0,1664.0
9.4375,-14592.0,6336.0,1664.0
9.44,-14592.0,6272.0,1600.0
9.4425,-14528.0,6272.0,1728.0
9.445,-14464.0,6272.0,1664.0
9.4475,-14400.0,6336.0,1728.0
9.45,-14336.0,6400.0,1728.0
9.4525,-14272.0,6400.0,1792.0
9.455,-14208.0,6272.0,1792.0
9.4575,-14208.0,6336.0,1792.0
9.46,-14144.0,6336.0,1792.0
9.4625,-14144.0,6336.0,1792.0
9.465,-14080.0,6400.0,1792.0
9.4675,-13952.0,6336.0,1856.0
9.47,-13888.0,6336.0,1920.0
9.4725,-13888.0,6336.0,1856.0
9.475,-13888.0,6336.0,1792.0
9.4775,-13824.0,6336.0,1856.0
9.48,-13824.0,6336.0,1856.0
9.4825,-13888.0,6336.0,1920.0
9.485,-13952.0,6400.0,1920.0
9.4875,-13952.0,6400.0,1920.0
9.49,-14016.0,6400.0,1920.0
9.4925,-14016.0,6400.0,1920.0
9.495,-13952.0,6400.0,1792.0
9.4975,-14016.0,6400.0,1792.0
9.5,-14080.0,6400.0,1792.0
9.5025,-14208.0,6400.0,1728.0
9.505,-14272.0,6464.0,1728.0
9.5075,-14336.0,6464.0,1792.0
9.51,-14400.0,6464.0,1728.0
9.5125,-14464.0,6464.0,1664.0
9.515,-14464.0,6464.0,1664.0
9.5175,-14592.0,6464.0,1600.0
9.52,-14720.0,6592.0,1600.0
9.5225,-14784.0,6656.0,1600.0
9.525,-14848.0,6656.0,1536.0
9.5275,-14912.0,6720.0,1472.0
9.53,-15040.0,6784.0,1536.0
9.5325,-15040.0,6848.0,1600.0
9.535,-15168.0,6848.0,1536.0
9.5375,-15232.0,6912.0,1536.0
9.54,-15296.0,6912.0,1600.0
9.5425,-15360.0,6912.0,1600.0
9.545,-15424.0,6976.0,1536.0
9.5475,-15488.0,6912.0,1600.0
9.55,-15552.0,6976.0,1600.0
9.5525,-15616.0,6976.0,1600.0
9.555,-15680.0,7040.0,1536.0
9.5575,-15680.0,6976.0,1600.0
9.56,-15552.0,6976.0,1536.0
9.5625,-15552.0,6976.0,1536.0
9.565,-15552.0,6976.0,1536.0
9.5675,-15552.0,6912.0,1408.0
9.57,-15424.0,6976.0,1408.0
9.5725,-15360.0,6976.0,1408.0
9.575,-15232.0,6848.0,1472.0
9.5775,-15232.0,6720.0,1600.0
9.58,-15232.0,6656.0,1664.0
9.5825,-15168.0,6592.0,1664.0
9.585,-15168.0,6592.0,1728.0
9.5875,-15168.0,6592.0,1792.0
9.59,-15104.0,6464.0,1728.0
9.5925,-15104.0,6464.0,1792.0
9.595,-15040.0,6464.0,1728.0
9.5975,-14976.0,6400.0,1792.0
9.6,-14848.0,6464.0,1792.0
9.6025,-14848.0,6464.0,1792.0
9.605,-14784.0,6464.0,1728.0
9.6075,-14784.0,6400.0,1728.0
9.61,-14784.0,6400.0,1600.0
9.6125,-14784.0,6464.0,1664.0
9.615,-14784.0,6400.0,1664.0
9.6175,-14784.0,6464.0,1600.0
9.62,-14784.0,6464.0,1664.0
9.6225,-14848.0,6592.0,1664.0
9.625,-14848.0,6592.0,1664.0
9.6275,-14848.0,6656.0,1600.0
9.63,-14848.0,6656.0,1600.0
9.6325,-14912.0,6656.0,1600.0
9.635,-14912.0,6656.0,1536.0
9.6375,-14976.0,6656.0,1472.0
9.64,-15104.0,6720.0,1536.0
9.6425,-15168.0,6720.0,1472.0
9.645,-15168.0,6720.0,1472.0
9.6475,-15232.0,6784.0,1408.0
9.65,-15168.0,6848.0,1344.0
9.6525,-15168.0,6912.0,1280.0
9.655,-15168.0,6848.0,1280.0
9.6575,-15168.0,6848.0,1280.0
9.66,-15232.0,6912.0,1216.0
9.6625,-15232.0,6912.0,1216.0
9.665,-15296.0,6976.0,1152.0
9.6675,-15232.0,6976.0,1088.0
9.67,-15232.0,6912.0,1088.0
9.6725,-15232.0,6976.0,960.0
9.675,-15232.0,6976.0,960.0
9.6775,-15168.0,6912.0,960.0
9.68,-15168.0,6976.0,896.0
9.6825,-15104.0,6976.0,896.0
9.685,-15168.0,6976.0,768.0
9.6875,-15168.0,6976.0,768.0
9.69,-15104.0,6976.0,832.0
9.6925,-15104.0,6976.0,768.0
9.695,-15040.0,6976.0,768.0
9.6975,-14976.0,6912.0,704.0
9.7,-14976.0,6848.0,704.0
9.7025,-14976.0,6848.0,704.0
9.705,-14976.0,6784.0,640.0
9.7075,-14912.0,6720.0,640.0
9.71,-14848.0,6656.0,640.0
9.7125,-14784.0,6656.0,640.0
9.715,-14720.0,6592.0,704.0
9.7175,-14720.0,6592.0,640.0
9.72,-14656.0,6528.0,640.0
9.7225,-14656.0,6464.0,704.0
9.725,-14656.0,6400.0,704.0
9.7275,-14592.0,6400.0,640.0
9.73,-14464.0,6336.0,768.0
9.7325,-14336.0,6272.0,832.0
9.735,-14336.0,6272.0,832.0
9.7375,-14272.0,6144.0,896.0
9.74,-14208.0,6144.0,832.0
9.7425,-14144.0,6016.0,896.0
9.745,-14144.0,6016.0,896.0
9.7475,-14016.0,5952.0,960.0
9.75,-14016.0,5952.0,960.0
9.7525,-13952.0,5888.0,832.0
9.755,-13888.0,5824.0,896.0
9.7575,-13824.0,5760.0,896.0
9.76,-13760.0,5632.0,960.0
9.7625,-13696.0,5632.0,960.0
9.765,-13696.0,5568.0,1088.0
9.7675,-13632.0,5504.0,1024.0
9.77,-13568.0,5504.0,1088.0
9.7725,-13504.0,5504.0,1152.0
9.775,-13568.0,5504.0,1216.0
9.7775,-13440.0,5568.0,1216.0
9.78,-13440.0,5504.0,1280.0
9.7825,-13376.0,5568.0,1216.0
9.785,-13504.0,5568.0,1216.0
9.7875,-13504.0,5568.0,1152.0
9.79,-13504.0,5504.0,1216.0
9.7925,-13504.0,5568.0,1216.0
9.795,-13568.0,5568.0,1152.0
9.7975,-13632.0,5632.0,1152.0
9.8,-13760.0,5632.0,1088.0
9.8025,-13760.0,5632.0,1088.0
9.805,-13888.0,5696.0,960.0
9.8075,-13952.0,5632.0,960.0
9.81,-14016.0,5696.0,1024.0
9.8125,-14080.0,5760.0,960.0
9.815,-14144.0,5696.0,1024.0
9.8175,-14208.0,5696.0,1024.0
9.82,-14272.0,5760.0,1024.0
9.8225,-14336.0,5760.0,960.0
9.825,-14464.0,5824.0,896.0
9.8275,-14528.0,5824.0,896.0
9.83,-14592.0,5824.0,896.0
9.8325,-14656.0,5888.0,832.0
9.835,-14784.0,5888.0,896.0
9.8375,-14784.0,5888.0,896.0
9.84,-14848.0,5952.0,896.0
9.8425,-14848.0,5888.0,832.0
9.845,-14912.0,5888.0,832.0
9.8475,-14848.0,5888.0,768.0
9.85,-14912.0,5888.0,768.0
9.8525,-14848.0,5888.0,768.0
9.855,-14848.0,5888.0,704.0
9.8575,-14848.0,5888.0,704.0
9.86,-14848.0,5952.0,640.0
9.8625,-14848.0,5888.0,640.0
9.865,-14848.0,5888.0,640.0
9.8675,-14848.0,5888.0,640.0
9.87,-14848.0,5888.0,640.0
9.8725,-14848.0,5888.0,640.0
9.875,-14912.0,5824.0,704.0
9.8775,-14912.0,5888.0,704.0
9.88,-14848.0,5888.0,704.0
9.8825,-14720.0,5824.0,704.0
9.885,-14720.0,5824.0,704.0
9.8875,-14784.0,5824.0,704.0
9.89,-14656.0,5760.0,640.0
9.8925,-14592.0,5760.0,640.0
9.895,-14528.0,5760.0,576.0
9.8975,-14528.0,5760.0,640.0
9.9,-14592.0,5760.0,704.0
9.9025,-14528.0,5760.0,768.0
9.905,-14528.0,5696.0,704.0
9.9075,-14528.0,5696.0,704.0
9.91,-14528.0,5696.0,704.0
9.9125,-14528.0,5696.0,704.0
9.915,-14464.0,5760.0,704.0
9.9175,-14528.0,5760.0,704.0
9.92,-14464.0,5632.0,704.0
9.9225,-14528.0,5632.0,640.0
9.925,-14528.0,5632.0,640.0
9.9275,-14464.0,5696.0,576.0
9.93,-14464.0,5632.0,640.0
9.9325,-14464.0,5632.0,640.0
9.935,-14528.0,5632.0,640.0
9.9375,-14528.0,5632.0,704.0
9.94,-14528.0,5504.0,704.0
9.9425,-14528.0,5504.0,704.0
9.945,-14528.0,5504.0,704.0
9.9475,-14464.0,5440.0,640.0
9.95,-14400.0,5440.0,640.0
9.9525,-14464.0,5376.0,576.0
9.955,-14464.0,5376.0,576.0
9.9575,-14528.0,5440.0,576.0
9.96,-14464.0,5440.0,576.0
9.9625,-14528.0,5440.0,640.0
9.965,-14528.0,5312.0,640.0
9.9675,-14592.0,5312.0,576.0
9.97,-14592.0,5376.0,576.0
9.9725,-14656.0,5376.0,576.0
9.975,-14592.0,5376.0,576.0
9.9775,-14656.0,5376.0,512.0
9.98,-14592.0,5376.0,576.0
9.9825,-14656.0,5376.0,512.0
9.985,-14592.0,5376.0,512.0
9.9875,-14592.0,5376.0,576.0
9.99,-14656.0,5376.0,576.0
9.9925,-14720.0,5312.0,640.0
9.995,-14720.0,5312.0,640.0
9.9975,-14720.0,5376.0,640.0
10.0,-14720.0,5312.0,640.0
10.0025,-14720.0,5248.0,640.0
10.005,-14720.0,5184.0,704.0
10.0075,-14720.0,5248.0,704.0
10.01,-14656.0,5184.0,640.0
10.0125,-14656.0,5184.0,640.0
10.015,-14592.0,5184.0,704.0
10.0175,-14528.0,5184.0,640.0
10.02,-14528.0,5184.0,704.0
10.0225,-14592.0,5248.0,704.0
10.025,-14592.0,5184.0,768.0
10.0275,-14528.0,5248.0,768.0
10.03,-14528.0,5312.0,832.0
10.0325,-14528.0,5312.0,768.0
10.035,-14592.0,5312.0,832.0
10.0375,-14592.0,5376.0,832.0
10.04,-14592.0,5376.0,768.0
10.0425,-14592.0,5440.0,768.0
10.045,-14656.0,5504.0,768.0
10.0475,-14656.0,5504.0,768.0
10.05,-14656.0,5568.0,768.0
10.0525,-14720.0,5568.0,768.0
10.055,-14848.0,5632.0,768.0
10.0575,-14848.0,5632.0,768.0
10.06,-14912.0,5696.0,832.0
10.0625,-14912.0,5696.0,896.0
10.065,-14976.0,5760.0,768.0
10.0675,-14976.0,5760.0,768.0
10.07,-14976.0,5760.0,832.0
10.0725,-14976.0,5760.0,832.0
10.075,-14976.0,5760.0,768.0
10.0775,-15040.0,5824.0,768.0
10.08,-14976.0,5824.0,832.0
10.0825,-15040.0,5760.0,896.0
10.085,-15040.0,5760.0,896.0
10.0875,-14912.0,5696.0,896.0
10.09,-14848.0,5632.0,960.0
10.0925,-14720.0,5632.0,960.0
10.095,-14656.0,5632.0,960.0
10.0975,-14592.0,5568.0,1024.0
10.1,-14528.0,5568.0,1088.0
10.1025,-14336.0,5504.0,1088.0
10.105,-14336.0,5440.0,1088.0
10.1075,-14272.0,5440.0,1024.0
10.11,-14208.0,5376.0,1088.0
10.1125,-14144.0,5312.0,1088.0
10.115,-14144.0,5312.0,1024.0
10.1175,-14144.0,5312.0,1024.0
10.12,-14144.0,5312.0,1088.0
10.1225,-14208.0,5376.0,1088.0
10.125,-14208.0,5376.0,1024.0
10.1275,-14336.0,5376.0,1024.0
10.13,-14464.0,5376.0,1088.0
10.1325,-14528.0,5504.0,1024.0
10.135,-14656.0,5568.0,960.0
10.1375,-14720.0,5696.0,1024.0
10.14,-14848.0,5632.0,1024.0
10.1425,-14976.0,5696.0,896.0
10.145,-15104.0,5760.0,960.0
10.1475,-15232.0,5888.0,832.0
10.15,-15360.0,5952.0,896.0
10.1525,-15424.0,5952.0,832.0
10.155,-15488.0,5952.0,896.0
10.1575,-15488.0,6016.0,832.0
10.16,-15616.0,6144.0,832.0
10.1625,-15680.0,6144.0,832.0
10.165,-15744.0,6208.0,768.0
10.1675,-15680.0,6144.0,832.0
10.17,-15680.0,6208.0,832.0
10.1725,-15616.0,6144.0,896.0
10.175,-15552.0,6208.0,832.0
10.1775,-15552.0,6144.0,896.0
10.18,-15488.0,6144.0,896.0
10.1825,-15424.0,6080.0,1024.0
10.185,-15296.0,6016.0,1024.0
10.1875,-15232.0,6080.0,896.0
10.19,-15168.0,6080.0,960.0
10.1925,-15040.0,6016.0,896.0
10.195,-14976.0,6016.0,960.0
10.1975,-14848.0,5952.0,1088.0
10.2,-14848.0,5952.0,1088.0
10.2025,-14720.0,5952.0,1024.0
10.205,-14720.0,5952.0,1024.0
10.2075,-14592.0,5952.0,1088.0
10.21,-14656.0,5952.0,1088.0
10.2125,-14656.0,5888.0,1152.0
10.215,-14656.0,5888.0,1216.0
10.2175,-14656.0,6016.0,1280.0
10.22,-14720.0,6016.0,1280.0
10.2225,-14720.0,6016.0,1216.0
10.225,-14784.0,6016.0,1280.0
10.2275,-14784.0,6016.0,1280.0
10.23,-14784.0,5952.0,1280.0
10.2325,-14784.0,5952.0,1280.0
10.235,-14784.0,5888.0,1280.0
10.2375,-14848.0,5888.0,1216.0
10.24,-14848.0,5824.0,1216.0
10.2425,-14784.0,5888.0,1152.0
10.245,-14784.0,5952.0,1216.0
10.2475,-14720.0,5888.0,1216.0
10.25,-14784.0,5888.0,1152.0
10.2525,-14784.0,5952.0,1152.0
10.255,-14720.0,5888.0,1088.0
10.2575,-14784.0,5888.0,1088.0
10.26,-14720.0,5888.0,1152.0
10.2625,-14720.0,5760.0,1088.0
10.265,-14720.0,5760.0,1152.0
10.2675,-14720.0,5760.0,1024.0
10.27,-14656.0,5760.0,1024.0
10.2725,-14720.0,5760.0,960.0
10.275,-14720.0,5760.0,960.0
10.2775,-14784.0,5824.0,896.0
10.28,-14848.0,5888.0,896.0
10.2825,-14912.0,5952.0,768.0
10.285,-14976.0,5952.0,768.0
10.2875,-14976.0,6016.0,640.0
10.29,-15040.0,6080.0,512.0
10.2925,-15104.0,6080.0,512.0
10.295,-15104.0,6144.0,512.0
10.2975,-15232.0,6208.0,512.0
10.3,-15296.0,6272.0,448.0
10.3025,-15360.0,6272.0,384.0
10.305,-15424.0,6336.0,384.0
10.3075,-15488.0,6336.0,384.0
10.31,-15552.0,6272.0,320.0
10.3125,-15616.0,6272.0,256.0
10.315,-15616.0,6272.0,256.0
10.3175,-15616.0,6208.0,256.0
10.32,-15616.0,6144.0,192.0
10.3225,-15552.0,6144.0,256.0
10.325,-15616.0,6080.0,256.0
10.3275,-15616.0,6080.0,192.0
10.33,-15552.0,6144.0,128.0
10.3325,-15424.0,6080.0,128.0
10.335,-15424.0,6016.0,128.0
10.3375,-15360.0,5952.0,128.0
10.34,-15296.0,6016.0,128.0
10.3425,-15296.0,5952.0,0.0
10.345,-15296.0,6016.0,-64.0
10.3475,-15232.0,6016.0,-64.0
10.35,-15232.0,6080.0,-64.0
10.3525,-15232.0,6080.0,0.0
10.355,-15232.0,6016.0,-128.0
10.3575,-15232.0,5952.0,-64.0
10.36,-15296.0,5952.0,-64.0
10.3625,-15296.0,6016.0,-128.0
10.365,-15296.0,6016.0,-64.0
10.3675,-15296.0,6016.0,-128.0
10.37,-15232.0,6016.0,-128.0
10.3725,-15296.0,5952.0,0.0
10.375,-15232.0,5952.0,0.0
10.3775,-15168.0,5888.0,-64.0
10.38,-15168.0,5888.0,0.0
10.3825,-15104.0,5824.0,64.0
10.385,-15040.0,5824.0,64.0
10.3875,-15040.0,5760.0,64.0
10.39,-14976.0,5760.0,0.0
10.3925,-14976.0,5696.0,64.0
10.395,-14848.0,5696.0,128.0
10.3975,-14784.0,5632.0,128.0
10.4,-14592.0,5568.0,192.0
10.4025,-14528.0,5504.0,192.0
10.405,-14528.0,5568.0,192.0
10.4075,-14464.0,5504.0,192.0
10.41,-14400.0,5504.0,256.0
10.4125,-14336.0,5440.0,320.0
10.415,-14272.0,5440.0,320.0
10.4175,-14208.0,5376.0,320.0
10.42,-14336.0,5376.0,320.0
10.4225,-14272.0,5376.0,256.0
