time_stamp,acc_x,acc_y,acc_z
0.0,-16000.0,4224.0,-320.0
0.0025,-16000.0,4224.0,-320.0
0.005,-15936.0,4224.0,-384.0
0.0075,-16000.0,4288.0,-320.0
0.01,-15936.0,4224.0,-256.0
0.0125,-16000.0,4224.0,-192.0
0.015,-16000.0,4160.0,-192.0
0.0175,-16000.0,4160.0,-256.0
0.02,-16064.0,4224.0,-320.0
0.0225,-16064.0,4224.0,-320.0
0.025,-16000.0,4288.0,-320.0
0.0275,-16064.0,4288.0,-320.0
0.03,-16064.0,4224.0,-384.0
0.0325,-16000.0,4224.0,-384.0
0.035,-16000.0,4160.0,-448.0
0.0375,-16064.0,4224.0,-448.0
0.04,-16000.0,4224.0,-512.0
0.0425,-16000.0,4224.0,-384.0
0.045,-16000.0,4288.0,-384.0
0.0475,-16000.0,4288.0,-384.0
0.05,-16000.0,4288.0,-384.0
0.0525,-16000.0,4288.0,-384.0
0.055,-16000.0,4352.0,-384.0
0.0575,-16000.0,4352.0,-320.0
0.06,-16000.0,4352.0,-320.0
0.0625,-16000.0,4416.0,-320.0
0.065,-16000.0,4416.0,-320.0
0.0675,-16000.0,4352.0,-320.0
0.07,-16064.0,4416.0,-256.0
0.0725,-16064.0,4416.0,-256.0
0.075,-16064.0,4416.0,-320.0
0.0775,-16128.0,4416.0,-256.0
0.08,-16064.0,4352.0,-320.0
0.0825,-16064.0,4352.0,-320.0
0.085,-16064.0,4352.0,-320.0
0.0875,-16000.0,4352.0,-320.0
0.09,-15936.0,4224.0,-384.0
0.0925,-15936.0,4288.0,-320.0
0.095,-15936.0,4224.0,-256.0
0.0975,-15872.0,4224.0,-320.0
0.1,-15872.0,4288.0,-320.0
0.1025,-15936.0,4288.0,-320.0
0.105,-15936.0,4288.0,-320.0
0.1075,-15936.0,4288.0,-320.0
0.11,-15936.0,4288.0,-320.0
0.1125,-15872.0,4288.0,-320.0
0.115,-15872.0,4224.0,-256.0
0.1175,-15872.0,4224.0,-256.0
0.12,-15872.0,4288.0,-256.0
0.1225,-15936.0,4288.0,-192.0
0.125,-15872.0,4224.0,-192.0
0.1275,-15936.0,4288.0,-128.0
0.13,-15872.0,4288.0,-192.0
0.1325,-15872.0,4288.0,-192.0
0.135,-15808.0,4288.0,-192.0
0.1375,-15872.0,4352.0,-192.0
0.14,-15872.0,4416.0,-128.0
0.1425,-15872.0,4288.0,-128.0
0.145,-15872.0,4288.0,-128.0
0.1475,-16000.0,4352.0,-128.0
0.15,-15936.0,4352.0,-128.0
0.1525,-15936.0,4352.0,-128.0
0.155,-15936.0,4352.0,-128.0
0.1575,-15936.0,4288.0,-128.0
0.16,-15936.0,4352.0,-128.0
0.1625,-15936.0,4352.0,-192.0
0.165,-16000.0,4352.0,-192.0
0.1675,-15936.0,4352.0,-128.0
0.17,-16000.0,4288.0,-256.0
0.1725,-16000.0,4288.0,-256.0
0.175,-16000.0,4288.0,-256.0
0.1775,-16000.0,4288.0,-256.0
0.18,-16000.0,4288.0,-192.0
0.1825,-15936.0,4352.0,-192.0
0.185,-16064.0,4288.0,-192.0
0.1875,-16000.0,4288.0,-128.0
0.19,-16000.0,4224.0,-192.0
0.1925,-16000.0,4224.0,-192.0
0.195,-16000.0,4288.0,-192.0
0.1975,-16000.0,4288.0,-192.0
0.2,-16000.0,4288.0,-192.0
0.2025,-16000.0,4288.0,-256.0
0.205,-16000.0,4352.0,-192.0
0.2075,-16000.0,4288.0,-192.0
0.21,-16000.0,4352.0,-256.0
0.2125,-16064.0,4352.0,-128.0
0.215,-16064.0,4416.0,-192.0
0.2175,-16064.0,4352.0,-256.0
0.22,-16000.0,4352.0,-256.0
0.2225,-16000.0,4288.0,-256.0
0.225,-16064.0,4352.0,-320.0
0.2275,-16064.0,4416.0,-256.0
0.23,-16064.0,4416.0,-256.0
0.2325,-16064.0,4416.0,-256.0
0.235,-16064.0,4416.0,-256.0
0.2375,-16064.0,4416.0,-192.0
0.24,-16064.0,4352.0,-192.0
0.2425,-16064.0,4416.0,-192.0
0.245,-16064.0,4416.0,-192.0
0.2475,-16064.0,4416.0,-256.0
0.25,-16064.0,4288.0,-256.0
0.2525,-16064.0,4352.0,-128.0
0.255,-16064.0,4352.0,-192.0
0.2575,-16128.0,4416.0,-192.0
0.26,-16128.0,4416.0,-192.0
0.2625,-16064.0,4352.0,-256.0
0.265,-16064.0,4288.0,-192.0
0.2675,-16064.0,4288.0,-192.0
0.27,-16128.0,4352.0,-192.0
0.2725,-16128.0,4352.0,-192.0
0.275,-16128.0,4288.0,-192.0
0.2775,-16128.0,4288.0,-192.0
0.28,-16128.0,4288.0,-192.0
0.2825,-16064.0,4352.0,-192.0
0.285,-16128.0,4352.0,-128.0
0.2875,-16064.0,4288.0,-128.0
0.29,-16128.0,4288.0,-128.0
0.2925,-16064.0,4288.0,-128.0
0.295,-16064.0,4288.0,64.0
0.2975,-16128.0,4352.0,-64.0
0.3,-16128.0,4352.0,0.0
0.3025,-16064.0,4288.0,-64.0
0.305,-16128.0,4288.0,-64.0
0.3075,-16192.0,4288.0,-64.0
0.31,-16128.0,4224.0,-128.0
0.3125,-16192.0,4224.0,-64.0
0.315,-16128.0,4288.0,-64.0
0.3175,-16128.0,4288.0,-128.0
0.32,-16192.0,4224.0,-128.0
0.3225,-16064.0,4160.0,-128.0
0.325,-16128.0,4224.0,-64.0
0.3275,-16128.0,4224.0,-64.0
0.33,-16128.0,4224.0,-128.0
0.3325,-16128.0,4224.0,0.0
0.335,-16128.0,4224.0,-64.0
0.3375,-16128.0,4224.0,-64.0
0.34,-16064.0,4160.0,-128.0
0.3425,-16064.0,4224.0,0.0
0.345,-16128.0,4224.0,-64.0
0.3475,-16128.0,4224.0,-64.0
0.35,-16128.0,4224.0,-64.0
0.3525,-16128.0,4288.0,-64.0
0.355,-16064.0,4288.0,0.0
0.3575,-16128.0,4288.0,-64.0
0.36,-16128.0,4288.0,-64.0
0.3625,-16256.0,4288.0,-128.0
0.365,-16128.0,4288.0,-64.0
0.3675,-16192.0,4224.0,-64.0
0.37,-16128.0,4224.0,-64.0
0.3725,-16064.0,4224.0,0.0
0.375,-16128.0,4224.0,0.0
0.3775,-16064.0,4160.0,-64.0
0.38,-16064.0,4224.0,-64.0
0.3825,-16064.0,4224.0,-128.0
0.385,-16128.0,4224.0,-64.0
0.3875,-16128.0,4160.0,-128.0
0.39,-16128.0,4224.0,-128.0
0.3925,-16128.0,4160.0,-128.0
0.395,-16128.0,4224.0,-128.0
0.3975,-16128.0,4224.0,-128.0
0.4,-16128.0,4224.0,-192.0
0.4025,-16128.0,4224.0,-128.0
0.405,-16128.0,4160.0,-128.0
0.4075,-16192.0,4160.0,-192.0
0.41,-16128.0,4224.0,-128.0
0.4125,-16192.0,4160.0,-64.0
0.415,-16128.0,4160.0,-128.0
0.4175,-16192.0,4160.0,-64.0
0.42,-16192.0,4224.0,-192.0
0.4225,-16128.0,4096.0,-192.0
0.425,-16128.0,4160.0,-192.0
0.4275,-16064.0,4160.0,-128.0
0.43,-16064.0,4160.0,-128.0
0.4325,-16064.0,4160.0,-128.0
0.435,-16128.0,4224.0,-128.0
0.4375,-16128.0,4160.0,-128.0
0.44,-16128.0,4224.0,-128.0
0.4425,-16192.0,4160.0,-128.0
0.445,-16192.0,4160.0,-192.0
0.4475,-16128.0,4160.0,-192.0
0.45,-16128.0,4160.0,-192.0
0.4525,-16192.0,4160.0,-192.0
0.455,-16128.0,4224.0,-192.0
0.4575,-16128.0,4224.0,-192.0
0.46,-16128.0,4224.0,-256.0
0.4625,-16128.0,4224.0,-256.0
0.465,-16128.0,4160.0,-320.0
0.4675,-16128.0,4224.0,-256.0
0.47,-16064.0,4224.0,-320.0
0.4725,-16128.0,4224.0,-256.0
0.475,-16128.0,4224.0,-128.0
0.4775,-16192.0,4224.0,-256.0
0.48,-16192.0,4224.0,-320.0
0.4825,-16192.0,4224.0,-256.0
0.485,-16256.0,4160.0,-256.0
0.4875,-16128.0,4224.0,-256.0
0.49,-16192.0,4224.0,-256.0
0.4925,-16192.0,4224.0,-256.0
0.495,-16128.0,4224.0,-256.0
0.4975,-16192.0,4288.0,-256.0
0.5,-16192.0,4288.0,-256.0
0.5025,-16192.0,4288.0,-320.0
0.505,-16128.0,4288.0,-320.0
0.5075,-16128.0,4288.0,-384.0
0.51,-16128.0,4288.0,-320.0
0.5125,-16128.0,4288.0,-320.0
0.515,-16128.0,4352.0,-384.0
0.5175,-16192.0,4352.0,-448.0
0.52,-16128.0,4288.0,-384.0
0.5225,-16192.0,4352.0,-384.0
0.525,-16192.0,4352.0,-384.0
0.5275,-16128.0,4352.0,-320.0
0.53,-16128.0,4416.0,-320.0
0.5325,-16128.0,4416.0,-384.0
0.535,-16128.0,4416.0,-384.0
0.5375,-16128.0,4352.0,-384.0
0.54,-16192.0,4352.0,-448.0
0.5425,-16064.0,4288.0,-320.0
0.545,-16128.0,4352.0,-192.0
0.5475,-16128.0,4352.0,-192.0
0.55,-16192.0,4416.0,-320.0
0.5525,-16128.0,4416.0,-384.0
0.555,-16064.0,4416.0,-320.0
0.5575,-16128.0,4352.0,-320.0
0.56,-16064.0,4288.0,-256.0
0.5625,-16064.0,4288.0,-320.0
0.565,-16128.0,4288.0,-320.0
0.5675,-16064.0,4288.0,-320.0
0.57,-16000.0,4352.0,-384.0
0.5725,-16064.0,4288.0,-384.0
0.575,-16064.0,4288.0,-320.0
0.5775,-16064.0,4288.0,-320.0
0.58,-16064.0,4224.0,-256.0
0.5825,-16064.0,4224.0,-256.0
0.585,-16064.0,4224.0,-256.0
0.5875,-16064.0,4224.0,-320.0
0.59,-16000.0,4224.0,-384.0
0.5925,-16000.0,4288.0,-384.0
0.595,-16000.0,4224.0,-320.0
0.5975,-16000.0,4224.0,-384.0
0.6,-16000.0,4288.0,-256.0
0.6025,-16000.0,4288.0,-320.0
0.605,-16000.0,4288.0,-256.0
0.6075,-16000.0,4352.0,-384.0
0.61,-16000.0,4288.0,-320.0
0.6125,-16000.0,4288.0,-320.0
0.615,-16000.0,4288.0,-256.0
0.6175,-16064.0,4288.0,-256.0
0.62,-16064.0,4352.0,-256.0
0.6225,-16064.0,4288.0,-256.0
0.625,-16064.0,4352.0,-256.0
0.6275,-16064.0,4352.0,-192.0
0.63,-16064.0,4416.0,-192.0
0.6325,-16064.0,4416.0,-256.0
0.635,-16064.0,4416.0,-256.0
0.6375,-16128.0,4352.0,-256.0
0.64,-16128.0,4288.0,-320.0
0.6425,-16064.0,4288.0,-384.0
0.645,-16064.0,4288.0,-384.0
0.6475,-16128.0,4352.0,-320.0
0.65,-16128.0,4416.0,-256.0
0.6525,-16000.0,4352.0,-320.0
0.655,-16064.0,4352.0,-256.0
0.6575,-16064.0,4352.0,-320.0
0.66,-16064.0,4352.0,-320.0
0.6625,-16064.0,4416.0,-256.0
0.665,-16064.0,4480.0,-192.0
0.6675,-16064.0,4416.0,-192.0
0.67,-16064.0,4544.0,-192.0
0.6725,-16064.0,4544.0,-192.0
0.675,-16064.0,4480.0,-192.0
0.6775,-16064.0,4480.0,-256.0
0.68,-16064.0,4544.0,-320.0
0.6825,-16064.0,4544.0,-256.0
0.685,-16064.0,4480.0,-256.0
0.6875,-16064.0,4544.0,-256.0
0.69,-16000.0,4480.0,-192.0
0.6925,-15936.0,4352.0,-256.0
0.695,-15936.0,4416.0,-192.0
0.6975,-16000.0,4352.0,-256.0
0.7,-15936.0,4352.0,-192.0
0.7025,-16000.0,4352.0,-192.0
0.705,-15936.0,4288.0,-192.0
0.7075,-15936.0,4288.0,-192.0
0.71,-15936.0,4288.0,-192.0
0.7125,-15936.0,4224.0,-128.0
0.715,-15872.0,4160.0,-192.0
0.7175,-15872.0,4160.0,-192.0
0.72,-15936.0,4160.0,-192.0
0.7225,-15936.0,4160.0,-192.0
0.725,-15936.0,4224.0,-128.0
0.7275,-15872.0,4224.0,-128.0
0.73,-15936.0,4288.0,-192.0
0.7325,-15872.0,4288.0,-192.0
0.735,-15872.0,4288.0,-192.0
0.7375,-15872.0,4352.0,-128.0
0.74,-15872.0,4352.0,-192.0
0.7425,-15872.0,4288.0,-128.0
0.745,-15936.0,4352.0,-192.0
0.7475,-15936.0,4352.0,-192.0
0.75,-16000.0,4352.0,-128.0
0.7525,-16000.0,4352.0,-192.0
0.755,-16064.0,4288.0,-192.0
0.7575,-16000.0,4288.0,-128.0
0.76,-16064.0,4352.0,-192.0
0.7625,-16128.0,4352.0,-128.0
0.765,-16000.0,4352.0,-192.0
0.7675,-16000.0,4352.0,-192.0
0.77,-16000.0,4352.0,-128.0
0.7725,-16064.0,4288.0,-192.0
0.775,-16000.0,4288.0,-256.0
0.7775,-16064.0,4288.0,-192.0
0.78,-16128.0,4288.0,-192.0
0.7825,-16128.0,4288.0,-256.0
0.785,-16064.0,4352.0,-320.0
0.7875,-16064.0,4288.0,-256.0
0.79,-16064.0,4288.0,-320.0
0.7925,-16064.0,4288.0,-320.0
0.795,-16064.0,4288.0,-320.0
0.7975,-16064.0,4352.0,-384.0
0.8,-16128.0,4288.0,-320.0
0.8025,-16064.0,4352.0,-320.0
0.805,-16128.0,4352.0,-384.0
0.8075,-16128.0,4288.0,-384.0
0.81,-16128.0,4288.0,-384.0
0.8125,-16128.0,4288.0,-384.0
0.815,-16128.0,4352.0,-320.0
0.8175,-16064.0,4352.0,-384.0
0.82,-16128.0,4352.0,-320.0
0.8225,-16128.0,4352.0,-384.0
0.825,-16128.0,4352.0,-384.0
0.8275,-16064.0,4352.0,-256.0
0.83,-16064.0,4352.0,-320.0
0.8325,-16128.0,4352.0,-320.0
0.835,-16128.0,4352.0,-320.0
0.8375,-16128.0,4224.0,-384.0
0.84,-16192.0,4224.0,-320.0
0.8425,-16128.0,4224.0,-256.0
0.845,-16064.0,4224.0,-256.0
0.8475,-16128.0,4224.0,-320.0
0.85,-16128.0,4224.0,-320.0
0.8525,-16064.0,4160.0,-320.0
0.855,-16064.0,4224.0,-320.0
0.8575,-16064.0,4224.0,-384.0
0.86,-16064.0,4224.0,-320.0
0.8625,-16128.0,4224.0,-320.0
0.865,-16128.0,4224.0,-320.0
0.8675,-16128.0,4224.0,-320.0
0.87,-16128.0,4224.0,-256.0
0.8725,-16128.0,4224.0,-320.0
0.875,-16128.0,4288.0,-320.0
0.8775,-16128.0,4224.0,-320.0
0.88,-16192.0,4288.0,-320.0
0.8825,-16192.0,4224.0,-256.0
0.885,-16192.0,4224.0,-256.0
0.8875,-16192.0,4224.0,-256.0
0.89,-16192.0,4224.0,-256.0
0.8925,-16128.0,4288.0,-256.0
0.895,-16128.0,4224.0,-256.0
0.8975,-16128.0,4224.0,-320.0
0.9,-16128.0,4160.0,-256.0
0.9025,-16128.0,4160.0,-256.0
0.905,-16064.0,4160.0,-320.0
0.9075,-16064.0,4096.0,-320.0
0.91,-16064.0,4096.0,-256.0
0.9125,-16064.0,4160.0,-256.0
0.915,-16128.0,4160.0,-256.0
0.9175,-16064.0,4160.0,-192.0
0.92,-16128.0,4096.0,-256.0
0.9225,-16128.0,4096.0,-256.0
0.925,-16064.0,4032.0,-192.0
0.9275,-16064.0,4096.0,-256.0
0.93,-16128.0,4096.0,-320.0
0.9325,-16128.0,4096.0,-256.0
0.935,-16064.0,4160.0,-256.0
0.9375,-16064.0,4160.0,-192.0
0.94,-16064.0,4096.0,-256.0
0.9425,-16064.0,4096.0,-256.0
0.945,-16064.0,4096.0,-192.0
0.9475,-16064.0,4096.0,-192.0
0.95,-16064.0,4096.0,-256.0
0.9525,-16000.0,4096.0,-128.0
0.955,-16064.0,4096.0,-192.0
0.9575,-16064.0,4096.0,-256.0
0.96,-16064.0,4096.0,-192.0
0.9625,-16128.0,4160.0,-256.0
0.965,-16128.0,4160.0,-192.0
0.9675,-16128.0,4160.0,-192.0
0.97,-16128.0,4224.0,-192.0
0.9725,-16128.0,4096.0,-192.0
0.975,-16064.0,4160.0,-128.0
0.9775,-16064.0,4160.0,-192.0
0.98,-16128.0,4160.0,-192.0
0.9825,-16128.0,4160.0,-256.0
0.985,-16128.0,4160.0,-320.0
0.9875,-16128.0,4160.0,-256.0
0.99,-16192.0,4224.0,-192.0
0.9925,-16192.0,4224.0,-256.0
0.995,-16192.0,4224.0,-192.0
0.9975,-16192.0,4224.0,-192.0
1.0,-16192.0,4160.0,-192.0
1.0025,-16128.0,4224.0,-256.0
1.005,-16192.0,4160.0,-320.0
1.0075,-16128.0,4160.0,-320.0
1.01,-16128.0,4160.0,-256.0
1.0125,-16192.0,4224.0,-192.0
1.015,-16192.0,4224.0,-192.0
1.0175,-16192.0,4160.0,-256.0
1.02,-16192.0,4160.0,-256.0
1.0225,-16128.0,4160.0,-256.0
1.025,-16192.0,4224.0,-320.0
1.0275,-16128.0,4160.0,-384.0
1.03,-16128.0,4160.0,-384.0
1.0325,-16192.0,4224.0,-256.0
1.035,-16192.0,4224.0,-256.0
1.0375,-16192.0,4160.0,-192.0
1.04,-16128.0,4160.0,-256.0
1.0425,-16192.0,4224.0,-192.0
1.045,-16128.0,4160.0,-320.0
1.0475,-16192.0,4160.0,-256.0
1.05,-16128.0,4160.0,-320.0
1.0525,-16192.0,4160.0,-320.0
1.055,-16128.0,4160.0,-256.0
1.0575,-16192.0,4224.0,-256.0
1.06,-16192.0,4224.0,-320.0
1.0625,-16192.0,4288.0,-320.0
1.065,-16192.0,4224.0,-320.0
1.0675,-16192.0,4288.0,-320.0
1.07,-16192.0,4224.0,-320.0
1.0725,-16192.0,4224.0,-320.0
1.075,-16192.0,4224.0,-384.0
1.0775,-16192.0,4160.0,-384.0
1.08,-16128.0,4160.0,-320.0
1.0825,-16192.0,4224.0,-320.0
1.085,-16192.0,4160.0,-320.0
1.0875,-16192.0,4160.0,-320.0
1.09,-16192.0,4160.0,-320.0
1.0925,-16192.0,4224.0,-320.0
1.095,-16128.0,4224.0,-256.0
1.0975,-16128.0,4288.0,-256.0
1.1,-16128.0,4224.0,-320.0
1.1025,-16128.0,4224.0,-320.0
1.105,-16128.0,4224.0,-320.0
1.1075,-16128.0,4224.0,-320.0
1.11,-16128.0,4224.0,-320.0
1.1125,-16128.0,4224.0,-320.0
1.115,-16064.0,4224.0,-320.0
1.1175,-16128.0,4224.0,-320.0
1.12,-16128.0,4224.0,-384.0
1.1225,-16064.0,4224.0,-320.0
1.125,-16128.0,4160.0,-256.0
1.1275,-16064.0,4224.0,-320.0
1.13,-16128.0,4224.0,-320.0
1.1325,-16128.0,4224.0,-320.0
1.135,-16128.0,4224.0,-256.0
1.1375,-16128.0,4224.0,-256.0
1.14,-16064.0,4224.0,-320.0
1.1425,-16000.0,4224.0,-256.0
1.145,-16000.0,4224.0,-256.0
1.1475,-16000.0,4288.0,-192.0
1.15,-16000.0,4288.0,-256.0
1.1525,-16000.0,4288.0,-192.0
1.155,-16000.0,4224.0,-320.0
1.1575,-16064.0,4288.0,-256.0
1.16,-16000.0,4288.0,-256.0
1.1625,-16000.0,4288.0,-256.0
1.165,-16000.0,4288.0,-256.0
1.1675,-16000.0,4288.0,-192.0
1.17,-16000.0,4352.0,-256.0
1.1725,-16064.0,4352.0,-320.0
1.175,-16064.0,4352.0,-320.0
1.1775,-16000.0,4352.0,-256.0
1.18,-16000.0,4352.0,-256.0
1.1825,-16000.0,4352.0,-256.0
1.185,-16000.0,4352.0,-256.0
1.1875,-16000.0,4288.0,-256.0
1.19,-16064.0,4288.0,-192.0
1.1925,-16064.0,4288.0,-192.0
1.195,-16064.0,4352.0,-192.0
1.1975,-16000.0,4352.0,-192.0
1.2,-16000.0,4352.0,-192.0
1.2025,-16000.0,4352.0,-192.0
1.205,-16000.0,4352.0,-192.0
1.2075,-16000.0,4352.0,-192.0
1.21,-16000.0,4352.0,-192.0
1.2125,-16064.0,4352.0,-192.0
1.215,-16000.0,4352.0,-192.0
1.2175,-16000.0,4352.0,-256.0
1.22,-16000.0,4288.0,-192.0
1.2225,-16000.0,4288.0,-192.0
1.225,-16000.0,4352.0,-192.0
1.2275,-16000.0,4352.0,-128.0
1.23,-16000.0,4352.0,-256.0
1.2325,-16000.0,4288.0,-256.0
1.235,-15936.0,4352.0,-192.0
1.2375,-16000.0,4288.0,-256.0
1.24,-16064.0,4288.0,-256.0
1.2425,-16000.0,4288.0,-192.0
1.245,-16000.0,4288.0,-128.0
1.2475,-16000.0,4352.0,-192.0
1.25,-16000.0,4416.0,-192.0
1.2525,-16000.0,4480.0,-192.0
1.255,-16000.0,4416.0,-192.0
1.2575,-16000.0,4416.0,-192.0
1.26,-16064.0,4416.0,-192.0
1.2625,-16064.0,4416.0,-192.0
1.265,-16000.0,4352.0,-256.0
1.2675,-16064.0,4416.0,-192.0
1.27,-16064.0,4352.0,-256.0
1.2725,-16064.0,4352.0,-256.0
1.275,-16064.0,4352.0,-192.0
1.2775,-16000.0,4352.0,-192.0
1.28,-16064.0,4352.0,-128.0
1.2825,-16064.0,4288.0,-256.0
1.285,-16064.0,4352.0,-256.0
1.2875,-16064.0,4288.0,-256.0
1.29,-15936.0,4352.0,-192.0
1.2925,-15936.0,4288.0,-256.0
1.295,-16000.0,4352.0,-192.0
1.2975,-15936.0,4352.0,-128.0
1.3,-16000.0,4416.0,0.0
1.3025,-16000.0,4416.0,-128.0
1.305,-16000.0,4416.0,-128.0
1.3075,-15936.0,4480.0,-192.0
1.31,-15936.0,4480.0,-128.0
1.3125,-16000.0,4480.0,-64.0
1.315,-16000.0,4480.0,0.0
1.3175,-16000.0,4416.0,-64.0
1.32,-16000.0,4416.0,-64.0
1.3225,-16000.0,4480.0,-64.0
1.325,-15936.0,4480.0,-64.0
1.3275,-15936.0,4416.0,-64.0
1.33,-15936.0,4416.0,-64.0
1.3325,-15872.0,4352.0,0.0
1.335,-15872.0,4416.0,0.0
1.3375,-15872.0,4352.0,-64.0
1.34,-15808.0,4352.0,0.0
1.3425,-15872.0,4352.0,-64.0
1.345,-15872.0,4352.0,0.0
1.3475,-15936.0,4352.0,0.0
1.35,-15872.0,4288.0,-64.0
1.3525,-15936.0,4288.0,0.0
1.355,-15936.0,4288.0,-128.0
1.3575,-15872.0,4224.0,-128.0
1.36,-15936.0,4288.0,-128.0
1.3625,-15936.0,4288.0,-128.0
1.365,-15872.0,4288.0,-128.0
1.3675,-15872.0,4288.0,-128.0
1.37,-15936.0,4224.0,-64.0
1.3725,-15936.0,4288.0,0.0
1.375,-15936.0,4288.0,-64.0
1.3775,-15936.0,4224.0,-64.0
1.38,-16000.0,4288.0,-64.0
1.3825,-16000.0,4288.0,0.0
1.385,-16000.0,4224.0,0.0
1.3875,-15936.0,4288.0,-64.0
1.39,-15936.0,4288.0,-64.0
1.3925,-16000.0,4288.0,0.0
1.395,-16000.0,4288.0,0.0
1.3975,-15936.0,4288.0,-64.0
1.4,-16000.0,4224.0,0.0
1.4025,-16000.0,4224.0,0.0
1.405,-15936.0,4288.0,-64.0
1.4075,-15936.0,4288.0,0.0
1.41,-16000.0,4224.0,-64.0
1.4125,-16000.0,4160.0,-64.0
1.415,-16000.0,4224.0,-64.0
1.4175,-15936.0,4224.0,-64.0
1.42,-16000.0,4224.0,-64.0
1.4225,-16000.0,4224.0,-64.0
1.425,-16000.0,4224.0,-128.0
1.4275,-16000.0,4224.0,-128.0
1.43,-15936.0,4224.0,-192.0
1.4325,-16000.0,4224.0,-128.0
1.435,-16064.0,4224.0,-192.0
1.4375,-16000.0,4224.0,-128.0
1.44,-16000.0,4224.0,-128.0
1.4425,-16000.0,4224.0,-192.0
1.445,-16000.0,4352.0,-128.0
1.4475,-16000.0,4352.0,-192.0
1.45,-16064.0,4352.0,-192.0
1.4525,-16000.0,4352.0,-192.0
1.455,-16000.0,4288.0,-192.0
1.4575,-16000.0,4288.0,-320.0
1.46,-16064.0,4352.0,-256.0
1.4625,-16000.0,4288.0,-256.0
1.465,-16064.0,4288.0,-256.0
1.4675,-16128.0,4352.0,-192.0
1.47,-16064.0,4352.0,-192.0
1.4725,-16064.0,4352.0,-256.0
1.475,-16064.0,4352.0,-192.0
1.4775,-16064.0,4352.0,-192.0
1.48,-16064.0,4352.0,-192.0
1.4825,-16064.0,4352.0,-256.0
1.485,-16000.0,4352.0,-192.0
1.4875,-16064.0,4352.0,-192.0
1.49,-16000.0,4352.0,-256.0
1.4925,-16000.0,4288.0,-256.0
1.495,-16000.0,4288.0,-192.0
1.4975,-16000.0,4288.0,-256.0
1.5,-16064.0,4288.0,-256.0
1.5025,-16064.0,4224.0,-320.0
1.505,-16064.0,4224.0,-192.0
1.5075,-16064.0,4224.0,-192.0
1.51,-16064.0,4224.0,-256.0
1.5125,-16064.0,4224.0,-320.0
1.515,-16064.0,4224.0,-256.0
1.5175,-16064.0,4160.0,-256.0
1.52,-16064.0,4160.0,-320.0
1.5225,-16128.0,4160.0,-320.0
1.525,-16128.0,4224.0,-320.0
1.5275,-16128.0,4224.0,-320.0
1.53,-16128.0,4224.0,-320.0
1.5325,-16128.0,4160.0,-256.0
1.535,-16128.0,4160.0,-256.0
1.5375,-16064.0,4160.0,-192.0
1.54,-16000.0,4224.0,-256.0
1.5425,-16000.0,4160.0,-192.0
1.545,-16064.0,4224.0,-192.0
1.5475,-16064.0,4224.0,-128.0
1.55,-16128.0,4224.0,-128.0
1.5525,-16000.0,4160.0,-192.0
1.555,-16000.0,4160.0,-256.0
1.5575,-16000.0,4160.0,-192.0
1.56,-16064.0,4160.0,-128.0
1.5625,-16000.0,4160.0,-256.0
1.565,-16064.0,4160.0,-256.0
1.5675,-16064.0,4160.0,-320.0
1.57,-16000.0,4160.0,-320.0
1.5725,-16000.0,4160.0,-384.0
1.575,-16000.0,4160.0,-320.0
1.5775,-16000.0,4160.0,-320.0
1.58,-16000.0,4160.0,-320.0
1.5825,-16064.0,4160.0,-384.0
1.585,-16064.0,4160.0,-384.0
1.5875,-16064.0,4160.0,-320.0
1.59,-16000.0,4224.0,-320.0
1.5925,-16064.0,4160.0,-320.0
1.595,-16064.0,4224.0,-320.0
1.5975,-16064.0,4224.0,-320.0
1.6,-16128.0,4160.0,-384.0
1.6025,-16128.0,4224.0,-384.0
1.605,-16064.0,4224.0,-384.0
1.6075,-16128.0,4224.0,-320.0
1.61,-16064.0,4224.0,-320.0
1.6125,-16064.0,4224.0,-256.0
1.615,-16064.0,4224.0,-320.0
1.6175,-16064.0,4224.0,-320.0
1.62,-16128.0,4224.0,-320.0
1.6225,-16192.0,4224.0,-320.0
1.625,-16064.0,4224.0,-384.0
1.6275,-16128.0,4160.0,-384.0
1.63,-16128.0,4224.0,-384.0
1.6325,-16128.0,4224.0,-448.0
1.635,-16064.0,4224.0,-448.0
1.6375,-16128.0,4160.0,-384.0
1.64,-16192.0,4224.0,-384.0
1.6425,-16128.0,4160.0,-448.0
1.645,-16128.0,4224.0,-384.0
1.6475,-16064.0,4224.0,-320.0
1.65,-16128.0,4224.0,-320.0
1.6525,-16128.0,4224.0,-384.0
1.655,-16128.0,4160.0,-320.0
1.6575,-16128.0,4160.0,-384.0
1.66,-16128.0,4224.0,-256.0
1.6625,-16128.0,4224.0,-320.0
1.665,-16128.0,4224.0,-320.0
1.6675,-16064.0,4160.0,-320.0
1.67,-16064.0,4224.0,-384.0
1.6725,-16064.0,4160.0,-384.0
1.675,-16064.0,4224.0,-320.0
1.6775,-16000.0,4224.0,-384.0
1.68,-16064.0,4224.0,-320.0
1.6825,-16064.0,4224.0,-384.0
1.685,-16064.0,4160.0,-384.0
1.6875,-16064.0,4224.0,-384.0
1.69,-16064.0,4224.0,-320.0
1.6925,-16128.0,4224.0,-384.0
1.695,-16064.0,4160.0,-320.0
1.6975,-16128.0,4224.0,-256.0
1.7,-16128.0,4224.0,-320.0
1.7025,-16064.0,4224.0,-320.0
1.705,-16128.0,4160.0,-320.0
1.7075,-16128.0,4160.0,-320.0
1.71,-16064.0,4224.0,-320.0
1.7125,-16064.0,4224.0,-256.0
1.715,-16064.0,4160.0,-320.0
1.7175,-16064.0,4224.0,-320.0
1.72,-16064.0,4224.0,-384.0
1.7225,-16000.0,4160.0,-320.0
1.725,-16000.0,4160.0,-320.0
1.7275,-16064.0,4160.0,-320.0
1.73,-16064.0,4224.0,-256.0
1.7325,-16064.0,4224.0,-320.0
1.735,-16064.0,4224.0,-320.0
1.7375,-16064.0,4224.0,-320.0
1.74,-16128.0,4160.0,-192.0
1.7425,-16064.0,4160.0,-320.0
1.745,-16128.0,4160.0,-320.0
1.7475,-16064.0,4160.0,-320.0
1.75,-16064.0,4160.0,-320.0
1.7525,-16064.0,4224.0,-320.0
1.755,-16064.0,4224.0,-320.0
1.7575,-16064.0,4224.0,-320.0
1.76,-16064.0,4288.0,-320.0
1.7625,-16128.0,4224.0,-256.0
1.765,-16128.0,4288.0,-256.0
1.7675,-16192.0,4288.0,-320.0
1.77,-16128.0,4224.0,-320.0
1.7725,-16192.0,4288.0,-256.0
1.775,-16192.0,4288.0,-256.0
1.7775,-16128.0,4288.0,-192.0
1.78,-16064.0,4288.0,-256.0
1.7825,-16064.0,4288.0,-256.0
1.785,-16064.0,4288.0,-256.0
1.7875,-16064.0,4288.0,-320.0
1.79,-16064.0,4352.0,-320.0
1.7925,-16064.0,4288.0,-256.0
1.795,-16000.0,4224.0,-320.0
1.7975,-16000.0,4288.0,-320.0
1.8,-16064.0,4352.0,-320.0
1.8025,-16064.0,4352.0,-320.0
1.805,-16064.0,4352.0,-320.0
1.8075,-16064.0,4352.0,-256.0
1.81,-16128.0,4352.0,-320.0
1.8125,-16128.0,4352.0,-320.0
1.815,-16128.0,4352.0,-320.0
1.8175,-16128.0,4288.0,-320.0
1.82,-16128.0,4288.0,-256.0
1.8225,-16064.0,4288.0,-256.0
1.825,-16128.0,4416.0,-320.0
1.8275,-16128.0,4352.0,-320.0
1.83,-16128.0,4352.0,-320.0
1.8325,-16128.0,4352.0,-256.0
1.835,-16128.0,4288.0,-256.0
1.8375,-16128.0,4352.0,-256.0
1.84,-16064.0,4352.0,-256.0
1.8425,-16128.0,4352.0,-256.0
1.845,-16192.0,4352.0,-256.0
1.8475,-16128.0,4352.0,-256.0
1.85,-16128.0,4416.0,-320.0
1.8525,-16128.0,4288.0,-256.0
1.855,-16128.0,4224.0,-256.0
1.8575,-16128.0,4224.0,-192.0
1.86,-16128.0,4224.0,-192.0
1.8625,-16128.0,4224.0,-256.0
1.865,-16128.0,4288.0,-256.0
1.8675,-16064.0,4224.0,-320.0
1.87,-16064.0,4288.0,-192.0
1.8725,-16128.0,4288.0,-192.0
1.875,-16064.0,4288.0,-192.0
1.8775,-16064.0,4224.0,-192.0
1.88,-16128.0,4288.0,-128.0
1.8825,-16128.0,4224.0,-192.0
1.885,-16064.0,4224.0,-256.0
1.8875,-16064.0,4288.0,-256.0
1.89,-16128.0,4288.0,-256.0
1.8925,-16064.0,4288.0,-256.0
1.895,-16128.0,4288.0,-256.0
1.8975,-16128.0,4288.0,-320.0
1.9,-16128.0,4352.0,-256.0
1.9025,-16128.0,4352.0,-320.0
1.905,-16128.0,4352.0,-256.0
1.9075,-16128.0,4416.0,-256.0
1.91,-16128.0,4352.0,-256.0
1.9125,-16128.0,4352.0,-256.0
1.915,-16064.0,4352.0,-256.0
1.9175,-16128.0,4352.0,-256.0
1.92,-16192.0,4352.0,-256.0
1.9225,-16192.0,4352.0,-192.0
1.925,-16128.0,4352.0,-256.0
1.9275,-16128.0,4416.0,-256.0
1.93,-16064.0,4416.0,-192.0
1.9325,-16128.0,4416.0,-192.0
1.935,-16064.0,4352.0,-256.0
1.9375,-16000.0,4352.0,-256.0
1.94,-16064.0,4352.0,-256.0
1.9425,-16000.0,4416.0,-256.0
1.945,-16064.0,4416.0,-192.0
1.9475,-16064.0,4416.0,-192.0
1.95,-16128.0,4480.0,-128.0
1.9525,-16128.0,4416.0,-192.0
1.955,-16128.0,4416.0,-192.0
1.9575,-16128.0,4416.0,-256.0
1.96,-16128.0,4416.0,-256.0
1.9625,-16064.0,4480.0,-256.0
1.965,-16064.0,4480.0,-256.0
1.9675,-16064.0,4480.0,-192.0
1.97,-16064.0,4416.0,-256.0
1.9725,-16128.0,4416.0,-192.0
1.975,-16064.0,4416.0,-192.0
1.9775,-16000.0,4352.0,-192.0
1.98,-16000.0,4416.0,-128.0
1.9825,-16000.0,4288.0,-192.0
1.985,-16000.0,4288.0,-192.0
1.9875,-16000.0,4288.0,-256.0
1.99,-16000.0,4288.0,-128.0
1.9925,-15872.0,4288.0,-128.0
1.995,-15872.0,4352.0,-128.0
1.9975,-15872.0,4288.0,-192.0
2.0,-15808.0,4224.0,-192.0
2.0025,-15872.0,4224.0,-192.0
2.005,-15872.0,4288.0,-256.0
2.0075,-15872.0,4352.0,-192.0
2.01,-15808.0,4288.0,-192.0
2.0125,-15872.0,4288.0,-192.0
2.015,-15872.0,4352.0,-192.0
2.0175,-15936.0,4352.0,-192.0
2.02,-15936.0,4352.0,-192.0
2.0225,-15936.0,4352.0,-192.0
2.025,-15936.0,4352.0,-128.0
2.0275,-15936.0,4416.0,-192.0
2.03,-15936.0,4352.0,-192.0
2.0325,-15936.0,4416.0,-192.0
2.035,-15936.0,4416.0,-128.0
2.0375,-16000.0,4416.0,-192.0
2.04,-15936.0,4480.0,-192.0
2.0425,-15936.0,4544.0,-192.0
2.045,-16000.0,4544.0,-256.0
2.0475,-16064.0,4544.0,-256.0
2.05,-16128.0,4480.0,-320.0
2.0525,-16128.0,4544.0,-320.0
2.055,-16128.0,4480.0,-256.0
2.0575,-16128.0,4544.0,-256.0
2.06,-16128.0,4480.0,-320.0
2.0625,-16128.0,4480.0,-320.0
2.065,-16192.0,4544.0,-320.0
2.0675,-16128.0,4544.0,-320.0
2.07,-16128.0,4544.0,-320.0
2.0725,-16128.0,4544.0,-320.0
2.075,-16128.0,4608.0,-384.0
2.0775,-16192.0,4544.0,-384.0
2.08,-16192.0,4608.0,-384.0
2.0825,-16192.0,4608.0,-384.0
2.085,-16128.0,4608.0,-384.0
2.0875,-16128.0,4544.0,-384.0
2.09,-16192.0,4480.0,-384.0
2.0925,-16128.0,4480.0,-320.0
2.095,-16128.0,4544.0,-320.0
2.0975,-16064.0,4544.0,-320.0
2.1,-16064.0,4544.0,-384.0
2.1025,-16000.0,4544.0,-384.0
2.105,-16064.0,4608.0,-384.0
2.1075,-16064.0,4544.0,-384.0
2.11,-16064.0,4544.0,-320.0
2.1125,-16064.0,4544.0,-320.0
2.115,-16000.0,4544.0,-384.0
2.1175,-16064.0,4608.0,-384.0
2.12,-16064.0,4544.0,-320.0
2.1225,-16000.0,4544.0,-320.0
2.125,-16000.0,4480.0,-320.0
2.1275,-15936.0,4480.0,-256.0
2.13,-16000.0,4480.0,-256.0
2.1325,-15936.0,4416.0,-192.0
2.135,-15936.0,4352.0,-192.0
2.1375,-16000.0,4352.0,-192.0
2.14,-15872.0,4352.0,-192.0
2.1425,-15872.0,4352.0,-128.0
2.145,-16000.0,4352.0,-64.0
2.1475,-16000.0,4288.0,-128.0
2.15,-16000.0,4352.0,-192.0
2.1525,-15936.0,4352.0,-128.0
2.155,-15936.0,4352.0,-128.0
2.1575,-16000.0,4416.0,-192.0
2.16,-16064.0,4416.0,-128.0
2.1625,-16064.0,4352.0,-128.0
2.165,-16064.0,4416.0,-128.0
2.1675,-16064.0,4352.0,-192.0
2.17,-16064.0,4416.0,-256.0
2.1725,-16064.0,4352.0,-192.0
2.175,-16064.0,4288.0,-192.0
2.1775,-16064.0,4352.0,-192.0
2.18,-16064.0,4352.0,-256.0
2.1825,-16064.0,4416.0,-192.0
2.185,-16064.0,4416.0,-192.0
2.1875,-16064.0,4416.0,-192.0
2.19,-16000.0,4352.0,-192.0
2.1925,-16064.0,4352.0,-192.0
2.195,-16000.0,4352.0,-128.0
2.1975,-16064.0,4352.0,-192.0
2.2,-16064.0,4352.0,-128.0
2.2025,-16064.0,4288.0,-192.0
2.205,-16128.0,4352.0,-128.0
2.2075,-16064.0,4352.0,-192.0
2.21,-16128.0,4288.0,-192.0
2.2125,-16064.0,4288.0,-128.0
2.215,-16064.0,4288.0,-128.0
2.2175,-16000.0,4224.0,-128.0
2.22,-16000.0,4288.0,-64.0
2.2225,-16000.0,4224.0,-64.0
2.225,-16000.0,4288.0,-128.0
2.2275,-16000.0,4288.0,-192.0
2.23,-16000.0,4288.0,-192.0
2.2325,-16000.0,4288.0,-192.0
2.235,-16000.0,4288.0,-128.0
2.2375,-16000.0,4288.0,-192.0
2.24,-15936.0,4288.0,-192.0
2.2425,-16000.0,4288.0,-192.0
2.245,-16000.0,4288.0,-192.0
2.2475,-16000.0,4288.0,-192.0
2.25,-16000.0,4352.0,-256.0
2.2525,-16000.0,4288.0,-192.0
2.255,-16000.0,4288.0,-192.0
2.2575,-16000.0,4288.0,-192.0
2.26,-16064.0,4288.0,-192.0
2.2625,-16064.0,4288.0,-192.0
2.265,-16064.0,4288.0,-192.0
2.2675,-16064.0,4288.0,-192.0
2.27,-16128.0,4288.0,-128.0
2.2725,-16064.0,4224.0,-192.0
2.275,-16064.0,4224.0,-256.0
2.2775,-16064.0,4224.0,-256.0
2.28,-16064.0,4224.0,-256.0
2.2825,-16064.0,4224.0,-192.0
2.285,-16064.0,4224.0,-192.0
2.2875,-16064.0,4288.0,-192.0
2.29,-16064.0,4288.0,-192.0
2.2925,-16064.0,4288.0,-192.0
2.295,-16064.0,4224.0,-256.0
2.2975,-16064.0,4224.0,-192.0
2.3,-16064.0,4224.0,-256.0
2.3025,-16064.0,4224.0,-256.0
2.305,-16064.0,4224.0,-320.0
2.3075,-16064.0,4224.0,-320.0
2.31,-16064.0,4288.0,-320.0
2.3125,-16064.0,4288.0,-320.0
2.315,-16064.0,4288.0,-256.0
2.3175,-16000.0,4352.0,-320.0
2.32,-16000.0,4288.0,-384.0
2.3225,-16000.0,4288.0,-384.0
2.325,-16064.0,4288.0,-320.0
2.3275,-16064.0,4224.0,-384.0
2.33,-16064.0,4288.0,-320.0
2.3325,-16064.0,4224.0,-320.0
2.335,-16064.0,4224.0,-320.0
2.3375,-16064.0,4224.0,-384.0
2.34,-16064.0,4224.0,-384.0
2.3425,-16064.0,4224.0,-320.0
2.345,-16000.0,4288.0,-320.0
2.3475,-16000.0,4288.0,-320.0
2.35,-16000.0,4224.0,-320.0
2.3525,-16000.0,4224.0,-320.0
2.355,-16000.0,4288.0,-320.0
2.3575,-16000.0,4288.0,-384.0
2.36,-16000.0,4224.0,-320.0
2.3625,-16000.0,4160.0,-384.0
2.365,-16000.0,4224.0,-384.0
2.3675,-16128.0,4224.0,-448.0
2.37,-16000.0,4160.0,-384.0
2.3725,-16000.0,4224.0,-384.0
2.375,-16000.0,4288.0,-448.0
2.3775,-15936.0,4288.0,-448.0
2.38,-16000.0,4288.0,-448.0
2.3825,-16000.0,4224.0,-448.0
2.385,-16000.0,4224.0,-512.0
2.3875,-16064.0,4288.0,-512.0
2.39,-16000.0,4224.0,-448.0
2.3925,-16000.0,4224.0,-512.0
2.395,-16000.0,4224.0,-512.0
2.3975,-16000.0,4224.0,-512.0
2.4,-16000.0,4224.0,-512.0
2.4025,-16064.0,4224.0,-512.0
2.405,-16000.0,4224.0,-512.0
2.4075,-16000.0,4224.0,-512.0
2.41,-16000.0,4224.0,-512.0
2.4125,-16064.0,4224.0,-512.0
2.415,-16000.0,4224.0,-512.0
2.4175,-16000.0,4288.0,-512.0
2.42,-16000.0,4288.0,-512.0
2.4225,-16000.0,4288.0,-448.0
2.425,-16000.0,4288.0,-448.0
2.4275,-15936.0,4352.0,-512.0
2.43,-15936.0,4352.0,-448.0
2.4325,-16000.0,4288.0,-448.0
2.435,-16000.0,4288.0,-448.0
2.4375,-16000.0,4288.0,-512.0
2.44,-16000.0,4288.0,-512.0
2.4425,-16000.0,4224.0,-512.0
2.445,-16000.0,4224.0,-512.0
2.4475,-16000.0,4224.0,-512.0
2.45,-15936.0,4224.0,-512.0
2.4525,-15936.0,4224.0,-448.0
2.455,-16000.0,4160.0,-512.0
2.4575,-15936.0,4160.0,-512.0
2.46,-15936.0,4160.0,-512.0
2.4625,-15872.0,4224.0,-512.0
2.465,-15936.0,4224.0,-512.0
2.4675,-15936.0,4224.0,-512.0
2.47,-15936.0,4224.0,-576.0
2.4725,-16000.0,4224.0,-576.0
2.475,-16000.0,4160.0,-576.0
2.4775,-16000.0,4224.0,-512.0
2.48,-16000.0,4224.0,-512.0
2.4825,-16064.0,4224.0,-512.0
2.485,-16064.0,4224.0,-512.0
2.4875,-16064.0,4224.0,-512.0
2.49,-16000.0,4160.0,-576.0
2.4925,-16000.0,4224.0,-640.0
2.495,-16000.0,4224.0,-576.0
2.4975,-16064.0,4288.0,-576.0
2.5,-16064.0,4288.0,-576.0
2.5025,-16064.0,4224.0,-576.0
2.505,-16000.0,4224.0,-576.0
2.5075,-16064.0,4288.0,-576.0
2.51,-16000.0,4224.0,-576.0
2.5125,-16064.0,4224.0,-512.0
2.515,-16064.0,4288.0,-512.0
2.5175,-16064.0,4224.0,-576.0
2.52,-16064.0,4160.0,-512.0
2.5225,-16064.0,4160.0,-512.0
2.525,-16064.0,4160.0,-512.0
2.5275,-16064.0,4224.0,-576.0
2.53,-16064.0,4160.0,-512.0
2.5325,-16064.0,4160.0,-512.0
2.535,-16064.0,4160.0,-448.0
2.5375,-16064.0,4160.0,-512.0
2.54,-16000.0,4096.0,-448.0
2.5425,-16128.0,4160.0,-448.0
2.545,-16064.0,4224.0,-512.0
2.5475,-16000.0,4160.0,-512.0
2.55,-16064.0,4160.0,-512.0
2.5525,-16128.0,4160.0,-448.0
2.555,-16128.0,4224.0,-448.0
2.5575,-16064.0,4288.0,-512.0
2.56,-16128.0,4224.0,-512.0
2.5625,-16192.0,4224.0,-512.0
2.565,-16192.0,4288.0,-512.0
2.5675,-16192.0,4288.0,-448.0
2.57,-16192.0,4288.0,-448.0
2.5725,-16192.0,4288.0,-448.0
2.575,-16192.0,4224.0,-448.0
2.5775,-16192.0,4288.0,-448.0
2.58,-16192.0,4288.0,-384.0
2.5825,-16256.0,4288.0,-448.0
2.585,-16192.0,4352.0,-384.0
2.5875,-16256.0,4352.0,-384.0
2.59,-16192.0,4288.0,-384.0
2.5925,-16192.0,4352.0,-448.0
2.595,-16192.0,4352.0,-448.0
2.5975,-16192.0,4288.0,-384.0
2.6,-16256.0,4224.0,-448.0
2.6025,-16192.0,4160.0,-448.0
2.605,-16192.0,4160.0,-384.0
2.6075,-16128.0,4160.0,-384.0
2.61,-16064.0,4224.0,-384.0
2.6125,-16128.0,4160.0,-320.0
2.615,-16064.0,4224.0,-320.0
2.6175,-16128.0,4224.0,-384.0
2.62,-16128.0,4224.0,-320.0
2.6225,-16128.0,4288.0,-384.0
2.625,-16064.0,4288.0,-448.0
2.6275,-16128.0,4224.0,-384.0
2.63,-16128.0,4224.0,-384.0
2.6325,-16128.0,4352.0,-320.0
2.635,-16192.0,4352.0,-320.0
2.6375,-16192.0,4288.0,-256.0
2.64,-16128.0,4288.0,-192.0
2.6425,-16192.0,4288.0,-256.0
2.645,-16128.0,4224.0,-256.0
2.6475,-16192.0,4224.0,-256.0
2.65,-16128.0,4224.0,-256.0
2.6525,-16128.0,4160.0,-256.0
2.655,-16064.0,4160.0,-192.0
2.6575,-16064.0,4160.0,-192.0
2.66,-16000.0,4160.0,-256.0
2.6625,-16000.0,4160.0,-256.0
2.665,-16000.0,4160.0,-256.0
2.6675,-16000.0,4160.0,-192.0
2.67,-16000.0,4160.0,-256.0
2.6725,-16000.0,4160.0,-256.0
2.675,-16000.0,4160.0,-320.0
2.6775,-16000.0,4160.0,-256.0
2.68,-16000.0,4096.0,-192.0
2.6825,-16000.0,4096.0,-192.0
2.685,-16064.0,4096.0,-128.0
2.6875,-16000.0,4160.0,-256.0
2.69,-16000.0,4160.0,-256.0
2.6925,-16064.0,4224.0,-256.0
2.695,-16000.0,4224.0,-192.0
2.6975,-16000.0,4224.0,-256.0
2.7,-16064.0,4224.0,-256.0
2.7025,-16064.0,4288.0,-192.0
2.705,-16064.0,4224.0,-192.0
2.7075,-16064.0,4224.0,-192.0
2.71,-16064.0,4224.0,-192.0
2.7125,-16128.0,4224.0,-256.0
2.715,-16128.0,4224.0,-256.0
2.7175,-16128.0,4288.0,-192.0
2.72,-16128.0,4224.0,-192.0
2.7225,-16192.0,4224.0,-256.0
2.725,-16192.0,4288.0,-192.0
2.7275,-16128.0,4288.0,-192.0
2.73,-16128.0,4288.0,-256.0
2.7325,-16128.0,4288.0,-192.0
2.735,-16128.0,4224.0,-192.0
2.7375,-16192.0,4224.0,-192.0
2.74,-16128.0,4224.0,-256.0
2.7425,-16192.0,4224.0,-192.0
2.745,-16128.0,4224.0,-192.0
2.7475,-16128.0,4224.0,-192.0
2.75,-16128.0,4288.0,-192.0
2.7525,-16128.0,4288.0,-256.0
2.755,-16192.0,4288.0,-256.0
2.7575,-16192.0,4288.0,-192.0
2.76,-16256.0,4288.0,-192.0
2.7625,-16192.0,4288.0,-320.0
2.765,-16192.0,4288.0,-320.0
2.7675,-16128.0,4288.0,-320.0
2.77,-16256.0,4288.0,-320.0
2.7725,-16192.0,4288.0,-192.0
2.775,-16128.0,4288.0,-192.0
2.7775,-16192.0,4288.0,-192.0
2.78,-16192.0,4288.0,-256.0
2.7825,-16128.0,4352.0,-256.0
2.785,-16192.0,4352.0,-256.0
2.7875,-16256.0,4352.0,-320.0
2.79,-16256.0,4288.0,-256.0
2.7925,-16256.0,4352.0,-256.0
2.795,-16192.0,4288.0,-320.0
2.7975,-16256.0,4288.0,-256.0
2.8,-16192.0,4288.0,-320.0
2.8025,-16128.0,4288.0,-256.0
2.805,-16128.0,4224.0,-320.0
2.8075,-16192.0,4224.0,-320.0
2.81,-16192.0,4224.0,-320.0
2.8125,-16192.0,4288.0,-320.0
2.815,-16192.0,4288.0,-320.0
2.8175,-16192.0,4224.0,-256.0
2.82,-16128.0,4224.0,-320.0
2.8225,-16128.0,4224.0,-256.0
2.825,-16128.0,4160.0,-320.0
2.8275,-16192.0,4224.0,-384.0
2.83,-16128.0,4288.0,-320.0
2.8325,-16128.0,4288.0,-384.0
2.835,-16192.0,4224.0,-384.0
2.8375,-16192.0,4224.0,-384.0
2.84,-16128.0,4224.0,-384.0
2.8425,-16128.0,4224.0,-384.0
2.845,-16128.0,4224.0,-320.0
2.8475,-16128.0,4224.0,-320.0
2.85,-16128.0,4224.0,-384.0
2.8525,-16064.0,4352.0,-384.0
2.855,-16128.0,4288.0,-256.0
2.8575,-16128.0,4288.0,-256.0
2.86,-16192.0,4288.0,-256.0
2.8625,-16128.0,4288.0,-320.0
2.865,-16192.0,4224.0,-320.0
2.8675,-16128.0,4224.0,-384.0
2.87,-16128.0,4224.0,-256.0
2.8725,-16128.0,4160.0,-320.0
2.875,-16128.0,4224.0,-256.0
2.8775,-16128.0,4224.0,-320.0
2.88,-16128.0,4224.0,-320.0
2.8825,-16128.0,4224.0,-320.0
2.885,-16192.0,4160.0,-320.0
2.8875,-16128.0,4160.0,-384.0
2.89,-16128.0,4160.0,-448.0
2.8925,-16128.0,4160.0,-448.0
2.895,-16064.0,4160.0,-384.0
2.8975,-16128.0,4160.0,-320.0
2.9,-16128.0,4160.0,-384.0
2.9025,-16128.0,4160.0,-320.0
2.905,-16128.0,4096.0,-384.0
2.9075,-16128.0,4160.0,-448.0
2.91,-16064.0,4160.0,-384.0
2.9125,-16128.0,4160.0,-384.0
2.915,-16064.0,4160.0,-384.0
2.9175,-16064.0,4160.0,-384.0
2.92,-16064.0,4224.0,-320.0
2.9225,-16064.0,4160.0,-448.0
2.925,-16064.0,4160.0,-384.0
2.9275,-16128.0,4160.0,-448.0
2.93,-16128.0,4160.0,-384.0
2.9325,-16064.0,4160.0,-448.0
2.935,-16064.0,4160.0,-448.0
2.9375,-16128.0,4224.0,-448.0
2.94,-16064.0,4160.0,-512.0
2.9425,-16000.0,4160.0,-448.0
2.945,-16000.0,4224.0,-384.0
2.9475,-16064.0,4160.0,-448.0
2.95,-16064.0,4096.0,-448.0
2.9525,-16128.0,4160.0,-384.0
2.955,-16128.0,4096.0,-448.0
2.9575,-16128.0,4096.0,-448.0
2.96,-16128.0,4096.0,-384.0
2.9625,-16128.0,4096.0,-384.0
2.965,-16128.0,4096.0,-384.0
2.9675,-16128.0,4096.0,-384.0
2.97,-16128.0,4096.0,-448.0
2.9725,-16128.0,4096.0,-448.0
2.975,-16128.0,4032.0,-448.0
2.9775,-16128.0,4096.0,-448.0
2.98,-16064.0,4032.0,-384.0
2.9825,-16064.0,4032.0,-448.0
2.985,-16128.0,4096.0,-448.0
2.9875,-16192.0,4160.0,-512.0
2.99,-16128.0,4160.0,-512.0
2.9925,-16128.0,4160.0,-512.0
2.995,-16064.0,4160.0,-512.0
2.9975,-16064.0,4096.0,-512.0
3.0,-16128.0,4032.0,-512.0
3.0025,-16128.0,4096.0,-576.0
3.005,-16064.0,4096.0,-576.0
3.0075,-16128.0,4096.0,-576.0
3.01,-16064.0,4160.0,-512.0
3.0125,-16128.0,4096.0,-448.0
3.015,-16128.0,4096.0,-448.0
3.0175,-16064.0,4160.0,-448.0
3.02,-16128.0,4096.0,-448.0
3.0225,-16128.0,4096.0,-576.0
3.025,-16128.0,4096.0,-512.0
3.0275,-16128.0,4096.0,-512.0
3.03,-16128.0,4160.0,-576.0
3.0325,-16064.0,4224.0,-448.0
3.035,-16128.0,4224.0,-512.0
3.0375,-16128.0,4224.0,-576.0
3.04,-16128.0,4224.0,-576.0
3.0425,-16128.0,4160.0,-512.0
3.045,-16064.0,4224.0,-512.0
3.0475,-16128.0,4224.0,-512.0
3.05,-16128.0,4224.0,-512.0
3.0525,-16128.0,4160.0,-576.0
3.055,-16128.0,4224.0,-576.0
3.0575,-16064.0,4224.0,-576.0
3.06,-16128.0,4224.0,-576.0
3.0625,-16064.0,4224.0,-576.0
3.065,-16128.0,4224.0,-576.0
3.0675,-16128.0,4160.0,-576.0
3.07,-16192.0,4160.0,-640.0
3.0725,-16128.0,4224.0,-640.0
3.075,-16128.0,4160.0,-640.0
3.0775,-16128.0,4224.0,-640.0
3.08,-16128.0,4224.0,-576.0
3.0825,-16128.0,4160.0,-640.0
3.085,-16192.0,4160.0,-640.0
3.0875,-16192.0,4160.0,-640.0
3.09,-16128.0,4160.0,-576.0
3.0925,-16128.0,4160.0,-576.0
3.095,-16128.0,4160.0,-576.0
3.0975,-16128.0,4224.0,-576.0
3.1,-16128.0,4160.0,-576.0
3.1025,-16128.0,4224.0,-512.0
3.105,-16192.0,4224.0,-512.0
3.1075,-16128.0,4160.0,-512.0
3.11,-16128.0,4224.0,-512.0
3.1125,-16064.0,4224.0,-512.0
3.115,-16128.0,4224.0,-512.0
3.1175,-16128.0,4224.0,-512.0
3.12,-16128.0,4224.0,-512.0
3.1225,-16128.0,4224.0,-512.0
3.125,-16128.0,4160.0,-512.0
3.1275,-16064.0,4160.0,-512.0
3.13,-16064.0,4160.0,-512.0
3.1325,-16064.0,4160.0,-448.0
3.135,-16128.0,4160.0,-512.0
3.1375,-16128.0,4160.0,-512.0
3.14,-16064.0,4224.0,-448.0
3.1425,-16128.0,4160.0,-512.0
3.145,-16064.0,4160.0,-448.0
3.1475,-16064.0,4160.0,-448.0
3.15,-16128.0,4096.0,-448.0
3.1525,-16064.0,4160.0,-448.0
3.155,-16064.0,4160.0,-448.0
3.1575,-16128.0,4160.0,-384.0
3.16,-16064.0,4160.0,-384.0
3.1625,-16064.0,4096.0,-384.0
3.165,-16064.0,4160.0,-384.0
3.1675,-16128.0,4160.0,-384.0
3.17,-16128.0,4096.0,-320.0
3.1725,-16192.0,4160.0,-256.0
3.175,-16192.0,4160.0,-256.0
3.1775,-16128.0,4096.0,-256.0
3.18,-16128.0,4096.0,-256.0
3.1825,-16128.0,4096.0,-256.0
3.185,-16192.0,4032.0,-256.0
3.1875,-16128.0,4032.0,-256.0
3.19,-16128.0,4032.0,-320.0
3.1925,-16192.0,4032.0,-256.0
3.195,-16256.0,4032.0,-256.0
3.1975,-16192.0,4096.0,-256.0
3.2,-16192.0,4096.0,-256.0
3.2025,-16128.0,4032.0,-256.0
3.205,-16192.0,4032.0,-192.0
3.2075,-16192.0,4032.0,-128.0
3.21,-16192.0,4032.0,-192.0
3.2125,-16128.0,3968.0,-128.0
3.215,-16192.0,3968.0,-64.0
3.2175,-16128.0,3968.0,-64.0
3.22,-16128.0,3968.0,-128.0
3.2225,-16064.0,4032.0,-64.0
3.225,-16064.0,3968.0,-64.0
3.2275,-16128.0,3968.0,-64.0
3.23,-16128.0,3968.0,-64.0
3.2325,-16128.0,3968.0,-64.0
3.235,-16128.0,3968.0,-128.0
3.2375,-16064.0,3904.0,-192.0
3.24,-16064.0,3904.0,-128.0
3.2425,-16064.0,3968.0,-128.0
3.245,-16064.0,3904.0,-192.0
3.2475,-16064.0,3840.0,-64.0
3.25,-16192.0,3968.0,-64.0
3.2525,-16192.0,3904.0,-64.0
3.255,-16128.0,3904.0,-128.0
3.2575,-16128.0,3904.0,-192.0
3.26,-16192.0,3968.0,-128.0
3.2625,-16256.0,3968.0,-128.0
3.265,-16256.0,4032.0,-64.0
3.2675,-16256.0,4096.0,-64.0
3.27,-16256.0,4096.0,-64.0
3.2725,-16192.0,4032.0,-64.0
3.275,-16256.0,4032.0,-64.0
3.2775,-16192.0,4032.0,-64.0
3.28,-16128.0,4032.0,0.0
3.2825,-16128.0,4032.0,-128.0
3.285,-16128.0,3968.0,-192.0
3.2875,-16128.0,3968.0,-256.0
3.29,-16064.0,3968.0,-192.0
3.2925,-16064.0,3968.0,-192.0
3.295,-16000.0,3968.0,-192.0
3.2975,-16000.0,3968.0,-192.0
3.3,-15936.0,4032.0,-256.0
3.3025,-15936.0,3968.0,-256.0
3.305,-15872.0,3968.0,-192.0
3.3075,-15936.0,3968.0,-128.0
3.31,-16000.0,4032.0,-128.0
3.3125,-15936.0,4032.0,-192.0
3.315,-15936.0,4096.0,-128.0
3.3175,-15872.0,4032.0,-128.0
3.32,-15808.0,4032.0,-64.0
3.3225,-15872.0,4032.0,-64.0
3.325,-15872.0,4032.0,-64.0
3.3275,-15872.0,4096.0,-64.0
3.33,-15808.0,4032.0,-128.0
3.3325,-15680.0,4032.0,-128.0
3.335,-15744.0,4096.0,-64.0
3.3375,-15680.0,4096.0,-128.0
3.34,-15680.0,4032.0,-128.0
3.3425,-15680.0,4032.0,-128.0
3.345,-15680.0,3968.0,-64.0
3.3475,-15616.0,4032.0,-128.0
3.35,-15552.0,3968.0,-64.0
3.3525,-15552.0,3968.0,-64.0
3.355,-15488.0,3968.0,-64.0
3.3575,-15424.0,3904.0,-64.0
3.36,-15488.0,3968.0,0.0
3.3625,-15488.0,3904.0,-64.0
3.365,-15488.0,3968.0,-128.0
3.3675,-15424.0,3968.0,-64.0
3.37,-15488.0,3968.0,0.0
3.3725,-15424.0,4032.0,64.0
3.375,-15360.0,4032.0,0.0
3.3775,-15296.0,3968.0,0.0
3.38,-15296.0,4032.0,-64.0
3.3825,-15232.0,3968.0,-64.0
3.385,-15232.0,3968.0,-128.0
3.3875,-15232.0,3904.0,-128.0
3.39,-15232.0,3968.0,-128.0
3.3925,-15232.0,3904.0,-64.0
3.395,-15168.0,3904.0,-64.0
3.3975,-15168.0,3968.0,0.0
3.4,-15104.0,3904.0,0.0
3.4025,-15104.0,3904.0,64.0
3.405,-15168.0,3904.0,64.0
3.4075,-15104.0,3904.0,0.0
3.41,-15040.0,3840.0,0.0
3.4125,-15040.0,3776.0,64.0
3.415,-14976.0,3776.0,64.0
3.4175,-14976.0,3776.0,64.0
3.42,-14976.0,3840.0,0.0
3.4225,-15040.0,3776.0,-64.0
3.425,-14976.0,3840.0,-64.0
3.4275,-14976.0,3904.0,-128.0
3.43,-14976.0,3904.0,-128.0
3.4325,-15040.0,3968.0,-64.0
3.435,-15104.0,3904.0,-64.0
3.4375,-15104.0,3968.0,-128.0
3.44,-15104.0,4032.0,-128.0
3.4425,-15104.0,4032.0,-128.0
3.445,-15040.0,4032.0,-64.0
3.4475,-15168.0,4032.0,0.0
3.45,-15104.0,4096.0,-64.0
3.4525,-15104.0,4160.0,0.0
3.455,-15168.0,4160.0,-64.0
3.4575,-15232.0,4160.0,-64.0
3.46,-15232.0,4224.0,-128.0
3.4625,-15360.0,4224.0,-128.0
3.465,-15296.0,4224.0,-192.0
3.4675,-15296.0,4224.0,-192.0
3.47,-15360.0,4224.0,-192.0
3.4725,-15296.0,4224.0,-192.0
3.475,-15232.0,4224.0,-192.0
3.4775,-15296.0,4224.0,-128.0
3.48,-15232.0,4288.0,-128.0
3.4825,-15232.0,4288.0,-192.0
3.485,-15232.0,4288.0,-192.0
3.4875,-15168.0,4288.0,-192.0
3.49,-15232.0,4224.0,-192.0
3.4925,-15104.0,4160.0,-320.0
3.495,-15104.0,4160.0,-256.0
3.4975,-15040.0,4160.0,-192.0
3.5,-15040.0,4096.0,-256.0
3.5025,-15040.0,4096.0,-192.0
3.505,-14976.0,4096.0,-256.0
3.5075,-14976.0,3968.0,-192.0
3.51,-14912.0,3968.0,-256.0
3.5125,-14848.0,3968.0,-256.0
3.515,-14784.0,3904.0,-256.0
3.5175,-14720.0,3904.0,-256.0
3.52,-14720.0,3904.0,-256.0
3.5225,-14656.0,3840.0,-256.0
3.525,-14656.0,3904.0,-256.0
3.5275,-14592.0,3904.0,-320.0
3.53,-14592.0,3904.0,-192.0
3.5325,-14528.0,3840.0,-256.0
3.535,-14528.0,3840.0,-192.0
3.5375,-14528.0,3840.0,-128.0
3.54,-14464.0,3840.0,-128.0
3.5425,-14400.0,3968.0,-128.0
3.545,-14464.0,3968.0,-192.0
3.5475,-14464.0,3904.0,-128.0
3.55,-14464.0,3904.0,-192.0
3.5525,-14464.0,3904.0,-128.0
3.555,-14464.0,3904.0,-128.0
3.5575,-14464.0,3904.0,-64.0
3.56,-14464.0,3840.0,0.0
3.5625,-14528.0,3840.0,0.0
3.565,-14400.0,3840.0,64.0
3.5675,-14400.0,3776.0,64.0
3.57,-14336.0,3712.0,128.0
3.5725,-14272.0,3648.0,64.0
3.575,-14272.0,3648.0,128.0
3.5775,-14272.0,3648.0,128.0
3.58,-14272.0,3584.0,128.0
3.5825,-14208.0,3648.0,64.0
3.585,-14208.0,3648.0,128.0
3.5875,-14208.0,3648.0,192.0
3.59,-14208.0,3648.0,256.0
3.5925,-14208.0,3584.0,192.0
3.595,-14144.0,3648.0,192.0
3.5975,-14080.0,3648.0,256.0
3.6,-14080.0,3648.0,320.0
3.6025,-14080.0,3712.0,320.0
3.605,-14144.0,3648.0,320.0
3.6075,-14208.0,3712.0,384.0
3.61,-14208.0,3648.0,384.0
3.6125,-14336.0,3648.0,448.0
3.615,-14400.0,3648.0,384.0
3.6175,-14464.0,3712.0,320.0
3.62,-14464.0,3712.0,384.0
3.6225,-14528.0,3840.0,320.0
3.625,-14592.0,3840.0,256.0
3.6275,-14592.0,3904.0,320.0
3.63,-14592.0,3840.0,192.0
3.6325,-14656.0,3776.0,256.0
3.635,-14720.0,3840.0,256.0
3.6375,-14848.0,3840.0,256.0
3.64,-14848.0,3776.0,256.0
3.6425,-14976.0,3840.0,256.0
3.645,-14976.0,3904.0,192.0
3.6475,-14976.0,3904.0,192.0
3.65,-14976.0,3968.0,128.0
3.6525,-15040.0,3968.0,192.0
3.655,-15040.0,3968.0,192.0
3.6575,-15104.0,3968.0,256.0
3.66,-15232.0,3904.0,320.0
3.6625,-15168.0,3904.0,320.0
3.665,-15168.0,3904.0,384.0
3.6675,-15104.0,3904.0,448.0
3.67,-15104.0,3904.0,448.0
3.6725,-15040.0,3904.0,448.0
3.675,-14976.0,3968.0,384.0
3.6775,-14976.0,3904.0,384.0
3.68,-14976.0,3840.0,448.0
3.6825,-14976.0,3776.0,448.0
3.685,-14976.0,3776.0,448.0
3.6875,-15040.0,3840.0,448.0
3.69,-15040.0,3776.0,512.0
3.6925,-15040.0,3776.0,576.0
3.695,-15040.0,3840.0,512.0
3.6975,-15104.0,3840.0,512.0
3.7,-15168.0,3904.0,512.0
3.7025,-15296.0,3904.0,448.0
3.705,-15360.0,3904.0,448.0
3.7075,-15424.0,3968.0,384.0
3.71,-15552.0,3968.0,384.0
3.7125,-15680.0,3968.0,384.0
3.715,-15744.0,4032.0,448.0
3.7175,-15872.0,4096.0,448.0
3.72,-16000.0,4160.0,448.0
3.7225,-16064.0,4224.0,448.0
3.725,-16192.0,4224.0,512.0
3.7275,-16192.0,4288.0,448.0
3.73,-16448.0,4416.0,512.0
3.7325,-16512.0,4352.0,512.0
3.735,-16576.0,4352.0,512.0
3.7375,-16704.0,4352.0,448.0
3.74,-16704.0,4352.0,448.0
3.7425,-16704.0,4416.0,512.0
3.745,-16704.0,4416.0,512.0
3.7475,-16704.0,4416.0,512.0
3.75,-16704.0,4288.0,448.0
3.7525,-16704.0,4288.0,512.0
3.755,-16512.0,4224.0,512.0
3.7575,-16384.0,4224.0,448.0
3.76,-16192.0,4096.0,512.0
3.7625,-16128.0,4032.0,512.0
3.765,-16000.0,4032.0,512.0
3.7675,-15872.0,3968.0,512.0
3.77,-15808.0,3968.0,512.0
3.7725,-15744.0,3840.0,512.0
3.775,-15616.0,3840.0,576.0
3.7775,-15488.0,3776.0,512.0
3.78,-15360.0,3776.0,448.0
3.7825,-15296.0,3712.0,576.0
3.785,-15296.0,3648.0,640.0
3.7875,-15296.0,3584.0,640.0
3.79,-15296.0,3712.0,576.0
3.7925,-15296.0,3712.0,640.0
3.795,-15360.0,3712.0,640.0
3.7975,-15488.0,3712.0,640.0
3.8,-15552.0,3776.0,640.0
3.8025,-15680.0,3840.0,704.0
3.805,-15808.0,3968.0,576.0
3.8075,-15936.0,4032.0,576.0
3.81,-16000.0,4096.0,576.0
3.8125,-16128.0,4160.0,576.0
3.815,-16256.0,4096.0,448.0
3.8175,-16320.0,4160.0,576.0
3.82,-16384.0,4160.0,576.0
3.8225,-16384.0,4096.0,640.0
3.825,-16448.0,4096.0,704.0
3.8275,-16448.0,4096.0,640.0
3.83,-16384.0,4096.0,704.0
3.8325,-16320.0,4096.0,704.0
3.835,-16320.0,4032.0,640.0
3.8375,-16448.0,4032.0,640.0
3.84,-16384.0,3968.0,640.0
3.8425,-16384.0,3968.0,640.0
3.845,-16384.0,3904.0,576.0
3.8475,-16320.0,3840.0,640.0
3.85,-16192.0,3776.0,640.0
3.8525,-16064.0,3712.0,576.0
3.855,-16000.0,3776.0,640.0
3.8575,-15936.0,3712.0,576.0
3.86,-15872.0,3712.0,576.0
3.8625,-15808.0,3648.0,576.0
3.865,-15680.0,3584.0,576.0
3.8675,-15616.0,3520.0,576.0
3.87,-15552.0,3456.0,576.0
3.8725,-15552.0,3392.0,640.0
3.875,-15552.0,3392.0,640.0
3.8775,-15616.0,3456.0,512.0
3.88,-15616.0,3520.0,448.0
3.8825,-15616.0,3520.0,384.0
3.885,-15680.0,3520.0,384.0
3.8875,-15680.0,3520.0,384.0
3.89,-15744.0,3520.0,320.0
3.8925,-15936.0,3520.0,256.0
3.895,-16064.0,3584.0,320.0
3.8975,-16192.0,3648.0,256.0
3.9,-16192.0,3776.0,128.0
3.9025,-16256.0,3776.0,192.0
3.905,-16320.0,3776.0,256.0
3.9075,-16320.0,3776.0,320.0
3.91,-16448.0,3776.0,384.0
3.9125,-16512.0,3776.0,384.0
3.915,-16576.0,3776.0,448.0
3.9175,-16640.0,3840.0,384.0
3.92,-16576.0,3776.0,320.0
3.9225,-16576.0,3776.0,320.0
3.925,-16576.0,3840.0,320.0
3.9275,-16512.0,3840.0,320.0
3.93,-16512.0,3776.0,320.0
3.9325,-16512.0,3840.0,384.0
3.935,-16448.0,3840.0,448.0
3.9375,-16448.0,3840.0,448.0
3.94,-16384.0,3840.0,448.0
3.9425,-16320.0,3776.0,512.0
3.945,-16192.0,3776.0,512.0
3.9475,-16064.0,3712.0,448.0
3.95,-16064.0,3712.0,448.0
3.9525,-16064.0,3712.0,512.0
3.955,-16000.0,3712.0,576.0
3.9575,-15936.0,3712.0,640.0
3.96,-15872.0,3712.0,640.0
3.9625,-15872.0,3648.0,576.0
3.965,-15808.0,3776.0,640.0
3.9675,-15744.0,3776.0,704.0
3.97,-15744.0,3776.0,704.0
3.9725,-15808.0,3712.0,704.0
3.975,-15744.0,3648.0,704.0
3.9775,-15744.0,3648.0,768.0
3.98,-15744.0,3648.0,768.0
3.9825,-15744.0,3648.0,704.0
3.985,-15744.0,3648.0,704.0
3.9875,-15808.0,3648.0,640.0
3.99,-15744.0,3648.0,640.0
3.9925,-15808.0,3648.0,640.0
3.995,-15872.0,3648.0,768.0
3.9975,-15872.0,3648.0,768.0
4.0,-15872.0,3648.0,704.0
4.0025,-15872.0,3584.0,768.0
4.005,-15872.0,3648.0,832.0
4.0075,-15872.0,3648.0,832.0
4.01,-15872.0,3648.0,832.0
4.0125,-15808.0,3584.0,768.0
4.015,-15808.0,3520.0,832.0
4.0175,-15808.0,3584.0,832.0
4.02,-15808.0,3584.0,832.0
4.0225,-15744.0,3584.0,832.0
4.025,-15744.0,3584.0,896.0
4.0275,-15680.0,3584.0,896.0
4.03,-15616.0,3520.0,896.0
4.0325,-15616.0,3520.0,832.0
4.035,-15616.0,3456.0,832.0
4.0375,-15552.0,3456.0,896.0
4.04,-15552.0,3456.0,832.0
4.0425,-15488.0,3456.0,896.0
4.045,-15424.0,3456.0,832.0
4.0475,-15360.0,3456.0,896.0
4.05,-15296.0,3456.0,832.0
4.0525,-15296.0,3456.0,896.0
4.055,-15232.0,3392.0,832.0
4.0575,-15296.0,3456.0,768.0
4.06,-15360.0,3456.0,832.0
4.0625,-15296.0,3456.0,832.0
4.065,-15296.0,3456.0,832.0
4.0675,-15360.0,3392.0,832.0
4.07,-15232.0,3328.0,832.0
4.0725,-15296.0,3264.0,704.0
4.075,-15296.0,3328.0,704.0
4.0775,-15296.0,3328.0,768.0
4.08,-15360.0,3328.0,704.0
4.0825,-15296.0,3328.0,768.0
4.085,-15296.0,3328.0,704.0
4.0875,-15296.0,3328.0,640.0
4.09,-15296.0,3328.0,640.0
4.0925,-15296.0,3328.0,704.0
4.095,-15296.0,3392.0,640.0
4.0975,-15232.0,3392.0,640.0
4.1,-15360.0,3328.0,640.0
4.1025,-15296.0,3392.0,640.0
4.105,-15296.0,3456.0,576.0
4.1075,-15360.0,3456.0,576.0
4.11,-15424.0,3456.0,512.0
4.1125,-15488.0,3520.0,512.0
4.115,-15552.0,3648.0,512.0
4.1175,-15616.0,3712.0,512.0
4.12,-15680.0,3776.0,512.0
4.1225,-15808.0,3904.0,512.0
4.125,-15872.0,3968.0,448.0
4.1275,-16064.0,4096.0,512.0
4.13,-16384.0,4224.0,448.0
4.1325,-16640.0,4480.0,448.0
4.135,-16704.0,4544.0,384.0
4.1375,-16832.0,4672.0,320.0
4.14,-16960.0,4736.0,384.0
4.1425,-17088.0,4736.0,448.0
4.145,-17152.0,4736.0,384.0
4.1475,-17280.0,4864.0,384.0
4.15,-17344.0,4864.0,384.0
4.1525,-17408.0,4928.0,320.0
4.155,-17536.0,4992.0,384.0
4.1575,-17600.0,5056.0,384.0
4.16,-17600.0,5056.0,320.0
4.1625,-17600.0,5120.0,384.0
4.165,-17664.0,5120.0,448.0
4.1675,-17664.0,5056.0,512.0
4.17,-17728.0,5056.0,512.0
4.1725,-17728.0,5056.0,448.0
4.175,-17728.0,5184.0,384.0
4.1775,-17664.0,5184.0,320.0
4.18,-17664.0,5120.0,384.0
4.1825,-17664.0,5120.0,448.0
4.185,-17664.0,5056.0,512.0
4.1875,-17664.0,4992.0,512.0
4.19,-17536.0,4928.0,448.0
4.1925,-17536.0,4928.0,448.0
4.195,-17536.0,4800.0,512.0
4.1975,-17536.0,4736.0,512.0
4.2,-17536.0,4672.0,576.0
4.2025,-17472.0,4608.0,704.0
4.205,-17408.0,4480.0,704.0
4.2075,-17344.0,4352.0,704.0
4.21,-17280.0,4288.0,768.0
4.2125,-17280.0,4288.0,768.0
4.215,-17280.0,4224.0,832.0
4.2175,-17216.0,4160.0,896.0
4.22,-17216.0,4160.0,896.0
4.2225,-17152.0,4160.0,960.0
4.225,-17024.0,4096.0,960.0
4.2275,-16960.0,4096.0,960.0
4.23,-16832.0,4096.0,1024.0
4.2325,-16896.0,4096.0,1088.0
4.235,-16832.0,4032.0,1088.0
4.2375,-16768.0,4032.0,1216.0
4.24,-16704.0,4032.0,1280.0
4.2425,-16640.0,4096.0,1280.0
4.245,-16640.0,4096.0,1216.0
4.2475,-16640.0,4032.0,1280.0
4.25,-16512.0,4032.0,1408.0
4.2525,-16448.0,4032.0,1472.0
4.255,-16384.0,4032.0,1472.0
4.2575,-16384.0,4032.0,1472.0
4.26,-16320.0,4032.0,1472.0
4.2625,-16320.0,4032.0,1600.0
4.265,-16384.0,3904.0,1664.0
4.2675,-16384.0,3904.0,1664.0
4.27,-16448.0,3904.0,1664.0
4.2725,-16384.0,3904.0,1728.0
4.275,-16384.0,3840.0,1728.0
4.2775,-16320.0,3840.0,1664.0
4.28,-16320.0,3840.0,1728.0
4.2825,-16256.0,3840.0,1600.0
4.285,-16256.0,3840.0,1536.0
4.2875,-16192.0,3904.0,1536.0
4.29,-16192.0,3840.0,1472.0
4.2925,-16192.0,3840.0,1472.0
4.295,-16128.0,3840.0,1472.0
4.2975,-16128.0,3840.0,1472.0
4.3,-16128.0,3904.0,1472.0
4.3025,-16128.0,3904.0,1408.0
4.305,-16128.0,3840.0,1472.0
4.3075,-16128.0,3904.0,1472.0
4.31,-16192.0,3968.0,1408.0
4.3125,-16192.0,3968.0,1536.0
4.315,-16256.0,3968.0,1472.0
4.3175,-16192.0,4032.0,1408.0
4.32,-16192.0,4096.0,1472.0
4.3225,-16192.0,4032.0,1408.0
4.325,-16192.0,4032.0,1408.0
4.3275,-16192.0,4032.0,1408.0
4.33,-16192.0,4096.0,1408.0
4.3325,-16256.0,4032.0,1408.0
4.335,-16192.0,4032.0,1408.0
4.3375,-16192.0,4032.0,1408.0
4.34,-16128.0,3968.0,1344.0
4.3425,-16128.0,3968.0,1408.0
4.345,-16064.0,3968.0,1344.0
4.3475,-16000.0,3904.0,1344.0
4.35,-15936.0,3904.0,1344.0
4.3525,-15872.0,3904.0,1344.0
4.355,-15808.0,3840.0,1344.0
4.3575,-15744.0,3840.0,1344.0
4.36,-15744.0,3840.0,1344.0
4.3625,-15744.0,3840.0,1408.0
4.365,-15680.0,3840.0,1344.0
4.3675,-15744.0,3840.0,1408.0
4.37,-15744.0,3840.0,1344.0
4.3725,-15680.0,3776.0,1344.0
4.375,-15744.0,3840.0,1216.0
4.3775,-15808.0,3904.0,1280.0
4.38,-15808.0,3904.0,1280.0
4.3825,-15872.0,3904.0,1216.0
4.385,-15936.0,3904.0,1280.0
4.3875,-15936.0,3968.0,1152.0
4.39,-15936.0,3968.0,1152.0
4.3925,-16000.0,4032.0,1088.0
4.395,-16000.0,4032.0,1024.0
4.3975,-16064.0,4096.0,1024.0
4.4,-16064.0,4032.0,1024.0
4.4025,-16192.0,4032.0,1024.0
4.405,-16128.0,3968.0,960.0
4.4075,-16128.0,4032.0,960.0
4.41,-16128.0,4032.0,960.0
4.4125,-16128.0,4096.0,1024.0
4.415,-16064.0,4096.0,960.0
4.4175,-16128.0,4096.0,896.0
4.42,-16128.0,4096.0,896.0
4.4225,-16192.0,4096.0,896.0
4.425,-16256.0,4032.0,896.0
4.4275,-16256.0,4032.0,896.0
4.43,-16256.0,4096.0,896.0
4.4325,-16256.0,4096.0,832.0
4.435,-16192.0,4096.0,768.0
4.4375,-16192.0,4096.0,832.0
4.44,-16192.0,4160.0,832.0
4.4425,-16192.0,4096.0,768.0
4.445,-16128.0,4032.0,832.0
4.4475,-16128.0,4032.0,832.0
4.45,-16128.0,4032.0,768.0
4.4525,-16128.0,4032.0,832.0
4.455,-16192.0,3904.0,832.0
4.4575,-16192.0,3968.0,832.0
4.46,-16192.0,3904.0,832.0
4.4625,-16192.0,3904.0,896.0
4.465,-16128.0,3840.0,896.0
4.4675,-16192.0,3904.0,896.0
4.47,-16128.0,3904.0,1024.0
4.4725,-16128.0,3904.0,960.0
4.475,-16192.0,3904.0,1024.0
4.4775,-16128.0,3840.0,1024.0
4.48,-16128.0,3840.0,1024.0
4.4825,-16128.0,3840.0,1024.0
4.485,-16128.0,3904.0,1088.0
4.4875,-16192.0,3904.0,1088.0
4.49,-16256.0,3968.0,1088.0
4.4925,-16320.0,3968.0,1088.0
4.495,-16320.0,4096.0,1088.0
4.4975,-16448.0,4096.0,1152.0
4.5,-16576.0,4096.0,1088.0
4.5025,-16576.0,4160.0,1088.0
4.505,-16704.0,4224.0,1152.0
4.5075,-16768.0,4288.0,1088.0
4.51,-16832.0,4416.0,1088.0
4.5125,-16960.0,4544.0,1088.0
4.515,-17088.0,4608.0,1024.0
4.5175,-17216.0,4736.0,1024.0
4.52,-17344.0,4864.0,1088.0
4.5225,-17344.0,4928.0,1216.0
4.525,-17472.0,4992.0,1280.0
4.5275,-17536.0,4992.0,1280.0
4.53,-17664.0,5120.0,1344.0
4.5325,-17792.0,5184.0,1472.0
4.535,-17856.0,5248.0,1408.0
4.5375,-17920.0,5248.0,1344.0
4.54,-18176.0,5248.0,1408.0
4.5425,-17984.0,5248.0,1408.0
4.545,-17984.0,5248.0,1408.0
4.5475,-18048.0,5248.0,1408.0
4.55,-17984.0,5184.0,1472.0
4.5525,-17984.0,5248.0,1472.0
4.555,-17920.0,5184.0,1472.0
4.5575,-17856.0,5056.0,1472.0
4.56,-17792.0,5056.0,1344.0
4.5625,-17728.0,4992.0,1408.0
4.565,-17664.0,4928.0,1408.0
4.5675,-17600.0,4928.0,1344.0
4.57,-17536.0,4864.0,1344.0
4.5725,-17472.0,4800.0,1344.0
4.575,-17344.0,4672.0,1408.0
4.5775,-17280.0,4672.0,1408.0
4.58,-17216.0,4672.0,1472.0
4.5825,-17152.0,4544.0,1408.0
4.585,-17088.0,4608.0,1472.0
4.5875,-17088.0,4544.0,1472.0
4.59,-17024.0,4608.0,1408.0
4.5925,-16960.0,4608.0,1472.0
4.595,-16960.0,4608.0,1536.0
4.5975,-16960.0,4544.0,1600.0
4.6,-16960.0,4480.0,1600.0
4.6025,-17088.0,4608.0,1600.0
4.605,-17024.0,4608.0,1600.0
4.6075,-17024.0,4736.0,1600.0
4.61,-17024.0,4672.0,1728.0
4.6125,-17024.0,4672.0,1792.0
4.615,-17024.0,4672.0,1792.0
4.6175,-17024.0,4672.0,1856.0
4.62,-17024.0,4608.0,1856.0
4.6225,-16960.0,4672.0,1920.0
4.625,-17024.0,4608.0,1920.0
4.6275,-16960.0,4608.0,1920.0
4.63,-16960.0,4608.0,1920.0
4.6325,-16832.0,4608.0,1856.0
4.635,-16768.0,4544.0,1856.0
4.6375,-16832.0,4544.0,1920.0
4.64,-16832.0,4544.0,1920.0
4.6425,-16832.0,4544.0,1920.0
4.645,-16960.0,4544.0,1920.0
4.6475,-16960.0,4544.0,1920.0
4.65,-17024.0,4416.0,1856.0
4.6525,-17088.0,4480.0,1856.0
4.655,-17088.0,4416.0,1792.0
4.6575,-17024.0,4416.0,1792.0
4.66,-17024.0,4416.0,1728.0
4.6625,-16960.0,4352.0,1728.0
4.665,-17024.0,4480.0,1664.0
4.6675,-17024.0,4416.0,1728.0
4.67,-17024.0,4416.0,1600.0
4.6725,-17024.0,4416.0,1600.0
4.675,-17024.0,4416.0,1664.0
4.6775,-17088.0,4416.0,1600.0
4.68,-17088.0,4480.0,1536.0
4.6825,-17152.0,4544.0,1600.0
4.685,-17152.0,4608.0,1536.0
4.6875,-17216.0,4672.0,1536.0
4.69,-17344.0,4736.0,1472.0
4.6925,-17344.0,4800.0,1472.0
4.695,-17344.0,4864.0,1472.0
4.6975,-17408.0,4864.0,1536.0
4.7,-17472.0,4864.0,1600.0
4.7025,-17536.0,4928.0,1600.0
4.705,-17600.0,4928.0,1472.0
4.7075,-17664.0,4992.0,1536.0
4.71,-17728.0,5056.0,1536.0
4.7125,-17792.0,5120.0,1600.0
4.715,-17792.0,5120.0,1664.0
4.7175,-17856.0,5120.0,1664.0
4.72,-17920.0,5184.0,1728.0
4.7225,-17920.0,5184.0,1728.0
4.725,-17984.0,5248.0,1664.0
4.7275,-17984.0,5248.0,1728.0
4.73,-18048.0,5184.0,1600.0
4.7325,-18048.0,5184.0,1664.0
4.735,-18048.0,5120.0,1664.0
4.7375,-18176.0,5184.0,1600.0
4.74,-18176.0,5120.0,1536.0
4.7425,-18176.0,5120.0,1536.0
4.745,-18240.0,5120.0,1536.0
4.7475,-18240.0,5120.0,1536.0
4.75,-18304.0,5120.0,1664.0
4.7525,-18240.0,5056.0,1664.0
4.755,-18240.0,4992.0,1664.0
4.7575,-18304.0,4992.0,1664.0
4.76,-18368.0,4928.0,1728.0
4.7625,-18304.0,4928.0,1728.0
4.765,-18240.0,4864.0,1792.0
4.7675,-18240.0,4864.0,1728.0
4.77,-18368.0,4864.0,1664.0
4.7725,-18368.0,4736.0,1728.0
4.775,-18368.0,4736.0,1728.0
4.7775,-18368.0,4736.0,1728.0
4.78,-18368.0,4736.0,1728.0
4.7825,-18368.0,4672.0,1728.0
4.785,-18432.0,4672.0,1728.0
4.7875,-18432.0,4672.0,1728.0
4.79,-18496.0,4672.0,1728.0
4.7925,-18560.0,4672.0,1728.0
4.795,-18560.0,4672.0,1728.0
4.7975,-18560.0,4736.0,1856.0
4.8,-18496.0,4672.0,1728.0
4.8025,-18496.0,4736.0,1728.0
4.805,-18432.0,4736.0,1792.0
4.8075,-18496.0,4736.0,1792.0
4.81,-18432.0,4800.0,1728.0
4.8125,-18368.0,4736.0,1728.0
4.815,-18368.0,4800.0,1728.0
4.8175,-18432.0,4800.0,1728.0
4.82,-18432.0,4736.0,1664.0
4.8225,-18432.0,4800.0,1728.0
4.825,-18432.0,4736.0,1728.0
4.8275,-18432.0,4736.0,1728.0
4.83,-18432.0,4736.0,1728.0
4.8325,-18368.0,4736.0,1664.0
4.835,-18368.0,4672.0,1536.0
4.8375,-18304.0,4672.0,1600.0
4.84,-18304.0,4608.0,1600.0
4.8425,-18240.0,4672.0,1600.0
4.845,-18240.0,4608.0,1600.0
4.8475,-18240.0,4608.0,1536.0
4.85,-18176.0,4608.0,1280.0
4.8525,-18240.0,4544.0,1472.0
4.855,-18240.0,4544.0,1472.0
4.8575,-18240.0,4608.0,1408.0
4.86,-18304.0,4544.0,1536.0
4.8625,-18432.0,4608.0,1536.0
4.865,-18432.0,4672.0,1472.0
4.8675,-18368.0,4672.0,1472.0
4.87,-18304.0,4736.0,1472.0
4.8725,-18304.0,4736.0,1344.0
4.875,-18368.0,4800.0,1344.0
4.8775,-18368.0,4864.0,1344.0
4.88,-18432.0,4864.0,1280.0
4.8825,-18432.0,4864.0,1344.0
4.885,-18496.0,4928.0,1344.0
4.8875,-18560.0,4928.0,1344.0
4.89,-18560.0,4992.0,1344.0
4.8925,-18624.0,4992.0,1344.0
4.895,-18560.0,5056.0,1408.0
4.8975,-18496.0,5056.0,1472.0
4.9,-18496.0,5056.0,1344.0
4.9025,-18432.0,5056.0,1344.0
4.905,-18432.0,4992.0,1408.0
4.9075,-18432.0,4992.0,1408.0
4.91,-18432.0,4992.0,1408.0
4.9125,-18304.0,4928.0,1344.0
4.915,-18240.0,4928.0,1408.0
4.9175,-18176.0,4992.0,1408.0
4.92,-18112.0,4992.0,1408.0
4.9225,-18048.0,4992.0,1408.0
4.925,-18048.0,4928.0,1408.0
4.9275,-17920.0,4928.0,1344.0
4.93,-17792.0,4800.0,1408.0
4.9325,-17792.0,4800.0,1344.0
4.935,-17728.0,4800.0,1344.0
4.9375,-17664.0,4800.0,1344.0
4.94,-17664.0,4736.0,1280.0
4.9425,-17600.0,4736.0,1344.0
4.945,-17600.0,4672.0,1344.0
4.9475,-17536.0,4736.0,1408.0
4.95,-17472.0,4672.0,1408.0
4.9525,-17472.0,4608.0,1408.0
4.955,-17472.0,4672.0,1408.0
4.9575,-17472.0,4736.0,1344.0
4.96,-17536.0,4800.0,1344.0
4.9625,-17472.0,4672.0,1280.0
4.965,-17536.0,4800.0,1216.0
4.9675,-17536.0,4736.0,1280.0
4.97,-17472.0,4672.0,1216.0
4.9725,-17472.0,4672.0,1216.0
4.975,-17536.0,4672.0,1152.0
4.9775,-17536.0,4672.0,1216.0
4.98,-17600.0,4672.0,1152.0
4.9825,-17664.0,4672.0,1152.0
4.985,-17600.0,4672.0,1152.0
4.9875,-17536.0,4736.0,1088.0
4.99,-17536.0,4672.0,1152.0
4.9925,-17536.0,4672.0,1088.0
4.995,-17600.0,4608.0,1152.0
4.9975,-17536.0,4544.0,1152.0
5.0,-17536.0,4544.0,1088.0
5.0025,-17472.0,4608.0,1024.0
5.005,-17344.0,4608.0,1024.0
5.0075,-17280.0,4608.0,1024.0
5.01,-17216.0,4672.0,1024.0
5.0125,-17152.0,4672.0,960.0
5.015,-17088.0,4672.0,960.0
5.0175,-17024.0,4672.0,960.0
5.02,-17024.0,4544.0,960.0
5.0225,-16960.0,4672.0,960.0
5.025,-16896.0,4608.0,1024.0
5.0275,-16832.0,4608.0,960.0
5.03,-16832.0,4480.0,960.0
5.0325,-16768.0,4608.0,1024.0
5.035,-16704.0,4544.0,896.0
5.0375,-16640.0,4544.0,1024.0
5.04,-16512.0,4480.0,1024.0
5.0425,-16384.0,4416.0,960.0
5.045,-16384.0,4416.0,960.0
5.0475,-16384.0,4352.0,1024.0
5.05,-16320.0,4288.0,896.0
5.0525,-16256.0,4352.0,896.0
5.055,-16256.0,4288.0,896.0
5.0575,-16192.0,4288.0,960.0
5.06,-16128.0,4288.0,896.0
5.0625,-16192.0,4224.0,832.0
5.065,-16128.0,4224.0,768.0
5.0675,-16192.0,4224.0,832.0
5.07,-16128.0,4160.0,896.0
5.0725,-16192.0,4224.0,960.0
5.075,-16128.0,4224.0,896.0
5.0775,-16128.0,4160.0,896.0
5.08,-16192.0,4224.0,896.0
5.0825,-16192.0,4160.0,896.0
5.085,-16192.0,4160.0,896.0
5.0875,-16192.0,4160.0,832.0
5.09,-16320.0,4224.0,768.0
5.0925,-16448.0,4224.0,704.0
5.095,-16512.0,4288.0,704.0
5.0975,-16512.0,4352.0,640.0
5.1,-16576.0,4352.0,704.0
5.1025,-16704.0,4416.0,704.0
5.105,-16704.0,4352.0,704.0
5.1075,-16832.0,4416.0,640.0
5.11,-16896.0,4416.0,704.0
5.1125,-16896.0,4480.0,704.0
5.115,-17024.0,4480.0,768.0
5.1175,-17152.0,4544.0,768.0
5.12,-17216.0,4544.0,704.0
5.1225,-17344.0,4608.0,704.0
5.125,-17408.0,4608.0,704.0
5.1275,-17408.0,4544.0,640.0
5.13,-17408.0,4608.0,640.0
5.1325,-17408.0,4672.0,640.0
5.135,-17472.0,4608.0,640.0
5.1375,-17472.0,4608.0,704.0
5.14,-17472.0,4544.0,704.0
5.1425,-17472.0,4544.0,704.0
5.145,-17536.0,4544.0,704.0
5.1475,-17536.0,4544.0,704.0
5.15,-17472.0,4544.0,640.0
5.1525,-17472.0,4544.0,704.0
5.155,-17472.0,4480.0,768.0
5.1575,-17408.0,4480.0,704.0
5.16,-17408.0,4480.0,704.0
5.1625,-17344.0,4544.0,704.0
5.165,-17344.0,4480.0,640.0
5.1675,-17344.0,4480.0,704.0
5.17,-17344.0,4416.0,768.0
5.1725,-17344.0,4416.0,832.0
5.175,-17280.0,4416.0,896.0
5.1775,-17280.0,4416.0,960.0
5.18,-17344.0,4480.0,960.0
5.1825,-17344.0,4416.0,1088.0
5.185,-17344.0,4416.0,1024.0
5.1875,-17344.0,4352.0,1024.0
5.19,-17280.0,4352.0,960.0
5.1925,-17344.0,4416.0,1024.0
5.195,-17280.0,4416.0,1088.0
5.1975,-17280.0,4416.0,1024.0
5.2,-17280.0,4480.0,1024.0
5.2025,-17280.0,4480.0,1024.0
5.205,-17344.0,4480.0,960.0
5.2075,-17344.0,4544.0,1024.0
5.21,-17408.0,4544.0,1024.0
5.2125,-17472.0,4544.0,1024.0
5.215,-17472.0,4544.0,896.0
5.2175,-17536.0,4544.0,896.0
5.22,-17536.0,4480.0,960.0
5.2225,-17600.0,4544.0,896.0
5.225,-17664.0,4544.0,896.0
5.2275,-17728.0,4608.0,896.0
5.23,-17792.0,4608.0,896.0
5.2325,-17792.0,4608.0,960.0
5.235,-17920.0,4608.0,896.0
5.2375,-17920.0,4672.0,960.0
5.24,-17920.0,4672.0,896.0
5.2425,-17984.0,4736.0,896.0
5.245,-17984.0,4736.0,960.0
5.2475,-17984.0,4608.0,896.0
5.25,-17920.0,4672.0,960.0
5.2525,-17856.0,4608.0,896.0
5.255,-17792.0,4608.0,832.0
5.2575,-17728.0,4544.0,832.0
5.26,-17600.0,4480.0,832.0
5.2625,-17472.0,4480.0,896.0
5.265,-17408.0,4416.0,896.0
5.2675,-17280.0,4352.0,960.0
5.27,-17280.0,4352.0,896.0
5.2725,-17088.0,4224.0,960.0
5.275,-17024.0,4160.0,960.0
5.2775,-16832.0,4096.0,960.0
5.28,-16768.0,4032.0,960.0
5.2825,-16640.0,3968.0,1024.0
5.285,-16512.0,3968.0,1024.0
5.2875,-16384.0,3904.0,1088.0
5.29,-16192.0,3776.0,1088.0
5.2925,-16128.0,3776.0,1152.0
5.295,-16000.0,3712.0,1088.0
5.2975,-15936.0,3648.0,1088.0
5.3,-15808.0,3584.0,1216.0
5.3025,-15680.0,3456.0,1216.0
5.305,-15680.0,3392.0,1216.0
5.3075,-15552.0,3392.0,1216.0
5.31,-15424.0,3328.0,1152.0
5.3125,-15424.0,3264.0,1152.0
5.315,-15296.0,3264.0,1216.0
5.3175,-15168.0,3264.0,1216.0
5.32,-15168.0,3264.0,1152.0
5.3225,-15104.0,3136.0,1216.0
5.325,-15104.0,3136.0,1152.0
5.3275,-15104.0,3200.0,1152.0
5.33,-15168.0,3264.0,1088.0
5.3325,-15168.0,3264.0,1024.0
5.335,-15168.0,3200.0,960.0
5.3375,-15168.0,3264.0,1024.0
5.34,-15232.0,3328.0,1024.0
5.3425,-15296.0,3328.0,1024.0
5.345,-15360.0,3392.0,960.0
5.3475,-15424.0,3392.0,960.0
5.35,-15488.0,3456.0,1024.0
5.3525,-15552.0,3520.0,1024.0
5.355,-15552.0,3584.0,960.0
5.3575,-15616.0,3584.0,832.0
5.36,-15552.0,3584.0,832.0
5.3625,-15616.0,3712.0,704.0
5.365,-15616.0,3776.0,768.0
5.3675,-15680.0,3840.0,768.0
5.37,-15616.0,3840.0,704.0
5.3725,-15680.0,3840.0,640.0
5.375,-15744.0,3904.0,640.0
5.3775,-15744.0,3968.0,640.0
5.38,-15744.0,3904.0,576.0
5.3825,-15744.0,3968.0,576.0
5.385,-15808.0,3904.0,512.0
5.3875,-15744.0,3904.0,512.0
5.39,-15744.0,3968.0,512.0
5.3925,-15808.0,3968.0,448.0
5.395,-15808.0,3968.0,512.0
5.3975,-15808.0,3968.0,512.0
5.4,-15680.0,3904.0,448.0
5.4025,-15744.0,3968.0,512.0
5.405,-15744.0,3968.0,512.0
5.4075,-15744.0,3904.0,448.0
5.41,-15680.0,3840.0,384.0
5.4125,-15680.0,3840.0,384.0
5.415,-15552.0,3840.0,384.0
5.4175,-15552.0,3840.0,384.0
5.42,-15552.0,3840.0,320.0
5.4225,-15616.0,3776.0,384.0
5.425,-15552.0,3712.0,384.0
5.4275,-15488.0,3712.0,448.0
5.43,-15424.0,3712.0,384.0
5.4325,-15424.0,3712.0,448.0
5.435,-15360.0,3648.0,448.0
5.4375,-15296.0,3648.0,448.0
5.44,-15232.0,3584.0,448.0
5.4425,-15232.0,3584.0,512.0
5.445,-15168.0,3584.0,512.0
5.4475,-15104.0,3520.0,512.0
5.45,-15232.0,3520.0,448.0
5.4525,-15168.0,3520.0,512.0
5.455,-15168.0,3456.0,448.0
5.4575,-15104.0,3392.0,512.0
5.46,-15104.0,3456.0,512.0
5.4625,-15104.0,3392.0,512.0
5.465,-15040.0,3328.0,512.0
5.4675,-14976.0,3328.0,576.0
5.47,-14912.0,3328.0,576.0
5.4725,-14912.0,3328.0,512.0
5.475,-14848.0,3200.0,576.0
5.4775,-14848.0,3136.0,576.0
5.48,-14784.0,3136.0,576.0
5.4825,-14720.0,3136.0,576.0
5.485,-14720.0,3136.0,640.0
5.4875,-14720.0,3008.0,576.0
5.49,-14592.0,3072.0,512.0
5.4925,-14656.0,3072.0,512.0
5.495,-14592.0,3072.0,448.0
5.4975,-14528.0,3008.0,512.0
5.5,-14464.0,2944.0,512.0
5.5025,-14464.0,2944.0,576.0
5.505,-14464.0,2944.0,640.0
5.5075,-14400.0,2880.0,640.0
5.51,-14336.0,2880.0,512.0
5.5125,-14400.0,2880.0,576.0
5.515,-14464.0,2944.0,576.0
5.5175,-14400.0,3008.0,512.0
5.52,-14336.0,3072.0,576.0
5.5225,-14336.0,3072.0,576.0
5.525,-14336.0,3072.0,512.0
5.5275,-14336.0,3072.0,512.0
5.53,-14336.0,3136.0,512.0
5.5325,-14400.0,3136.0,512.0
5.535,-14336.0,3136.0,512.0
5.5375,-14336.0,3200.0,448.0
5.54,-14336.0,3200.0,512.0
5.5425,-14272.0,3328.0,512.0
5.545,-14272.0,3328.0,512.0
5.5475,-14336.0,3392.0,448.0
5.55,-14272.0,3392.0,512.0
5.5525,-14272.0,3456.0,448.0
5.555,-14336.0,3456.0,448.0
5.5575,-14336.0,3520.0,512.0
5.56,-14336.0,3584.0,512.0
5.5625,-14400.0,3584.0,512.0
5.565,-14400.0,3648.0,576.0
5.5675,-14336.0,3712.0,640.0
5.57,-14464.0,3712.0,576.0
5.5725,-14464.0,3776.0,512.0
5.575,-14528.0,3712.0,448.0
5.5775,-14528.0,3840.0,448.0
5.58,-14592.0,3776.0,448.0
5.5825,-14656.0,3840.0,384.0
5.585,-14656.0,3840.0,384.0
5.5875,-14656.0,3840.0,256.0
5.59,-14656.0,3840.0,256.0
5.5925,-14720.0,3840.0,256.0
5.595,-14784.0,3904.0,192.0
5.5975,-14784.0,3968.0,128.0
5.6,-14848.0,3968.0,128.0
5.6025,-14848.0,4032.0,128.0
5.605,-14976.0,4096.0,64.0
5.6075,-14976.0,4096.0,64.0
5.61,-14976.0,4096.0,0.0
5.6125,-15040.0,4096.0,64.0
5.615,-15104.0,4096.0,0.0
5.6175,-15104.0,4096.0,-64.0
5.62,-15168.0,4224.0,-64.0
5.6225,-15168.0,4224.0,0.0
5.625,-15232.0,4352.0,-64.0
5.6275,-15296.0,4352.0,-128.0
5.63,-15360.0,4416.0,-128.0
5.6325,-15424.0,4480.0,-128.0
5.635,-15360.0,4480.0,-128.0
5.6375,-15424.0,4480.0,-128.0
5.64,-15488.0,4544.0,-128.0
5.6425,-15488.0,4544.0,-192.0
5.645,-15488.0,4608.0,-192.0
5.6475,-15488.0,4672.0,-192.0
5.65,-15552.0,4736.0,-128.0
5.6525,-15616.0,4736.0,-128.0
5.655,-15680.0,4736.0,-192.0
5.6575,-15680.0,4800.0,-128.0
5.66,-15680.0,4736.0,-64.0
5.6625,-15680.0,4672.0,0.0
5.665,-15616.0,4736.0,-64.0
5.6675,-15616.0,4736.0,0.0
5.67,-15616.0,4736.0,0.0
5.6725,-15552.0,4800.0,-64.0
5.675,-15488.0,4800.0,0.0
5.6775,-15424.0,4864.0,0.0
5.68,-15424.0,4864.0,0.0
5.6825,-15424.0,4864.0,0.0
5.685,-15424.0,4928.0,64.0
5.6875,-15360.0,4928.0,64.0
5.69,-15232.0,4864.0,64.0
5.6925,-15168.0,4864.0,64.0
5.695,-15104.0,4928.0,64.0
5.6975,-15104.0,4864.0,128.0
5.7,-15040.0,4864.0,192.0
5.7025,-15104.0,4800.0,320.0
5.705,-15040.0,4800.0,448.0
5.7075,-15104.0,4800.0,512.0
5.71,-15104.0,4800.0,448.0
5.7125,-15104.0,4736.0,448.0
5.715,-15104.0,4736.0,512.0
5.7175,-14976.0,4736.0,512.0
5.72,-15040.0,4800.0,512.0
5.7225,-14976.0,4736.0,576.0
5.725,-14976.0,4672.0,576.0
5.7275,-14912.0,4736.0,576.0
5.73,-14848.0,4672.0,576.0
5.7325,-14784.0,4736.0,576.0
5.735,-14848.0,4672.0,512.0
5.7375,-14784.0,4672.0,576.0
5.74,-14784.0,4672.0,576.0
5.7425,-14784.0,4672.0,576.0
5.745,-14784.0,4672.0,576.0
5.7475,-14720.0,4672.0,576.0
5.75,-14848.0,4736.0,512.0
5.7525,-14848.0,4736.0,512.0
5.755,-14912.0,4608.0,576.0
5.7575,-14912.0,4672.0,576.0
5.76,-14848.0,4672.0,576.0
5.7625,-14912.0,4672.0,576.0
5.765,-14976.0,4672.0,576.0
5.7675,-14976.0,4672.0,576.0
5.77,-15040.0,4672.0,576.0
5.7725,-14976.0,4672.0,576.0
5.775,-14976.0,4672.0,512.0
5.7775,-14976.0,4672.0,512.0
5.78,-14976.0,4672.0,448.0
5.7825,-14976.0,4672.0,384.0
5.785,-14976.0,4672.0,448.0
5.7875,-14976.0,4736.0,384.0
5.79,-14976.0,4672.0,448.0
5.7925,-14976.0,4608.0,448.0
5.795,-14912.0,4608.0,512.0
5.7975,-14976.0,4544.0,448.0
5.8,-14912.0,4480.0,448.0
5.8025,-14912.0,4480.0,448.0
5.805,-14848.0,4480.0,384.0
5.8075,-14784.0,4416.0,384.0
5.81,-14720.0,4224.0,384.0
5.8125,-14720.0,4224.0,448.0
5.815,-14656.0,4224.0,448.0
5.8175,-14528.0,4160.0,384.0
5.82,-14528.0,4096.0,448.0
5.8225,-14528.0,4032.0,384.0
5.825,-14464.0,4032.0,384.0
5.8275,-14400.0,4096.0,320.0
5.83,-14464.0,4032.0,320.0
5.8325,-14336.0,3968.0,384.0
5.835,-14272.0,3968.0,320.0
5.8375,-14272.0,3968.0,320.0
5.84,-14272.0,3968.0,448.0
5.8425,-14272.0,3968.0,448.0
5.845,-14272.0,3968.0,448.0
5.8475,-14400.0,3968.0,448.0
5.85,-14400.0,3968.0,384.0
5.8525,-14400.0,3968.0,448.0
5.855,-14464.0,3968.0,448.0
5.8575,-14464.0,3968.0,448.0
5.86,-14528.0,3968.0,384.0
5.8625,-14528.0,4032.0,448.0
5.865,-14528.0,4096.0,448.0
5.8675,-14592.0,4096.0,384.0
5.87,-14592.0,4096.0,448.0
5.8725,-14720.0,4160.0,384.0
5.875,-14720.0,4096.0,448.0
5.8775,-14720.0,4096.0,512.0
5.88,-14720.0,4096.0,576.0
5.8825,-14720.0,4096.0,512.0
5.885,-14656.0,4096.0,448.0
5.8875,-14720.0,4032.0,448.0
5.89,-14656.0,4032.0,384.0
5.8925,-14656.0,3968.0,384.0
5.895,-14592.0,3904.0,384.0
5.8975,-14592.0,3968.0,320.0
5.9,-14528.0,3968.0,320.0
5.9025,-14400.0,3840.0,320.0
5.905,-14336.0,3840.0,384.0
5.9075,-14208.0,3840.0,384.0
5.91,-14208.0,3712.0,448.0
5.9125,-14208.0,3776.0,448.0
5.915,-14144.0,3776.0,448.0
5.9175,-14080.0,3776.0,512.0
5.92,-14080.0,3712.0,448.0
5.9225,-14144.0,3776.0,448.0
5.925,-14144.0,3776.0,448.0
5.9275,-14144.0,3776.0,448.0
5.93,-14208.0,3776.0,512.0
5.9325,-14272.0,3776.0,512.0
5.935,-14336.0,3840.0,512.0
5.9375,-14336.0,3840.0,512.0
5.94,-14464.0,3904.0,512.0
5.9425,-14528.0,3968.0,512.0
5.945,-14592.0,4032.0,448.0
5.9475,-14656.0,4032.0,448.0
5.95,-14656.0,4032.0,512.0
5.9525,-14784.0,4096.0,512.0
5.955,-14912.0,4096.0,448.0
5.9575,-14976.0,4160.0,512.0
5.96,-15040.0,4160.0,448.0
5.9625,-15040.0,4160.0,448.0
5.965,-15104.0,4224.0,448.0
5.9675,-15232.0,4224.0,448.0
5.97,-15424.0,4224.0,448.0
5.9725,-15424.0,4224.0,448.0
5.975,-15488.0,4288.0,512.0
5.9775,-15552.0,4224.0,448.0
5.98,-15616.0,4288.0,448.0
5.9825,-15680.0,4224.0,448.0
5.985,-15680.0,4288.0,320.0
5.9875,-15744.0,4224.0,320.0
5.99,-15744.0,4288.0,256.0
5.9925,-15744.0,4224.0,192.0
5.995,-15808.0,4160.0,256.0
5.9975,-15808.0,4160.0,256.0
6.0,-15808.0,4160.0,256.0
6.0025,-15808.0,4224.0,256.0
6.005,-15744.0,4160.0,256.0
6.0075,-15680.0,4160.0,256.0
6.01,-15680.0,4160.0,256.0
6.0125,-15616.0,4160.0,320.0
6.015,-15552.0,4160.0,320.0
6.0175,-15552.0,4096.0,384.0
6.02,-15488.0,4096.0,320.0
6.0225,-15552.0,4032.0,320.0
6.025,-15488.0,4032.0,384.0
6.0275,-15488.0,4032.0,320.0
6.03,-15488.0,3968.0,320.0
6.0325,-15488.0,3968.0,256.0
6.035,-15424.0,3968.0,320.0
6.0375,-15488.0,3904.0,384.0
6.04,-15488.0,3968.0,320.0
6.0425,-15424.0,3968.0,320.0
6.045,-15424.0,4032.0,448.0
6.0475,-15488.0,3968.0,384.0
6.05,-15424.0,3968.0,384.0
6.0525,-15488.0,3968.0,384.0
6.055,-15552.0,3968.0,384.0
6.0575,-15488.0,3904.0,384.0
6.06,-15552.0,3968.0,384.0
6.0625,-15552.0,4032.0,384.0
6.065,-15552.0,3968.0,384.0
6.0675,-15552.0,4032.0,320.0
6.07,-15616.0,4032.0,448.0
6.0725,-15680.0,4032.0,448.0
6.075,-15744.0,4096.0,384.0
6.0775,-15808.0,4096.0,320.0
6.08,-15808.0,4096.0,320.0
6.0825,-15744.0,4096.0,384.0
6.085,-15808.0,4096.0,384.0
6.0875,-15808.0,4096.0,320.0
6.09,-15872.0,4160.0,320.0
6.0925,-15936.0,4160.0,384.0
6.095,-15872.0,4160.0,384.0
6.0975,-15936.0,4224.0,384.0
6.1,-16064.0,4224.0,384.0
6.1025,-16000.0,4224.0,384.0
6.105,-16000.0,4224.0,384.0
6.1075,-16000.0,4224.0,256.0
6.11,-16064.0,4288.0,192.0
6.1125,-16128.0,4288.0,256.0
6.115,-16192.0,4352.0,192.0
6.1175,-16192.0,4352.0,192.0
6.12,-16256.0,4352.0,128.0
6.1225,-16256.0,4416.0,192.0
6.125,-16384.0,4480.0,128.0
6.1275,-16448.0,4480.0,128.0
6.13,-16448.0,4416.0,128.0
6.1325,-16448.0,4416.0,192.0
6.135,-16448.0,4352.0,128.0
6.1375,-16448.0,4416.0,128.0
6.14,-16448.0,4416.0,64.0
6.1425,-16448.0,4416.0,0.0
6.145,-16384.0,4480.0,0.0
6.1475,-16384.0,4352.0,64.0
6.15,-16384.0,4352.0,64.0
6.1525,-16448.0,4352.0,128.0
6.155,-16448.0,4288.0,64.0
6.1575,-16384.0,4288.0,64.0
6.16,-16384.0,4288.0,0.0
6.1625,-16320.0,4288.0,0.0
6.165,-16320.0,4288.0,-64.0
6.1675,-16320.0,4224.0,0.0
6.17,-16320.0,4224.0,0.0
6.1725,-16256.0,4288.0,64.0
6.175,-16320.0,4288.0,128.0
6.1775,-16320.0,4224.0,192.0
6.18,-16320.0,4224.0,128.0
6.1825,-16320.0,4224.0,128.0
6.185,-16320.0,4160.0,128.0
6.1875,-16320.0,4160.0,128.0
6.19,-16320.0,4160.0,128.0
6.1925,-16256.0,4160.0,192.0
6.195,-16256.0,4160.0,128.0
6.1975,-16256.0,4160.0,128.0
6.2,-16192.0,4096.0,192.0
6.2025,-16192.0,4096.0,128.0
6.205,-16192.0,4096.0,128.0
6.2075,-16192.0,4096.0,192.0
6.21,-16128.0,4096.0,256.0
6.2125,-16128.0,4096.0,192.0
6.215,-16192.0,4096.0,128.0
6.2175,-16128.0,4096.0,128.0
6.22,-16192.0,4096.0,64.0
6.2225,-16256.0,4160.0,64.0
6.225,-16192.0,4160.0,0.0
6.2275,-16192.0,4160.0,0.0
6.23,-16192.0,4160.0,128.0
6.2325,-16192.0,4224.0,128.0
6.235,-16256.0,4224.0,64.0
6.2375,-16192.0,4224.0,64.0
6.24,-16192.0,4224.0,128.0
6.2425,-16192.0,4288.0,128.0
6.245,-16192.0,4160.0,128.0
6.2475,-16128.0,4224.0,192.0
6.25,-16192.0,4224.0,192.0
6.2525,-16192.0,4224.0,256.0
6.255,-16192.0,4160.0,192.0
6.2575,-16128.0,4160.0,256.0
6.26,-16192.0,4160.0,256.0
6.2625,-16192.0,4160.0,192.0
6.265,-16192.0,4160.0,192.0
6.2675,-16192.0,4160.0,192.0
6.27,-16192.0,4160.0,128.0
6.2725,-16192.0,4224.0,64.0
6.275,-16256.0,4224.0,64.0
6.2775,-16192.0,4224.0,128.0
6.28,-16192.0,4224.0,192.0
6.2825,-16192.0,4224.0,192.0
6.285,-16192.0,4224.0,128.0
6.2875,-16192.0,4224.0,64.0
6.29,-16192.0,4224.0,128.0
6.2925,-16256.0,4224.0,192.0
6.295,-16192.0,4224.0,256.0
6.2975,-16256.0,4224.0,192.0
6.3,-16192.0,4224.0,128.0
6.3025,-16192.0,4224.0,128.0
6.305,-16192.0,4288.0,64.0
6.3075,-16128.0,4288.0,64.0
6.31,-16128.0,4224.0,128.0
6.3125,-16128.0,4224.0,128.0
6.315,-16128.0,4224.0,192.0
6.3175,-16128.0,4224.0,192.0
6.32,-16128.0,4224.0,192.0
6.3225,-16128.0,4224.0,192.0
6.325,-16128.0,4224.0,128.0
6.3275,-16192.0,4224.0,128.0
6.33,-16192.0,4288.0,128.0
6.3325,-16192.0,4224.0,128.0
6.335,-16192.0,4224.0,64.0
6.3375,-16192.0,4224.0,128.0
6.34,-16128.0,4288.0,128.0
6.3425,-16128.0,4224.0,128.0
6.345,-16128.0,4224.0,64.0
6.3475,-16128.0,4224.0,64.0
6.35,-16128.0,4224.0,128.0
6.3525,-16128.0,4160.0,64.0
6.355,-16128.0,4160.0,64.0
6.3575,-16128.0,4096.0,64.0
6.36,-16064.0,4096.0,64.0
6.3625,-16128.0,4096.0,64.0
6.365,-16128.0,4096.0,64.0
6.3675,-16128.0,4096.0,64.0
6.37,-16000.0,4096.0,0.0
6.3725,-16000.0,4032.0,-64.0
6.375,-16000.0,4096.0,-64.0
6.3775,-16064.0,4160.0,-64.0
6.38,-16128.0,4096.0,0.0
6.3825,-16064.0,4096.0,0.0
6.385,-16064.0,4160.0,0.0
6.3875,-16064.0,4160.0,0.0
6.39,-16064.0,4160.0,-64.0
6.3925,-16000.0,4160.0,0.0
6.395,-16000.0,4160.0,-64.0
6.3975,-16000.0,4224.0,-64.0
6.4,-16000.0,4160.0,-64.0
6.4025,-16064.0,4224.0,0.0
6.405,-16064.0,4224.0,0.0
6.4075,-16000.0,4288.0,64.0
6.41,-16000.0,4352.0,64.0
6.4125,-16064.0,4352.0,0.0
6.415,-16000.0,4352.0,64.0
6.4175,-16000.0,4352.0,64.0
6.42,-16000.0,4416.0,64.0
6.4225,-16000.0,4352.0,64.0
6.425,-16000.0,4416.0,64.0
6.4275,-16064.0,4416.0,64.0
6.43,-16064.0,4416.0,64.0
6.4325,-16064.0,4416.0,0.0
6.435,-16064.0,4352.0,-64.0
6.4375,-16128.0,4416.0,-64.0
6.44,-16128.0,4480.0,-64.0
6.4425,-16192.0,4480.0,-128.0
6.445,-16192.0,4480.0,-64.0
6.4475,-16256.0,4416.0,0.0
6.45,-16192.0,4416.0,-64.0
6.4525,-16192.0,4480.0,-64.0
6.455,-16256.0,4480.0,-64.0
6.4575,-16320.0,4416.0,0.0
6.46,-16256.0,4480.0,-64.0
6.4625,-16256.0,4480.0,-128.0
6.465,-16320.0,4416.0,-128.0
6.4675,-16256.0,4352.0,-128.0
6.47,-16256.0,4352.0,-128.0
6.4725,-16256.0,4352.0,-128.0
6.475,-16256.0,4416.0,-128.0
6.4775,-16192.0,4352.0,-64.0
6.48,-16256.0,4416.0,0.0
6.4825,-16192.0,4352.0,0.0
6.485,-16128.0,4352.0,64.0
6.4875,-16192.0,4352.0,64.0
6.49,-16192.0,4288.0,64.0
6.4925,-16128.0,4352.0,64.0
6.495,-16064.0,4352.0,64.0
6.4975,-16064.0,4352.0,128.0
6.5,-16000.0,4352.0,128.0
6.5025,-16000.0,4288.0,128.0
6.505,-16000.0,4288.0,192.0
6.5075,-16000.0,4288.0,128.0
6.51,-16000.0,4288.0,64.0
6.5125,-15936.0,4224.0,192.0
6.515,-15936.0,4224.0,192.0
6.5175,-15936.0,4352.0,128.0
6.52,-15872.0,4288.0,128.0
6.5225,-15872.0,4288.0,128.0
6.525,-15872.0,4288.0,128.0
6.5275,-15808.0,4352.0,128.0
6.53,-15872.0,4352.0,128.0
6.5325,-15808.0,4288.0,128.0
6.535,-15872.0,4352.0,192.0
6.5375,-15872.0,4352.0,128.0
6.54,-15872.0,4416.0,128.0
6.5425,-15872.0,4416.0,192.0
6.545,-15936.0,4416.0,192.0
6.5475,-15936.0,4416.0,128.0
6.55,-16000.0,4480.0,192.0
6.5525,-16000.0,4416.0,256.0
6.555,-16000.0,4480.0,128.0
6.5575,-16064.0,4480.0,128.0
6.56,-16000.0,4544.0,256.0
6.5625,-15936.0,4480.0,192.0
6.565,-16000.0,4480.0,128.0
6.5675,-15936.0,4544.0,64.0
6.57,-16000.0,4544.0,128.0
6.5725,-16000.0,4608.0,128.0
6.575,-16064.0,4544.0,128.0
6.5775,-16064.0,4608.0,128.0
6.58,-16064.0,4608.0,128.0
6.5825,-16064.0,4608.0,128.0
6.585,-16064.0,4608.0,128.0
6.5875,-16128.0,4672.0,256.0
6.59,-16128.0,4736.0,256.0
6.5925,-16192.0,4800.0,192.0
6.595,-16128.0,4800.0,192.0
6.5975,-16192.0,4864.0,192.0
6.6,-16128.0,4864.0,192.0
6.6025,-16128.0,4736.0,192.0
6.605,-16128.0,4800.0,192.0
6.6075,-16128.0,4800.0,256.0
6.61,-16128.0,4800.0,320.0
6.6125,-16064.0,4800.0,320.0
6.615,-16064.0,4736.0,320.0
6.6175,-16064.0,4672.0,384.0
6.62,-16064.0,4736.0,448.0
6.6225,-16000.0,4672.0,448.0
6.625,-16000.0,4608.0,384.0
6.6275,-16000.0,4544.0,384.0
6.63,-16000.0,4544.0,384.0
6.6325,-16000.0,4544.0,384.0
6.635,-16000.0,4544.0,384.0
6.6375,-16000.0,4544.0,448.0
6.64,-16000.0,4544.0,384.0
6.6425,-15872.0,4480.0,320.0
6.645,-15936.0,4480.0,384.0
6.6475,-15872.0,4480.0,384.0
6.65,-15872.0,4480.0,384.0
6.6525,-15872.0,4416.0,448.0
6.655,-15872.0,4416.0,448.0
6.6575,-15872.0,4352.0,448.0
6.66,-15872.0,4416.0,384.0
6.6625,-15872.0,4416.0,384.0
6.665,-15872.0,4352.0,448.0
6.6675,-15808.0,4416.0,448.0
6.67,-15808.0,4416.0,448.0
6.6725,-15808.0,4352.0,448.0
6.675,-15808.0,4416.0,448.0
6.6775,-15808.0,4416.0,448.0
6.68,-15808.0,4352.0,384.0
6.6825,-15744.0,4352.0,448.0
6.685,-15744.0,4416.0,448.0
6.6875,-15808.0,4416.0,448.0
6.69,-15808.0,4352.0,448.0
6.6925,-15744.0,4416.0,448.0
6.695,-15680.0,4416.0,448.0
6.6975,-15680.0,4416.0,448.0
6.7,-15616.0,4480.0,448.0
6.7025,-15616.0,4416.0,448.0
6.705,-15616.0,4352.0,448.0
6.7075,-15552.0,4416.0,384.0
6.71,-15552.0,4352.0,448.0
6.7125,-15488.0,4416.0,320.0
6.715,-15488.0,4480.0,320.0
6.7175,-15424.0,4480.0,384.0
6.72,-15424.0,4480.0,384.0
6.7225,-15424.0,4480.0,448.0
6.725,-15424.0,4480.0,448.0
6.7275,-15424.0,4416.0,384.0
6.73,-15424.0,4352.0,448.0
6.7325,-15424.0,4352.0,448.0
6.735,-15360.0,4352.0,384.0
6.7375,-15360.0,4352.0,384.0
6.74,-15360.0,4288.0,384.0
6.7425,-15360.0,4352.0,448.0
6.745,-15360.0,4288.0,384.0
6.7475,-15360.0,4352.0,320.0
6.75,-15360.0,4352.0,320.0
6.7525,-15424.0,4352.0,320.0
6.755,-15296.0,4416.0,384.0
6.7575,-15296.0,4352.0,448.0
6.76,-15232.0,4352.0,448.0
6.7625,-15232.0,4352.0,384.0
6.765,-15296.0,4352.0,384.0
6.7675,-15168.0,4352.0,448.0
6.77,-15168.0,4288.0,384.0
6.7725,-15168.0,4288.0,448.0
6.775,-15168.0,4224.0,448.0
6.7775,-15104.0,4288.0,448.0
6.78,-15104.0,4288.0,384.0
6.7825,-15040.0,4224.0,384.0
6.785,-14976.0,4224.0,320.0
6.7875,-14912.0,4160.0,320.0
6.79,-14848.0,4096.0,320.0
6.7925,-14784.0,4096.0,384.0
6.795,-14720.0,4096.0,384.0
6.7975,-14656.0,4032.0,448.0
6.8,-14592.0,4032.0,384.0
6.8025,-14528.0,4032.0,448.0
6.805,-14464.0,3968.0,448.0
6.8075,-14464.0,3968.0,384.0
6.81,-14464.0,3968.0,448.0
6.8125,-14336.0,3904.0,448.0
6.815,-14272.0,3904.0,384.0
6.8175,-14208.0,3904.0,448.0
6.82,-14208.0,3840.0,512.0
6.8225,-14144.0,3776.0,448.0
6.825,-14080.0,3712.0,448.0
6.8275,-14144.0,3520.0,576.0
6.83,-14080.0,3456.0,640.0
6.8325,-14080.0,3328.0,576.0
6.835,-14144.0,3392.0,576.0
6.8375,-14080.0,3456.0,512.0
6.84,-14016.0,3520.0,448.0
6.8425,-13952.0,3520.0,448.0
6.845,-13952.0,3520.0,448.0
6.8475,-13952.0,3456.0,384.0
6.85,-14016.0,3456.0,320.0
6.8525,-14016.0,3456.0,320.0
6.855,-14016.0,3520.0,384.0
6.8575,-14144.0,3584.0,384.0
6.86,-14272.0,3584.0,448.0
6.8625,-14400.0,3520.0,448.0
6.865,-14400.0,3520.0,384.0
6.8675,-14464.0,3520.0,384.0
6.87,-14528.0,3648.0,320.0
6.8725,-14592.0,3648.0,448.0
6.875,-14528.0,3712.0,448.0
6.8775,-14528.0,3648.0,384.0
6.88,-14528.0,3712.0,320.0
6.8825,-14528.0,3712.0,320.0
6.885,-14592.0,3712.0,320.0
6.8875,-14592.0,3712.0,384.0
6.89,-14656.0,3712.0,320.0
6.8925,-14720.0,3648.0,256.0
6.895,-14720.0,3712.0,256.0
6.8975,-14720.0,3776.0,256.0
6.9,-14656.0,3776.0,192.0
6.9025,-14720.0,3648.0,256.0
6.905,-14720.0,3712.0,192.0
6.9075,-14720.0,3712.0,192.0
6.91,-14784.0,3712.0,192.0
6.9125,-14784.0,3648.0,128.0
6.915,-14720.0,3712.0,128.0
6.9175,-14784.0,3712.0,128.0
6.92,-14784.0,3712.0,128.0
6.9225,-14784.0,3712.0,128.0
6.925,-14784.0,3648.0,192.0
6.9275,-14720.0,3648.0,192.0
6.93,-14784.0,3648.0,256.0
6.9325,-14784.0,3584.0,256.0
6.935,-14784.0,3584.0,256.0
6.9375,-14720.0,3584.0,256.0
6.94,-14720.0,3584.0,192.0
6.9425,-14784.0,3584.0,256.0
6.945,-14848.0,3584.0,256.0
6.9475,-14848.0,3520.0,320.0
6.95,-14848.0,3584.0,320.0
6.9525,-14848.0,3520.0,256.0
6.955,-14848.0,3520.0,256.0
6.9575,-14848.0,3520.0,256.0
6.96,-14912.0,3520.0,320.0
6.9625,-14912.0,3584.0,320.0
6.965,-14976.0,3520.0,320.0
6.9675,-14912.0,3584.0,256.0
6.97,-14976.0,3648.0,256.0
6.9725,-14912.0,3648.0,256.0
6.975,-14976.0,3648.0,256.0
6.9775,-15104.0,3648.0,192.0
6.98,-15168.0,3648.0,256.0
6.9825,-15168.0,3712.0,256.0
6.985,-15168.0,3648.0,320.0
6.9875,-15168.0,3776.0,384.0
6.99,-15232.0,3776.0,320.0
6.9925,-15168.0,3712.0,320.0
6.995,-15232.0,3776.0,384.0
6.9975,-15296.0,3840.0,320.0
7.0,-15360.0,3776.0,384.0
7.0025,-15360.0,3840.0,384.0
7.005,-15360.0,3840.0,448.0
7.0075,-15360.0,3840.0,448.0
7.01,-15360.0,3904.0,512.0
7.0125,-15424.0,3904.0,448.0
7.015,-15424.0,3904.0,448.0
7.0175,-15424.0,3904.0,512.0
7.02,-15424.0,3904.0,512.0
7.0225,-15424.0,3904.0,448.0
7.025,-15488.0,3904.0,448.0
7.0275,-15488.0,3904.0,448.0
7.03,-15488.0,3968.0,448.0
7.0325,-15488.0,3968.0,512.0
7.035,-15424.0,3968.0,512.0
7.0375,-15552.0,3904.0,448.0
7.04,-15488.0,3968.0,448.0
7.0425,-15552.0,3904.0,512.0
7.045,-15616.0,3968.0,512.0
7.0475,-15680.0,3968.0,512.0
7.05,-15680.0,3904.0,512.0
7.0525,-15680.0,3904.0,448.0
7.055,-15680.0,3904.0,512.0
7.0575,-15616.0,3840.0,576.0
7.06,-15616.0,3904.0,576.0
7.0625,-15616.0,3840.0,512.0
7.065,-15552.0,3840.0,512.0
7.0675,-15488.0,3776.0,512.0
7.07,-15488.0,3776.0,512.0
7.0725,-15488.0,3776.0,576.0
7.075,-15424.0,3712.0,576.0
7.0775,-15360.0,3648.0,640.0
7.08,-15296.0,3648.0,640.0
7.0825,-15232.0,3648.0,576.0
7.085,-15232.0,3584.0,576.0
7.0875,-15232.0,3584.0,576.0
7.09,-15104.0,3584.0,576.0
7.0925,-15040.0,3584.0,576.0
7.095,-15040.0,3648.0,704.0
7.0975,-15104.0,3712.0,704.0
7.1,-15104.0,3712.0,704.0
7.1025,-15168.0,3712.0,704.0
7.105,-15168.0,3776.0,704.0
7.1075,-15296.0,3840.0,704.0
7.11,-15360.0,3840.0,704.0
7.1125,-15360.0,3904.0,768.0
7.115,-15424.0,3904.0,640.0
7.1175,-15488.0,3968.0,704.0
7.12,-15552.0,3968.0,640.0
7.1225,-15680.0,3968.0,640.0
7.125,-15616.0,4096.0,704.0
7.1275,-15680.0,4096.0,640.0
7.13,-15744.0,4096.0,640.0
7.1325,-15872.0,4224.0,704.0
7.135,-15872.0,4160.0,640.0
7.1375,-15936.0,4224.0,704.0
7.14,-16000.0,4160.0,704.0
7.1425,-16000.0,4096.0,704.0
7.145,-15936.0,4096.0,704.0
7.1475,-15936.0,4160.0,768.0
7.15,-15936.0,4032.0,768.0
7.1525,-15936.0,4096.0,896.0
7.155,-15936.0,4032.0,896.0
7.1575,-15872.0,4032.0,832.0
7.16,-15744.0,4032.0,832.0
7.1625,-15744.0,4032.0,832.0
7.165,-15616.0,3968.0,832.0
7.1675,-15616.0,3904.0,832.0
7.17,-15488.0,3904.0,960.0
7.1725,-15424.0,3840.0,960.0
7.175,-15360.0,3840.0,896.0
7.1775,-15424.0,3840.0,960.0
7.18,-15296.0,3776.0,1024.0
7.1825,-15168.0,3776.0,1024.0
7.185,-15168.0,3776.0,896.0
7.1875,-15104.0,3776.0,960.0
7.19,-15104.0,3776.0,1024.0
7.1925,-15104.0,3712.0,1024.0
7.195,-15104.0,3712.0,896.0
7.1975,-15040.0,3712.0,1024.0
7.2,-15104.0,3712.0,1088.0
7.2025,-15104.0,3648.0,1088.0
7.205,-15104.0,3584.0,1088.0
7.2075,-15232.0,3648.0,1088.0
7.21,-15232.0,3648.0,1088.0
7.2125,-15296.0,3648.0,1088.0
7.215,-15360.0,3648.0,1024.0
7.2175,-15424.0,3648.0,1024.0
7.22,-15424.0,3648.0,1024.0
7.2225,-15424.0,3584.0,1024.0
7.225,-15424.0,3648.0,1024.0
7.2275,-15424.0,3648.0,1024.0
7.23,-15424.0,3712.0,960.0
7.2325,-15488.0,3712.0,960.0
7.235,-15552.0,3648.0,896.0
7.2375,-15488.0,3712.0,960.0
7.24,-15488.0,3712.0,896.0
7.2425,-15424.0,3776.0,896.0
7.245,-15488.0,3648.0,832.0
7.2475,-15488.0,3648.0,896.0
7.25,-15552.0,3776.0,832.0
7.2525,-15552.0,3712.0,896.0
7.255,-15552.0,3712.0,832.0
7.2575,-15680.0,3776.0,832.0
7.26,-15616.0,3840.0,832.0
7.2625,-15680.0,3968.0,768.0
7.265,-15680.0,3968.0,832.0
7.2675,-15680.0,4032.0,896.0
7.27,-15680.0,4032.0,768.0
7.2725,-15808.0,4096.0,768.0
7.275,-15872.0,4032.0,768.0
7.2775,-15936.0,4032.0,832.0
7.28,-15936.0,4096.0,768.0
7.2825,-15936.0,4160.0,768.0
7.285,-16000.0,4224.0,768.0
7.2875,-16000.0,4160.0,704.0
7.29,-16064.0,4224.0,704.0
7.2925,-16000.0,4224.0,704.0
7.295,-16128.0,4288.0,704.0
7.2975,-16128.0,4288.0,576.0
7.3,-16128.0,4224.0,576.0
7.3025,-16064.0,4224.0,640.0
7.305,-16128.0,4224.0,576.0
7.3075,-16192.0,4160.0,640.0
7.31,-16256.0,4160.0,704.0
7.3125,-16320.0,4160.0,704.0
7.315,-16320.0,4160.0,576.0
7.3175,-16320.0,4160.0,640.0
7.32,-16384.0,4160.0,576.0
7.3225,-16384.0,4096.0,640.0
7.325,-16320.0,4096.0,576.0
7.3275,-16320.0,4096.0,576.0
7.33,-16256.0,4032.0,512.0
7.3325,-16320.0,3968.0,576.0
7.335,-16320.0,4032.0,576.0
7.3375,-16256.0,4096.0,512.0
7.34,-16256.0,4032.0,448.0
7.3425,-16320.0,4032.0,448.0
7.345,-16320.0,4032.0,448.0
7.3475,-16384.0,4032.0,512.0
7.35,-16384.0,4032.0,512.0
7.3525,-16384.0,4096.0,448.0
7.355,-16320.0,4032.0,512.0
7.3575,-16448.0,4096.0,512.0
7.36,-16448.0,4096.0,576.0
7.3625,-16448.0,4160.0,512.0
7.365,-16512.0,4160.0,512.0
7.3675,-16448.0,4160.0,576.0
7.37,-16384.0,4160.0,640.0
7.3725,-16384.0,4160.0,640.0
7.375,-16448.0,4160.0,704.0
7.3775,-16384.0,4224.0,768.0
7.38,-16384.0,4160.0,768.0
7.3825,-16384.0,4224.0,768.0
7.385,-16384.0,4224.0,768.0
7.3875,-16320.0,4224.0,768.0
7.39,-16256.0,4160.0,832.0
7.3925,-16256.0,4160.0,896.0
7.395,-16256.0,4160.0,896.0
7.3975,-16256.0,4160.0,896.0
7.4,-16320.0,4160.0,960.0
7.4025,-16320.0,4224.0,1024.0
7.405,-16384.0,4224.0,1024.0
7.4075,-16320.0,4160.0,1024.0
7.41,-16384.0,4096.0,1024.0
7.4125,-16384.0,4096.0,1024.0
7.415,-16320.0,4096.0,1024.0
7.4175,-16448.0,4096.0,960.0
7.42,-16512.0,4096.0,960.0
7.4225,-16512.0,4032.0,960.0
7.425,-16512.0,4096.0,896.0
7.4275,-16512.0,4032.0,960.0
7.43,-16576.0,4096.0,960.0
7.4325,-16576.0,4096.0,1024.0
7.435,-16640.0,4096.0,960.0
7.4375,-16640.0,4096.0,960.0
7.44,-16704.0,4096.0,896.0
7.4425,-16640.0,4096.0,896.0
7.445,-16640.0,4096.0,896.0
7.4475,-16704.0,4160.0,896.0
7.45,-16768.0,4160.0,896.0
7.4525,-16768.0,4160.0,960.0
7.455,-16832.0,4160.0,1024.0
7.4575,-16768.0,4160.0,1024.0
7.46,-16832.0,4224.0,960.0
7.4625,-16832.0,4224.0,960.0
7.465,-16768.0,4224.0,896.0
7.4675,-16768.0,4224.0,1024.0
7.47,-16768.0,4224.0,1024.0
7.4725,-16704.0,4224.0,896.0
7.475,-16768.0,4160.0,896.0
7.4775,-16768.0,4160.0,960.0
7.48,-16704.0,4096.0,960.0
7.4825,-16640.0,4096.0,960.0
7.485,-16576.0,4096.0,960.0
7.4875,-16512.0,4096.0,960.0
7.49,-16448.0,4096.0,896.0
7.4925,-16384.0,4096.0,960.0
7.495,-16256.0,4160.0,896.0
7.4975,-16256.0,4096.0,1024.0
7.5,-16256.0,4032.0,1024.0
7.5025,-16256.0,4032.0,960.0
7.505,-16192.0,3968.0,1024.0
7.5075,-16192.0,3968.0,1024.0
7.51,-16128.0,3968.0,1024.0
7.5125,-16128.0,3968.0,1024.0
7.515,-16128.0,3968.0,1024.0
7.5175,-16128.0,3968.0,1024.0
7.52,-16128.0,3968.0,1024.0
7.5225,-16064.0,3904.0,1024.0
7.525,-16128.0,3904.0,1088.0
7.5275,-16064.0,3904.0,1088.0
7.53,-16064.0,3904.0,1152.0
7.5325,-16064.0,3776.0,1088.0
7.535,-16128.0,3776.0,1088.0
7.5375,-16128.0,3776.0,1024.0
7.54,-16064.0,3840.0,1024.0
7.5425,-16064.0,3840.0,960.0
7.545,-16064.0,3840.0,1024.0
7.5475,-16064.0,3840.0,1024.0
7.55,-16128.0,3840.0,1024.0
7.5525,-16128.0,3904.0,1024.0
7.555,-16064.0,3904.0,1024.0
7.5575,-16064.0,3840.0,1024.0
7.56,-16128.0,3840.0,960.0
7.5625,-16128.0,3904.0,1024.0
7.565,-16128.0,3904.0,1024.0
7.5675,-16064.0,3904.0,1024.0
7.57,-16064.0,3968.0,960.0
7.5725,-16064.0,3968.0,1088.0
7.575,-16064.0,3968.0,1024.0
7.5775,-16064.0,4032.0,1024.0
7.58,-16064.0,4032.0,896.0
7.5825,-16000.0,4032.0,896.0
7.585,-16064.0,4032.0,960.0
7.5875,-16000.0,4096.0,1024.0
7.59,-16064.0,4032.0,960.0
7.5925,-16064.0,4032.0,1024.0
7.595,-16000.0,4032.0,960.0
7.5975,-16064.0,4032.0,960.0
7.6,-16064.0,4096.0,896.0
7.6025,-16128.0,4032.0,832.0
7.605,-16064.0,4096.0,832.0
7.6075,-16064.0,4096.0,832.0
7.61,-16000.0,4032.0,896.0
7.6125,-15936.0,4032.0,896.0
7.615,-15936.0,4032.0,896.0
7.6175,-15936.0,3968.0,896.0
7.62,-15936.0,4032.0,896.0
7.6225,-15936.0,4032.0,896.0
7.625,-15936.0,4032.0,896.0
7.6275,-15936.0,4032.0,896.0
7.63,-15936.0,4032.0,896.0
7.6325,-15936.0,4032.0,896.0
7.635,-15936.0,3968.0,960.0
7.6375,-15936.0,3904.0,960.0
7.64,-15936.0,3968.0,960.0
7.6425,-15936.0,3968.0,1024.0
7.645,-15936.0,4032.0,960.0
7.6475,-15808.0,4032.0,896.0
7.65,-15808.0,4096.0,896.0
7.6525,-15808.0,4032.0,896.0
7.655,-15808.0,3968.0,896.0
7.6575,-15744.0,3968.0,960.0
7.66,-15744.0,3904.0,960.0
7.6625,-15744.0,3904.0,1088.0
7.665,-15744.0,3904.0,1088.0
7.6675,-15808.0,3904.0,1088.0
7.67,-15872.0,3904.0,1216.0
7.6725,-15872.0,3904.0,1152.0
7.675,-15872.0,3968.0,1152.0
7.6775,-15872.0,3968.0,1216.0
7.68,-15872.0,3968.0,1344.0
7.6825,-15936.0,3968.0,1280.0
7.685,-15936.0,4032.0,1216.0
7.6875,-15936.0,3968.0,1280.0
7.69,-15936.0,4032.0,1216.0
7.6925,-16000.0,4032.0,1280.0
7.695,-16064.0,4032.0,1280.0
7.6975,-16064.0,4032.0,1280.0
7.7,-16128.0,4032.0,1280.0
7.7025,-16128.0,4032.0,1280.0
7.705,-16128.0,4096.0,1280.0
7.7075,-16192.0,4096.0,1216.0
7.71,-16192.0,4096.0,1152.0
7.7125,-16256.0,4160.0,1216.0
7.715,-16256.0,4096.0,1088.0
7.7175,-16256.0,4096.0,1088.0
7.72,-16256.0,4160.0,1088.0
7.7225,-16320.0,4160.0,1088.0
7.725,-16256.0,4160.0,1024.0
7.7275,-16320.0,4096.0,1088.0
7.73,-16384.0,4160.0,1152.0
7.7325,-16384.0,4160.0,1216.0
7.735,-16384.0,4160.0,1216.0
7.7375,-16384.0,4160.0,1152.0
7.74,-16384.0,4096.0,1088.0
7.7425,-16384.0,4160.0,1088.0
7.745,-16448.0,4160.0,1152.0
7.7475,-16384.0,4096.0,1152.0
7.75,-16384.0,4160.0,1152.0
7.7525,-16448.0,4160.0,1152.0
7.755,-16448.0,4224.0,1216.0
7.7575,-16384.0,4160.0,1280.0
7.76,-16384.0,4160.0,1216.0
7.7625,-16448.0,4160.0,1152.0
7.765,-16448.0,4160.0,1088.0
7.7675,-16448.0,4160.0,1216.0
7.77,-16448.0,4160.0,1216.0
7.7725,-16512.0,4224.0,1152.0
7.775,-16576.0,4160.0,1216.0
7.7775,-16512.0,4224.0,1216.0
7.78,-16512.0,4288.0,1216.0
7.7825,-16576.0,4288.0,1280.0
7.785,-16512.0,4288.0,1280.0
7.7875,-16576.0,4288.0,1216.0
7.79,-16640.0,4352.0,1216.0
7.7925,-16704.0,4416.0,1216.0
7.795,-16768.0,4416.0,1280.0
7.7975,-16832.0,4480.0,1216.0
7.8,-16832.0,4544.0,1216.0
7.8025,-16896.0,4608.0,1280.0
7.805,-16960.0,4608.0,1280.0
7.8075,-16960.0,4608.0,1216.0
7.81,-17152.0,4736.0,1280.0
7.8125,-17216.0,4736.0,1280.0
7.815,-17344.0,4800.0,1216.0
7.8175,-17408.0,4864.0,1280.0
7.82,-17472.0,4928.0,1216.0
7.8225,-17600.0,4928.0,1280.0
7.825,-17664.0,4992.0,1344.0
7.8275,-17792.0,4992.0,1280.0
7.83,-17856.0,4992.0,1280.0
7.8325,-17920.0,5056.0,1216.0
7.835,-17984.0,4992.0,1344.0
7.8375,-17984.0,5056.0,1344.0
7.84,-18112.0,5056.0,1344.0
7.8425,-18176.0,5056.0,1280.0
7.845,-18240.0,5056.0,1280.0
7.8475,-18304.0,5120.0,1344.0
7.85,-18368.0,5120.0,1408.0
7.8525,-18432.0,5120.0,1408.0
7.855,-18496.0,5184.0,1408.0
7.8575,-18560.0,5184.0,1344.0
7.86,-18560.0,5120.0,1344.0
7.8625,-18624.0,5120.0,1280.0
7.865,-18688.0,5120.0,1344.0
7.8675,-18688.0,5120.0,1344.0
7.87,-18688.0,5120.0,1472.0
7.8725,-18688.0,5184.0,1472.0
7.875,-18624.0,5184.0,1472.0
7.8775,-18688.0,5120.0,1600.0
7.88,-18624.0,5120.0,1536.0
7.8825,-18688.0,5184.0,1536.0
7.885,-18624.0,5184.0,1472.0
7.8875,-18624.0,5120.0,1536.0
7.89,-18624.0,5120.0,1664.0
7.8925,-18688.0,5056.0,1664.0
7.895,-18688.0,5056.0,1664.0
7.8975,-18624.0,5056.0,1728.0
7.9,-18688.0,5056.0,1792.0
7.9025,-18624.0,4992.0,1728.0
7.905,-18624.0,4992.0,1728.0
7.9075,-18624.0,4992.0,1728.0
7.91,-18496.0,4928.0,1728.0
7.9125,-18496.0,4864.0,1792.0
7.915,-18432.0,4928.0,1792.0
7.9175,-18368.0,4864.0,1792.0
7.92,-18368.0,4800.0,1792.0
7.9225,-18304.0,4800.0,1920.0
7.925,-18304.0,4800.0,1920.0
7.9275,-18304.0,4736.0,1920.0
7.93,-18176.0,4800.0,1920.0
7.9325,-18176.0,4736.0,1856.0
7.935,-18112.0,4672.0,1856.0
7.9375,-18176.0,4736.0,1792.0
7.94,-18112.0,4800.0,1792.0
7.9425,-18048.0,4800.0,1856.0
7.945,-17984.0,4800.0,1792.0
7.9475,-17984.0,4672.0,1856.0
7.95,-17984.0,4736.0,1728.0
7.9525,-17920.0,4672.0,1728.0
7.955,-17920.0,4672.0,1856.0
7.9575,-17920.0,4672.0,1792.0
7.96,-17856.0,4736.0,1792.0
7.9625,-17792.0,4736.0,1728.0
7.965,-17792.0,4736.0,1792.0
7.9675,-17792.0,4736.0,1792.0
7.97,-17664.0,4672.0,1664.0
7.9725,-17728.0,4672.0,1664.0
7.975,-17728.0,4672.0,1664.0
7.9775,-17728.0,4736.0,1600.0
7.98,-17792.0,4672.0,1536.0
7.9825,-17792.0,4736.0,1472.0
7.985,-17792.0,4736.0,1472.0
7.9875,-17856.0,4736.0,1408.0
7.99,-17856.0,4800.0,1408.0
7.9925,-17920.0,4800.0,1344.0
7.995,-17920.0,4736.0,1344.0
7.9975,-17920.0,4736.0,1280.0
8.0,-17984.0,4736.0,1280.0
8.0025,-17984.0,4736.0,1216.0
8.005,-18048.0,4800.0,1216.0
8.0075,-17984.0,4736.0,1216.0
8.01,-18048.0,4672.0,1152.0
8.0125,-17984.0,4736.0,1216.0
8.015,-18048.0,4736.0,1088.0
8.0175,-17984.0,4736.0,1088.0
8.02,-18048.0,4736.0,1088.0
8.0225,-18048.0,4736.0,1024.0
8.025,-17984.0,4736.0,1024.0
8.0275,-17984.0,4736.0,1024.0
8.03,-18048.0,4736.0,1024.0
8.0325,-18048.0,4736.0,1024.0
8.035,-18048.0,4736.0,1024.0
8.0375,-18048.0,4800.0,1024.0
8.04,-18048.0,4736.0,896.0
8.0425,-18048.0,4736.0,896.0
8.045,-17984.0,4800.0,960.0
8.0475,-17984.0,4800.0,896.0
8.05,-17920.0,4928.0,832.0
8.0525,-17984.0,4928.0,896.0
8.055,-17920.0,4928.0,896.0
8.0575,-18048.0,4928.0,832.0
8.06,-17984.0,4928.0,832.0
8.0625,-17920.0,4928.0,832.0
8.065,-17984.0,4864.0,896.0
8.0675,-17984.0,4928.0,896.0
8.07,-17920.0,4928.0,896.0
8.0725,-17920.0,4928.0,832.0
8.075,-17856.0,4864.0,832.0
8.0775,-17856.0,4864.0,832.0
8.08,-17856.0,4864.0,896.0
8.0825,-17728.0,4864.0,832.0
8.085,-17728.0,4864.0,832.0
8.0875,-17664.0,4864.0,832.0
8.09,-17600.0,4800.0,832.0
8.0925,-17600.0,4800.0,832.0
8.095,-17600.0,4736.0,832.0
8.0975,-17600.0,4736.0,768.0
8.1,-17600.0,4672.0,832.0
8.1025,-17536.0,4736.0,832.0
8.105,-17472.0,4672.0,832.0
8.1075,-17472.0,4736.0,832.0
8.11,-17472.0,4672.0,896.0
8.1125,-17408.0,4672.0,896.0
8.115,-17408.0,4672.0,960.0
8.1175,-17408.0,4608.0,1024.0
8.12,-17344.0,4544.0,1024.0
8.1225,-17280.0,4544.0,960.0
8.125,-17344.0,4544.0,960.0
8.1275,-17280.0,4480.0,1024.0
8.13,-17152.0,4416.0,1024.0
8.1325,-17088.0,4416.0,1088.0
8.135,-17088.0,4352.0,1152.0
8.1375,-17152.0,4416.0,1088.0
8.14,-17088.0,4416.0,1088.0
8.1425,-17024.0,4416.0,1152.0
8.145,-16960.0,4352.0,1024.0
8.1475,-17024.0,4416.0,1088.0
8.15,-16960.0,4352.0,1152.0
8.1525,-16960.0,4416.0,1152.0
8.155,-16960.0,4352.0,1152.0
8.1575,-16896.0,4352.0,1088.0
8.16,-16896.0,4416.0,1152.0
8.1625,-16896.0,4416.0,1088.0
8.165,-16896.0,4416.0,1152.0
8.1675,-16960.0,4416.0,1152.0
8.17,-17024.0,4416.0,1088.0
8.1725,-16896.0,4416.0,1152.0
8.175,-16896.0,4416.0,1152.0
8.1775,-16896.0,4480.0,1216.0
8.18,-16896.0,4480.0,1152.0
8.1825,-16960.0,4416.0,1152.0
8.185,-16960.0,4416.0,1152.0
8.1875,-16960.0,4480.0,1152.0
8.19,-17024.0,4544.0,1216.0
8.1925,-17024.0,4480.0,1216.0
8.195,-16960.0,4544.0,1216.0
8.1975,-17024.0,4480.0,1280.0
8.2,-16960.0,4480.0,1216.0
8.2025,-17024.0,4544.0,1280.0
8.205,-17024.0,4480.0,1280.0
8.2075,-17088.0,4480.0,1280.0
8.21,-17024.0,4480.0,1216.0
8.2125,-17088.0,4480.0,1216.0
8.215,-17216.0,4544.0,1216.0
8.2175,-17216.0,4544.0,1280.0
8.22,-17152.0,4544.0,1216.0
8.2225,-17216.0,4544.0,1088.0
8.225,-17280.0,4480.0,1088.0
8.2275,-17152.0,4544.0,1088.0
8.23,-17152.0,4608.0,1024.0
8.2325,-17216.0,4544.0,1088.0
8.235,-17216.0,4608.0,1088.0
8.2375,-17216.0,4608.0,1024.0
8.24,-17216.0,4608.0,960.0
8.2425,-17152.0,4608.0,960.0
8.245,-17152.0,4608.0,960.0
8.2475,-17216.0,4608.0,1024.0
8.25,-17152.0,4608.0,1024.0
8.2525,-17152.0,4608.0,960.0
8.255,-17152.0,4608.0,960.0
8.2575,-17216.0,4608.0,896.0
8.26,-17216.0,4672.0,960.0
8.2625,-17216.0,4672.0,960.0
8.265,-17152.0,4672.0,960.0
8.2675,-17152.0,4736.0,960.0
8.27,-17152.0,4672.0,960.0
8.2725,-17152.0,4672.0,896.0
8.275,-17152.0,4672.0,832.0
8.2775,-17216.0,4672.0,960.0
8.28,-17216.0,4672.0,832.0
8.2825,-17216.0,4672.0,832.0
8.285,-17280.0,4672.0,896.0
8.2875,-17280.0,4800.0,896.0
8.29,-17280.0,4800.0,896.0
8.2925,-17344.0,4800.0,832.0
8.295,-17344.0,4800.0,896.0
8.2975,-17408.0,4864.0,768.0
8.3,-17472.0,4992.0,768.0
8.3025,-17408.0,5056.0,704.0
8.305,-17408.0,4992.0,704.0
8.3075,-17536.0,4928.0,768.0
8.31,-17536.0,4992.0,832.0
8.3125,-17536.0,4992.0,832.0
8.315,-17600.0,5056.0,768.0
8.3175,-17664.0,5056.0,768.0
8.32,-17728.0,5056.0,832.0
8.3225,-17728.0,5056.0,768.0
8.325,-17728.0,5056.0,768.0
8.3275,-17792.0,5056.0,704.0
8.33,-17728.0,5056.0,768.0
8.3325,-17728.0,5120.0,768.0
8.335,-17728.0,5056.0,832.0
8.3375,-17792.0,5056.0,832.0
8.34,-17792.0,4992.0,832.0
8.3425,-17728.0,4992.0,896.0
8.345,-17728.0,4928.0,896.0
8.3475,-17664.0,4928.0,896.0
8.35,-17728.0,4928.0,960.0
8.3525,-17664.0,4928.0,960.0
8.355,-17664.0,4800.0,960.0
8.3575,-17664.0,4800.0,960.0
8.36,-17600.0,4800.0,960.0
8.3625,-17536.0,4800.0,960.0
8.365,-17536.0,4800.0,960.0
8.3675,-17472.0,4800.0,1024.0
8.37,-17408.0,4800.0,1024.0
8.3725,-17408.0,4800.0,896.0
8.375,-17344.0,4800.0,960.0
8.3775,-17344.0,4800.0,1024.0
8.38,-17344.0,4672.0,1088.0
8.3825,-17344.0,4608.0,1088.0
8.385,-17344.0,4608.0,1024.0
8.3875,-17344.0,4608.0,1024.0
8.39,-17280.0,4608.0,960.0
8.3925,-17280.0,4672.0,960.0
8.395,-17280.0,4608.0,1024.0
8.3975,-17216.0,4672.0,1088.0
8.4,-17216.0,4608.0,1216.0
8.4025,-17216.0,4608.0,1152.0
8.405,-17152.0,4480.0,1088.0
8.4075,-17152.0,4480.0,1088.0
8.41,-17152.0,4480.0,1088.0
8.4125,-17152.0,4416.0,1152.0
8.415,-17216.0,4416.0,1088.0
8.4175,-17152.0,4416.0,1152.0
8.42,-17152.0,4416.0,1152.0
8.4225,-17088.0,4352.0,1152.0
8.425,-17024.0,4352.0,1216.0
8.4275,-16960.0,4352.0,1088.0
8.43,-16896.0,4352.0,1088.0
8.4325,-16896.0,4352.0,1088.0
8.435,-16896.0,4352.0,1024.0
8.4375,-16832.0,4288.0,1024.0
8.44,-16832.0,4288.0,960.0
8.4425,-16768.0,4288.0,896.0
8.445,-16768.0,4288.0,896.0
8.4475,-16768.0,4288.0,896.0
8.45,-16704.0,4352.0,768.0
8.4525,-16704.0,4288.0,768.0
8.455,-16640.0,4352.0,768.0
8.4575,-16640.0,4416.0,704.0
8.46,-16576.0,4352.0,704.0
8.4625,-16576.0,4288.0,640.0
8.465,-16448.0,4416.0,640.0
8.4675,-16512.0,4480.0,640.0
8.47,-16576.0,4416.0,640.0
8.4725,-16576.0,4416.0,640.0
8.475,-16576.0,4416.0,640.0
8.4775,-16576.0,4480.0,576.0
8.48,-16576.0,4480.0,576.0
8.4825,-16640.0,4480.0,448.0
8.485,-16704.0,4480.0,448.0
8.4875,-16704.0,4544.0,448.0
8.49,-16704.0,4544.0,448.0
8.4925,-16704.0,4544.0,384.0
8.495,-16704.0,4544.0,384.0
8.4975,-16704.0,4544.0,320.0
8.5,-16704.0,4544.0,320.0
8.5025,-16704.0,4608.0,320.0
8.505,-16704.0,4608.0,384.0
8.5075,-16704.0,4608.0,320.0
8.51,-16640.0,4608.0,384.0
8.5125,-16704.0,4608.0,384.0
8.515,-16768.0,4608.0,448.0
8.5175,-16768.0,4608.0,384.0
8.52,-16704.0,4672.0,448.0
8.5225,-16704.0,4608.0,448.0
8.525,-16704.0,4672.0,448.0
8.5275,-16704.0,4608.0,448.0
8.53,-16704.0,4608.0,512.0
8.5325,-16704.0,4608.0,448.0
8.535,-16640.0,4608.0,448.0
8.5375,-16576.0,4672.0,448.0
8.54,-16576.0,4608.0,384.0
8.5425,-16512.0,4672.0,384.0
8.545,-16512.0,4608.0,320.0
8.5475,-16448.0,4672.0,384.0
8.55,-16448.0,4608.0,448.0
8.5525,-16448.0,4608.0,448.0
8.555,-16448.0,4608.0,384.0
8.5575,-16384.0,4608.0,448.0
8.56,-16448.0,4608.0,448.0
8.5625,-16384.0,4544.0,448.0
8.565,-16384.0,4544.0,512.0
8.5675,-16320.0,4544.0,448.0
8.57,-16320.0,4608.0,448.0
8.5725,-16320.0,4608.0,512.0
8.575,-16256.0,4608.0,576.0
8.5775,-16192.0,4544.0,640.0
8.58,-16256.0,4544.0,576.0
8.5825,-16256.0,4480.0,576.0
8.585,-16320.0,4480.0,576.0
8.5875,-16256.0,4544.0,576.0
8.59,-16320.0,4544.0,512.0
8.5925,-16448.0,4544.0,512.0
8.595,-16384.0,4544.0,576.0
8.5975,-16384.0,4544.0,576.0
8.6,-16256.0,4544.0,576.0
8.6025,-16256.0,4480.0,512.0
8.605,-16192.0,4480.0,512.0
8.6075,-16192.0,4480.0,576.0
8.61,-16256.0,4352.0,640.0
8.6125,-16192.0,4288.0,576.0
8.615,-16192.0,4288.0,640.0
8.6175,-16128.0,4288.0,640.0
8.62,-16064.0,4224.0,704.0
8.6225,-16000.0,4224.0,768.0
8.625,-15936.0,4160.0,640.0
8.6275,-15936.0,4096.0,640.0
8.63,-15872.0,4096.0,640.0
8.6325,-15744.0,4032.0,576.0
8.635,-15744.0,4032.0,640.0
8.6375,-15680.0,4032.0,640.0
8.64,-15680.0,4032.0,640.0
8.6425,-15616.0,4032.0,640.0
8.645,-15680.0,4032.0,640.0
8.6475,-15552.0,4032.0,704.0
8.65,-15552.0,3968.0,640.0
8.6525,-15552.0,3968.0,704.0
8.655,-15552.0,3968.0,640.0
8.6575,-15424.0,4032.0,704.0
8.66,-15424.0,4096.0,704.0
8.6625,-15424.0,4160.0,768.0
8.665,-15424.0,4096.0,768.0
8.6675,-15360.0,4160.0,768.0
8.67,-15424.0,4160.0,704.0
8.6725,-15360.0,4224.0,704.0
8.675,-15424.0,4224.0,704.0
8.6775,-15488.0,4224.0,704.0
8.68,-15488.0,4224.0,768.0
8.6825,-15552.0,4224.0,704.0
8.685,-15552.0,4288.0,704.0
8.6875,-15616.0,4352.0,704.0
8.69,-15616.0,4416.0,640.0
8.6925,-15616.0,4416.0,640.0
8.695,-15744.0,4480.0,640.0
8.6975,-15808.0,4416.0,576.0
8.7,-15808.0,4416.0,576.0
8.7025,-15808.0,4480.0,640.0
8.705,-15808.0,4480.0,640.0
8.7075,-15808.0,4416.0,576.0
8.71,-15872.0,4480.0,576.0
8.7125,-15872.0,4416.0,576.0
8.715,-15872.0,4416.0,512.0
8.7175,-15808.0,4416.0,576.0
8.72,-15808.0,4352.0,576.0
8.7225,-15872.0,4416.0,576.0
8.725,-15808.0,4416.0,512.0
8.7275,-15744.0,4352.0,576.0
8.73,-15744.0,4352.0,576.0
8.7325,-15744.0,4352.0,512.0
8.735,-15680.0,4352.0,512.0
8.7375,-15616.0,4288.0,576.0
8.74,-15552.0,4288.0,512.0
8.7425,-15488.0,4288.0,576.0
8.745,-15552.0,4224.0,640.0
8.7475,-15552.0,4288.0,640.0
8.75,-15424.0,4224.0,576.0
8.7525,-15360.0,4160.0,576.0
8.755,-15424.0,4160.0,640.0
8.7575,-15424.0,4160.0,576.0
8.76,-15296.0,4096.0,576.0
8.7625,-15360.0,4160.0,640.0
8.765,-15296.0,4160.0,640.0
8.7675,-15168.0,4096.0,640.0
8.77,-15168.0,4096.0,576.0
8.7725,-15168.0,4032.0,512.0
8.775,-15232.0,3968.0,576.0
8.7775,-15168.0,4032.0,512.0
8.78,-15104.0,3968.0,512.0
8.7825,-14976.0,3968.0,576.0
8.785,-15040.0,3968.0,576.0
8.7875,-14976.0,3968.0,640.0
8.79,-14976.0,3968.0,640.0
8.7925,-14976.0,3968.0,704.0
8.795,-14912.0,3968.0,640.0
8.7975,-14912.0,3904.0,704.0
8.8,-14912.0,3904.0,640.0
8.8025,-14784.0,3904.0,640.0
8.805,-14784.0,3904.0,640.0
8.8075,-14784.0,3840.0,640.0
8.81,-14720.0,3904.0,704.0
8.8125,-14784.0,3904.0,704.0
8.815,-14720.0,3904.0,640.0
8.8175,-14720.0,3840.0,704.0
8.82,-14720.0,3840.0,576.0
8.8225,-14720.0,3776.0,640.0
8.825,-14656.0,3840.0,640.0
8.8275,-14720.0,3840.0,640.0
8.83,-14656.0,3840.0,576.0
8.8325,-14656.0,3840.0,576.0
8.835,-14656.0,3840.0,576.0
8.8375,-14656.0,3840.0,576.0
8.84,-14720.0,3904.0,576.0
8.8425,-14592.0,3904.0,640.0
8.845,-14656.0,3904.0,576.0
8.8475,-14656.0,3968.0,576.0
8.85,-14656.0,3968.0,512.0
8.8525,-14720.0,4032.0,512.0
8.855,-14720.0,4032.0,448.0
8.8575,-14784.0,4096.0,448.0
8.86,-14784.0,4096.0,512.0
8.8625,-14784.0,4160.0,448.0
8.865,-14912.0,4096.0,384.0
8.8675,-14976.0,4096.0,384.0
8.87,-15040.0,4160.0,320.0
8.8725,-15040.0,4160.0,384.0
8.875,-15104.0,4160.0,384.0
8.8775,-15104.0,4160.0,320.0
8.88,-15104.0,4160.0,384.0
8.8825,-15168.0,4224.0,320.0
8.885,-15232.0,4224.0,384.0
8.8875,-15296.0,4224.0,320.0
8.89,-15232.0,4288.0,384.0
8.8925,-15296.0,4224.0,384.0
8.895,-15296.0,4224.0,384.0
8.8975,-15232.0,4224.0,384.0
8.9,-15232.0,4224.0,384.0
8.9025,-15168.0,4224.0,320.0
8.905,-15168.0,4160.0,384.0
8.9075,-15168.0,4160.0,384.0
8.91,-15168.0,4096.0,256.0
8.9125,-15168.0,4096.0,256.0
8.915,-15104.0,4096.0,320.0
8.9175,-15104.0,4096.0,320.0
8.92,-15040.0,4096.0,384.0
8.9225,-15168.0,4096.0,320.0
8.925,-15104.0,4096.0,320.0
8.9275,-15040.0,4096.0,320.0
8.93,-15104.0,4096.0,320.0
8.9325,-15104.0,4032.0,320.0
8.935,-15040.0,4032.0,320.0
8.9375,-15104.0,4032.0,320.0
8.94,-15104.0,4096.0,320.0
8.9425,-15104.0,4032.0,320.0
8.945,-15040.0,4096.0,320.0
8.9475,-15040.0,4032.0,320.0
8.95,-14976.0,4032.0,256.0
8.9525,-15040.0,4032.0,320.0
8.955,-15040.0,4032.0,320.0
8.9575,-15104.0,4032.0,384.0
8.96,-15104.0,3968.0,320.0
8.9625,-15104.0,4032.0,320.0
8.965,-15104.0,4032.0,384.0
8.9675,-15168.0,4096.0,384.0
8.97,-15104.0,4032.0,384.0
8.9725,-15104.0,4096.0,448.0
8.975,-15232.0,4032.0,448.0
8.9775,-15168.0,4032.0,384.0
8.98,-15168.0,3968.0,384.0
8.9825,-15168.0,4032.0,384.0
8.985,-15168.0,4032.0,320.0
8.9875,-15232.0,3968.0,384.0
8.99,-15296.0,3968.0,384.0
8.9925,-15296.0,3968.0,384.0
8.995,-15232.0,3904.0,384.0
8.9975,-15296.0,3968.0,320.0
9.0,-15360.0,3904.0,384.0
9.0025,-15360.0,3904.0,320.0
9.005,-15360.0,3968.0,256.0
9.0075,-15232.0,4032.0,320.0
9.01,-15232.0,3904.0,320.0
9.0125,-15360.0,3904.0,320.0
9.015,-15360.0,3840.0,320.0
9.0175,-15360.0,3840.0,256.0
9.02,-15360.0,3840.0,256.0
9.0225,-15360.0,3840.0,384.0
9.025,-15424.0,3840.0,320.0
9.0275,-15424.0,3840.0,320.0
9.03,-15488.0,3904.0,192.0
9.0325,-15424.0,3904.0,192.0
9.035,-15360.0,3904.0,192.0
9.0375,-15360.0,3968.0,128.0
9.04,-15296.0,3968.0,128.0
9.0425,-15296.0,3904.0,192.0
9.045,-15296.0,3904.0,384.0
9.0475,-15360.0,3840.0,384.0
9.05,-15360.0,3904.0,320.0
9.0525,-15424.0,3904.0,384.0
9.055,-15552.0,3904.0,384.0
9.0575,-15552.0,3904.0,384.0
9.06,-15488.0,3904.0,256.0
9.0625,-15488.0,3904.0,320.0
9.065,-15552.0,3968.0,384.0
9.0675,-15552.0,3968.0,320.0
9.07,-15552.0,3968.0,256.0
9.0725,-15488.0,3968.0,320.0
9.075,-15488.0,3968.0,256.0
9.0775,-15552.0,4032.0,256.0
9.08,-15552.0,4032.0,256.0
9.0825,-15488.0,4032.0,256.0
9.085,-15552.0,3968.0,256.0
9.0875,-15552.0,3968.0,256.0
9.09,-15616.0,3968.0,320.0
9.0925,-15680.0,3968.0,256.0
9.095,-15680.0,3968.0,256.0
9.0975,-15680.0,3968.0,256.0
9.1,-15680.0,3968.0,320.0
9.1025,-15744.0,3904.0,256.0
9.105,-15680.0,3904.0,192.0
9.1075,-15680.0,3904.0,256.0
9.11,-15680.0,3904.0,192.0
9.1125,-15680.0,3904.0,192.0
9.115,-15616.0,3904.0,192.0
9.1175,-15616.0,3840.0,192.0
9.12,-15488.0,3840.0,256.0
9.1225,-15424.0,3776.0,256.0
9.125,-15424.0,3776.0,256.0
9.1275,-15424.0,3776.0,256.0
9.13,-15360.0,3648.0,192.0
9.1325,-15296.0,3648.0,128.0
9.135,-15360.0,3776.0,192.0
9.1375,-15232.0,3712.0,128.0
9.14,-15232.0,3712.0,256.0
9.1425,-15232.0,3712.0,192.0
9.145,-15104.0,3712.0,192.0
9.1475,-15104.0,3648.0,192.0
9.15,-15168.0,3648.0,128.0
9.1525,-15040.0,3648.0,192.0
9.155,-15040.0,3712.0,192.0
9.1575,-15040.0,3712.0,256.0
9.16,-15040.0,3712.0,256.0
9.1625,-14976.0,3584.0,256.0
9.165,-14976.0,3584.0,256.0
9.1675,-14912.0,3648.0,256.0
9.17,-14976.0,3648.0,192.0
9.1725,-14912.0,3712.0,192.0
9.175,-14976.0,3712.0,192.0
9.1775,-14976.0,3648.0,192.0
9.18,-14976.0,3648.0,256.0
9.1825,-14912.0,3712.0,192.0
9.185,-14976.0,3712.0,256.0
9.1875,-14912.0,3712.0,256.0
9.19,-14912.0,3648.0,192.0
9.1925,-14912.0,3712.0,192.0
9.195,-15040.0,3776.0,64.0
9.1975,-15040.0,3776.0,128.0
9.2,-15104.0,3840.0,64.0
9.2025,-15168.0,3840.0,64.0
9.205,-15168.0,3904.0,128.0
9.2075,-15296.0,3904.0,128.0
9.21,-15296.0,3904.0,64.0
9.2125,-15296.0,3968.0,192.0
9.215,-15360.0,3904.0,128.0
9.2175,-15424.0,3968.0,64.0
9.22,-15488.0,4032.0,0.0
9.2225,-15488.0,4032.0,0.0
9.225,-15552.0,4096.0,-64.0
9.2275,-15552.0,4096.0,-64.0
9.23,-15616.0,4096.0,-128.0
9.2325,-15680.0,4096.0,-128.0
9.235,-15744.0,4160.0,-128.0
9.2375,-15744.0,4160.0,-128.0
9.24,-15808.0,4224.0,-128.0
9.2425,-15744.0,4224.0,-128.0
9.245,-15808.0,4288.0,-64.0
9.2475,-15744.0,4352.0,-128.0
9.25,-15744.0,4224.0,-128.0
9.2525,-15744.0,4224.0,-128.0
9.255,-15616.0,4160.0,-128.0
9.2575,-15488.0,4160.0,-128.0
9.26,-15488.0,4096.0,-128.0
9.2625,-15360.0,4096.0,-64.0
9.265,-15360.0,4032.0,-128.0
9.2675,-15232.0,4032.0,0.0
9.27,-15168.0,3968.0,-64.0
9.2725,-15040.0,3968.0,0.0
9.275,-14976.0,3904.0,0.0
9.2775,-14912.0,3904.0,64.0
9.28,-14848.0,3904.0,0.0
9.2825,-14784.0,3968.0,0.0
9.285,-14720.0,3904.0,64.0
9.2875,-14720.0,3904.0,0.0
9.29,-14656.0,3968.0,0.0
9.2925,-14656.0,3968.0,0.0
9.295,-14720.0,3968.0,64.0
9.2975,-14656.0,4032.0,64.0
9.3,-14656.0,4032.0,64.0
9.3025,-14720.0,4032.0,64.0
9.305,-14784.0,4032.0,64.0
9.3075,-14784.0,4096.0,64.0
9.31,-14848.0,4096.0,128.0
9.3125,-14848.0,4096.0,64.0
9.315,-14848.0,4096.0,64.0
9.3175,-14912.0,4160.0,128.0
9.32,-14848.0,4160.0,64.0
9.3225,-14976.0,4096.0,64.0
9.325,-14912.0,4096.0,128.0
9.3275,-14976.0,4160.0,0.0
9.33,-15104.0,4096.0,0.0
9.3325,-15104.0,4096.0,0.0
9.335,-15104.0,4032.0,0.0
9.3375,-15168.0,4096.0,0.0
9.34,-15104.0,4096.0,0.0
9.3425,-15232.0,4096.0,0.0
9.345,-15232.0,4160.0,64.0
9.3475,-15296.0,4160.0,64.0
9.35,-15296.0,4096.0,0.0
9.3525,-15296.0,4160.0,0.0
9.355,-15296.0,4160.0,0.0
9.3575,-15296.0,4224.0,0.0
9.36,-15360.0,4160.0,-64.0
9.3625,-15360.0,4224.0,-64.0
9.365,-15424.0,4224.0,0.0
9.3675,-15424.0,4224.0,-64.0
9.37,-15424.0,4288.0,-64.0
9.3725,-15552.0,4352.0,-64.0
9.375,-15552.0,4352.0,-64.0
9.3775,-15552.0,4288.0,-64.0
9.38,-15488.0,4416.0,-64.0
9.3825,-15552.0,4352.0,-64.0
9.385,-15552.0,4352.0,-128.0
9.3875,-15616.0,4416.0,0.0
9.39,-15680.0,4416.0,0.0
9.3925,-15680.0,4416.0,0.0
9.395,-15744.0,4416.0,0.0
9.3975,-15808.0,4416.0,0.0
9.4,-15808.0,4480.0,64.0
9.4025,-15808.0,4416.0,0.0
9.405,-15872.0,4352.0,0.0
9.4075,-15808.0,4416.0,0.0
9.41,-15936.0,4416.0,0.0
9.4125,-15936.0,4352.0,64.0
9.415,-15872.0,4352.0,0.0
9.4175,-15872.0,4416.0,-64.0
9.42,-15936.0,4352.0,-128.0
9.4225,-15936.0,4352.0,-64.0
9.425,-15872.0,4416.0,-64.0
9.4275,-15936.0,4352.0,0.0
9.43,-15872.0,4352.0,0.0
9.4325,-15872.0,4288.0,0.0
9.435,-15872.0,4352.0,0.0
9.4375,-15872.0,4288.0,-64.0
9.44,-15808.0,4416.0,0.0
9.4425,-15744.0,4352.0,64.0
9.445,-15808.0,4416.0,0.0
9.4475,-15744.0,4352.0,128.0
9.45,-15808.0,4416.0,64.0
9.4525,-15744.0,4416.0,64.0
9.455,-15744.0,4416.0,0.0
9.4575,-15744.0,4416.0,128.0
9.46,-15744.0,4416.0,64.0
9.4625,-15744.0,4352.0,64.0
9.465,-15744.0,4416.0,0.0
9.4675,-15744.0,4416.0,64.0
9.47,-15744.0,4544.0,64.0
9.4725,-15744.0,4544.0,128.0
9.475,-15808.0,4544.0,128.0
9.4775,-15808.0,4480.0,128.0
9.48,-15808.0,4416.0,192.0
9.4825,-15808.0,4416.0,128.0
9.485,-15872.0,4480.0,128.0
9.4875,-15872.0,4480.0,128.0
9.49,-15872.0,4480.0,128.0
9.4925,-15872.0,4416.0,192.0
9.495,-15872.0,4416.0,128.0
9.4975,-15936.0,4416.0,192.0
9.5,-15936.0,4352.0,256.0
9.5025,-15872.0,4352.0,256.0
9.505,-15872.0,4352.0,256.0
9.5075,-15872.0,4288.0,192.0
9.51,-15872.0,4352.0,128.0
9.5125,-15872.0,4352.0,64.0
9.515,-15872.0,4288.0,128.0
9.5175,-15936.0,4288.0,128.0
9.52,-15936.0,4288.0,128.0
9.5225,-15936.0,4352.0,64.0
9.525,-15936.0,4352.0,0.0
9.5275,-16000.0,4352.0,64.0
9.53,-16064.0,4416.0,0.0
9.5325,-16064.0,4416.0,64.0
9.535,-16128.0,4416.0,64.0
9.5375,-16128.0,4416.0,64.0
9.54,-16128.0,4480.0,128.0
9.5425,-16128.0,4480.0,128.0
9.545,-16128.0,4416.0,64.0
9.5475,-16128.0,4416.0,192.0
9.55,-16064.0,4352.0,192.0
9.5525,-16000.0,4352.0,256.0
9.555,-16064.0,4416.0,192.0
9.5575,-16064.0,4480.0,192.0
9.56,-16128.0,4480.0,256.0
9.5625,-16128.0,4480.0,256.0
9.565,-16192.0,4480.0,192.0
9.5675,-16128.0,4480.0,192.0
9.57,-16128.0,4544.0,192.0
9.5725,-16128.0,4480.0,256.0
9.575,-16128.0,4544.0,192.0
9.5775,-16128.0,4480.0,128.0
9.58,-16192.0,4544.0,128.0
9.5825,-16192.0,4544.0,64.0
9.585,-16192.0,4480.0,128.0
9.5875,-16192.0,4544.0,192.0
9.59,-16192.0,4544.0,192.0
9.5925,-16128.0,4480.0,192.0
9.595,-16128.0,4480.0,256.0
9.5975,-16128.0,4480.0,320.0
9.6,-16128.0,4480.0,256.0
9.6025,-16128.0,4416.0,320.0
9.605,-16128.0,4416.0,256.0
9.6075,-16128.0,4416.0,256.0
9.61,-16128.0,4416.0,256.0
9.6125,-16128.0,4416.0,256.0
9.615,-16128.0,4416.0,320.0
9.6175,-16128.0,4416.0,320.0
9.62,-16128.0,4416.0,320.0
9.6225,-16128.0,4416.0,320.0
9.625,-16128.0,4352.0,384.0
9.6275,-16128.0,4416.0,384.0
9.63,-16128.0,4352.0,384.0
9.6325,-16128.0,4352.0,384.0
9.635,-16064.0,4352.0,448.0
9.6375,-16064.0,4416.0,448.0
9.64,-16064.0,4352.0,448.0
9.6425,-16064.0,4352.0,448.0
9.645,-16064.0,4288.0,512.0
9.6475,-16064.0,4288.0,448.0
9.65,-16064.0,4288.0,448.0
9.6525,-16064.0,4224.0,448.0
9.655,-16064.0,4224.0,384.0
9.6575,-16064.0,4288.0,448.0
9.66,-16064.0,4288.0,512.0
9.6625,-16000.0,4288.0,512.0
9.665,-16000.0,4224.0,512.0
9.6675,-16064.0,4224.0,512.0
9.67,-16000.0,4224.0,512.0
9.6725,-16064.0,4288.0,512.0
9.675,-16000.0,4224.0,512.0
9.6775,-15936.0,4288.0,576.0
9.68,-16000.0,4288.0,576.0
9.6825,-16000.0,4288.0,576.0
9.685,-16000.0,4288.0,512.0
9.6875,-16064.0,4224.0,576.0
9.69,-16064.0,4288.0,640.0
9.6925,-16064.0,4224.0,576.0
9.695,-16000.0,4288.0,512.0
9.6975,-16064.0,4224.0,512.0
9.7,-16128.0,4288.0,512.0
9.7025,-16128.0,4224.0,512.0
9.705,-16128.0,4224.0,576.0
9.7075,-16064.0,4288.0,512.0
9.71,-16064.0,4224.0,576.0
9.7125,-16064.0,4224.0,576.0
9.715,-16064.0,4160.0,512.0
9.7175,-16000.0,4224.0,512.0
9.72,-16064.0,4224.0,512.0
9.7225,-16000.0,4160.0,576.0
9.725,-16000.0,4160.0,576.0
9.7275,-16000.0,4224.0,512.0
9.73,-15936.0,4224.0,448.0
9.7325,-15936.0,4224.0,512.0
9.735,-15936.0,4160.0,512.0
9.7375,-15936.0,4160.0,512.0
9.74,-15936.0,4224.0,448.0
9.7425,-15936.0,4096.0,512.0
9.745,-15936.0,4160.0,512.0
9.7475,-15936.0,4160.0,576.0
9.75,-15872.0,4160.0,576.0
9.7525,-15872.0,4160.0,512.0
9.755,-15808.0,4160.0,640.0
9.7575,-15872.0,4096.0,640.0
9.76,-15808.0,4096.0,576.0
9.7625,-15808.0,4096.0,512.0
9.765,-15808.0,4096.0,512.0
9.7675,-15744.0,4096.0,512.0
9.77,-15744.0,4096.0,512.0
9.7725,-15808.0,4032.0,448.0
9.775,-15744.0,4096.0,448.0
9.7775,-15744.0,4160.0,448.0
9.78,-15744.0,4096.0,448.0
9.7825,-15744.0,4096.0,512.0
9.785,-15680.0,4096.0,512.0
9.7875,-15744.0,4032.0,448.0
9.79,-15744.0,4096.0,448.0
9.7925,-15744.0,4032.0,448.0
9.795,-15680.0,4096.0,448.0
9.7975,-15744.0,4096.0,448.0
9.8,-15744.0,4096.0,512.0
9.8025,-15744.0,4096.0,448.0
9.805,-15680.0,4096.0,384.0
9.8075,-15616.0,4096.0,384.0
9.81,-15616.0,4096.0,320.0
9.8125,-15616.0,4032.0,384.0
9.815,-15680.0,4032.0,384.0
9.8175,-15680.0,4032.0,384.0
9.82,-15616.0,4096.0,384.0
9.8225,-15552.0,4032.0,320.0
9.825,-15616.0,4032.0,320.0
9.8275,-15552.0,4032.0,256.0
9.83,-15552.0,4032.0,256.0
9.8325,-15616.0,4096.0,320.0
9.835,-15616.0,4032.0,256.0
9.8375,-15616.0,4032.0,320.0
9.84,-15680.0,4096.0,320.0
9.8425,-15680.0,4096.0,192.0
9.845,-15680.0,4032.0,256.0
9.8475,-15616.0,4032.0,256.0
9.85,-15616.0,4032.0,256.0
9.8525,-15616.0,4096.0,192.0
9.855,-15616.0,4032.0,128.0
9.8575,-15552.0,4032.0,192.0
9.86,-15552.0,4096.0,192.0
9.8625,-15552.0,4032.0,128.0
9.865,-15552.0,4096.0,192.0
9.8675,-15552.0,4096.0,64.0
9.87,-15552.0,4096.0,64.0
9.8725,-15552.0,4096.0,64.0
9.875,-15552.0,4096.0,128.0
9.8775,-15552.0,4032.0,128.0
9.88,-15552.0,4096.0,64.0
9.8825,-15616.0,4096.0,64.0
9.885,-15616.0,4096.0,64.0
9.8875,-15552.0,4032.0,64.0
9.89,-15552.0,4096.0,64.0
9.8925,-15616.0,4160.0,64.0
9.895,-15616.0,4160.0,64.0
9.8975,-15552.0,4160.0,64.0
9.9,-15616.0,4096.0,64.0
9.9025,-15616.0,4096.0,64.0
9.905,-15616.0,4096.0,64.0
9.9075,-15616.0,4096.0,0.0
9.91,-15616.0,4096.0,0.0
9.9125,-15616.0,4096.0,0.0
9.915,-15616.0,4096.0,64.0
9.9175,-15616.0,4096.0,0.0
9.92,-15552.0,4096.0,64.0
9.9225,-15488.0,4096.0,64.0
9.925,-15488.0,4096.0,64.0
9.9275,-15488.0,4096.0,64.0
9.93,-15488.0,4032.0,64.0
9.9325,-15552.0,4032.0,-64.0
9.935,-15552.0,4032.0,64.0
9.9375,-15488.0,4032.0,-64.0
9.94,-15424.0,3968.0,64.0
9.9425,-15360.0,3904.0,64.0
9.945,-15360.0,3904.0,64.0
9.9475,-15296.0,3840.0,64.0
9.95,-15168.0,3840.0,64.0
9.9525,-15104.0,3776.0,64.0
9.955,-14976.0,3776.0,64.0
9.9575,-14976.0,3712.0,64.0
9.96,-14848.0,3648.0,128.0
9.9625,-14784.0,3584.0,64.0
9.965,-14720.0,3584.0,192.0
9.9675,-14592.0,3584.0,192.0
9.97,-14464.0,3456.0,192.0
9.9725,-14464.0,3456.0,192.0
9.975,-14400.0,3456.0,192.0
9.9775,-14336.0,3456.0,192.0
9.98,-14336.0,3456.0,192.0
9.9825,-14336.0,3392.0,192.0
9.985,-14336.0,3328.0,256.0
9.9875,-14336.0,3392.0,256.0
9.99,-14336.0,3456.0,192.0
9.9925,-14464.0,3456.0,192.0
9.995,-14464.0,3520.0,192.0
9.9975,-14464.0,3520.0,256.0
10.0,-14528.0,3520.0,192.0
10.0025,-14528.0,3520.0,128.0
10.005,-14528.0,3584.0,128.0
10.0075,-14592.0,3648.0,64.0
10.01,-14656.0,3712.0,128.0
10.0125,-14656.0,3712.0,128.0
10.015,-14784.0,3712.0,128.0
10.0175,-14848.0,3776.0,128.0
10.02,-14848.0,3840.0,192.0
10.0225,-14912.0,3776.0,192.0
10.025,-14912.0,3840.0,192.0
10.0275,-14912.0,3904.0,192.0
10.03,-14912.0,3904.0,192.0
10.0325,-14976.0,3904.0,192.0
10.035,-14976.0,3904.0,320.0
10.0375,-14976.0,3904.0,256.0
10.04,-14976.0,3968.0,320.0
10.0425,-14976.0,3968.0,320.0
10.045,-14976.0,3968.0,320.0
10.0475,-15040.0,3968.0,384.0
10.05,-15104.0,3904.0,320.0
10.0525,-15040.0,3904.0,320.0
10.055,-15040.0,3904.0,256.0
10.0575,-15104.0,3968.0,384.0
10.06,-15104.0,3968.0,448.0
10.0625,-15104.0,3904.0,384.0
10.065,-15040.0,3904.0,384.0
10.0675,-15040.0,3840.0,448.0
10.07,-15040.0,3840.0,384.0
10.0725,-15040.0,3904.0,448.0
10.075,-15040.0,3904.0,384.0
10.0775,-15104.0,3840.0,448.0
10.08,-15040.0,3840.0,448.0
10.0825,-15040.0,3776.0,448.0
10.085,-14976.0,3712.0,448.0
10.0875,-15040.0,3712.0,512.0
10.09,-15040.0,3648.0,512.0
10.0925,-15040.0,3648.0,512.0
10.095,-15104.0,3648.0,512.0
10.0975,-15040.0,3712.0,512.0
10.1,-14976.0,3648.0,512.0
10.1025,-15040.0,3648.0,576.0
10.105,-14976.0,3648.0,576.0
10.1075,-14976.0,3712.0,512.0
10.11,-14976.0,3712.0,448.0
10.1125,-15040.0,3712.0,512.0
10.115,-15104.0,3712.0,512.0
10.1175,-15040.0,3712.0,512.0
10.12,-15104.0,3776.0,576.0
10.1225,-15104.0,3776.0,512.0
10.125,-15168.0,3840.0,576.0
10.1275,-15168.0,3840.0,576.0
10.13,-15104.0,3904.0,576.0
10.1325,-15168.0,3904.0,512.0
10.135,-15104.0,3904.0,512.0
10.1375,-15168.0,3904.0,512.0
10.14,-15168.0,3968.0,576.0
10.1425,-15168.0,3904.0,448.0
10.145,-15104.0,3968.0,512.0
10.1475,-15104.0,4032.0,448.0
10.15,-15040.0,3968.0,448.0
10.1525,-15040.0,4032.0,512.0
10.155,-15040.0,4032.0,512.0
10.1575,-15040.0,3968.0,448.0
10.16,-15104.0,4032.0,384.0
10.1625,-15168.0,4032.0,448.0
10.165,-15168.0,4032.0,384.0
10.1675,-15168.0,4032.0,384.0
10.17,-15232.0,4096.0,320.0
10.1725,-15232.0,4032.0,256.0
10.175,-15232.0,4096.0,192.0
10.1775,-15296.0,4096.0,256.0
10.18,-15424.0,4096.0,256.0
10.1825,-15424.0,4096.0,256.0
10.185,-15488.0,4096.0,256.0
10.1875,-15488.0,4096.0,256.0
10.19,-15552.0,4160.0,256.0
10.1925,-15680.0,4224.0,192.0
10.195,-15616.0,4160.0,256.0
10.1975,-15680.0,4224.0,128.0
10.2,-15680.0,4224.0,192.0
10.2025,-15680.0,4224.0,128.0
10.205,-15680.0,4224.0,128.0
10.2075,-15744.0,4160.0,128.0
10.21,-15744.0,4224.0,128.0
10.2125,-15744.0,4224.0,128.0
10.215,-15744.0,4160.0,192.0
10.2175,-15808.0,4096.0,192.0
10.22,-15808.0,4160.0,192.0
10.2225,-15744.0,4096.0,192.0
10.225,-15744.0,4096.0,256.0
10.2275,-15744.0,4160.0,192.0
10.23,-15808.0,4160.0,192.0
10.2325,-15808.0,4224.0,256.0
10.235,-15872.0,4224.0,320.0
10.2375,-15872.0,4224.0,384.0
10.24,-15808.0,4224.0,320.0
10.2425,-15808.0,4224.0,448.0
10.245,-15872.0,4288.0,384.0
10.2475,-15808.0,4288.0,384.0
10.25,-15744.0,4352.0,448.0
10.2525,-15808.0,4352.0,448.0
10.255,-15872.0,4288.0,448.0
10.2575,-15808.0,4288.0,448.0
10.26,-15808.0,4224.0,448.0
10.2625,-15744.0,4224.0,512.0
10.265,-15680.0,4224.0,512.0
10.2675,-15744.0,4224.0,512.0
10.27,-15616.0,4224.0,512.0
10.2725,-15616.0,4224.0,512.0
10.275,-15616.0,4160.0,576.0
10.2775,-15552.0,4160.0,576.0
10.28,-15488.0,4096.0,576.0
10.2825,-15424.0,4160.0,576.0
10.285,-15424.0,4160.0,576.0
10.2875,-15424.0,4096.0,512.0
10.29,-15360.0,4032.0,512.0
10.2925,-15424.0,4032.0,512.0
10.295,-15424.0,4032.0,512.0
10.2975,-15488.0,3968.0,512.0
10.3,-15488.0,3968.0,576.0
10.3025,-15488.0,3968.0,576.0
10.305,-15424.0,3968.0,512.0
10.3075,-15424.0,3968.0,512.0
10.31,-15424.0,4032.0,512.0
10.3125,-15424.0,3968.0,512.0
10.315,-15424.0,3904.0,512.0
10.3175,-15424.0,3904.0,512.0
10.32,-15424.0,3904.0,512.0
10.3225,-15360.0,3904.0,512.0
10.325,-15360.0,3840.0,512.0
10.3275,-15296.0,3840.0,512.0
10.33,-15360.0,3840.0,512.0
10.3325,-15424.0,3840.0,512.0
10.335,-15424.0,3840.0,576.0
10.3375,-15424.0,3904.0,576.0
10.34,-15488.0,3840.0,512.0
10.3425,-15424.0,3840.0,512.0
10.345,-15488.0,3840.0,512.0
10.3475,-15488.0,3904.0,512.0
10.35,-15488.0,3904.0,512.0
10.3525,-15488.0,3904.0,512.0
10.355,-15488.0,3904.0,512.0
10.3575,-15424.0,3968.0,512.0
10.36,-15488.0,3840.0,512.0
10.3625,-15552.0,3904.0,512.0
10.365,-15616.0,3840.0,512.0
10.3675,-15616.0,3904.0,576.0
10.37,-15616.0,3840.0,512.0
10.3725,-15616.0,3904.0,576.0
10.375,-15680.0,3904.0,576.0
10.3775,-15616.0,3968.0,512.0
10.38,-15680.0,3968.0,512.0
10.3825,-15680.0,3968.0,576.0
10.385,-15680.0,3968.0,512.0
10.3875,-15680.0,3968.0,512.0
10.39,-15616.0,4032.0,512.0
10.3925,-15680.0,4032.0,512.0
10.395,-15680.0,4032.0,448.0
10.3975,-15744.0,4032.0,448.0
10.4,-15744.0,4096.0,448.0
10.4025,-15680.0,4096.0,448.0
10.405,-15744.0,4032.0,448.0
10.4075,-15744.0,4032.0,448.0
10.41,-15744.0,4032.0,448.0
10.4125,-15744.0,4032.0,448.0
10.415,-15744.0,3968.0,512.0
10.4175,-15680.0,4032.0,512.0
10.42,-15680.0,4032.0,512.0
10.4225,-15680.0,4032.0,448.0
10.425,-15616.0,3968.0,512.0
10.4275,-15616.0,3904.0,512.0
10.43,-15552.0,3904.0,512.0
10.4325,-15616.0,3840.0,512.0
10.435,-15616.0,3904.0,448.0
10.4375,-15616.0,3904.0,448.0
10.44,-15680.0,3840.0,384.0
10.4425,-15616.0,3840.0,384.0
10.445,-15680.0,3904.0,384.0
10.4475,-15680.0,3904.0,384.0
10.45,-15680.0,3904.0,320.0
10.4525,-15680.0,3840.0,320.0
10.455,-15680.0,3840.0,320.0
10.4575,-15680.0,3904.0,384.0
10.46,-15744.0,3968.0,384.0
10.4625,-15808.0,4032.0,384.0
10.465,-15872.0,4032.0,320.0
